TiempoEjecucion,AnguloPitch,AnguloRoll,AnguloYaw,G_Pitch,G_Roll,G_Yaw,G_Pitch_filtrada,G_Roll_filtrada,G_Yaw_filtrada,Ax,Ay,Az,Ax_filtrada,Ay_filtrada,Az_filtrada,posZ,posZ_filtrada,velZ,motorDelantero,motorTrasero,motorDerecho,motorIzquierdo,EstadoEncendido,MensajesRecibidos
196.934074878,-7,1,-18,5,-12,-10,5,-10,-16,-1,178,36,-24,3,225,0,0,0,104,110,126,154,1,17384
196.943169832,-7,0,-18,8,-6,-9,6,-9,-9,-150,36,228,-26,13,224,0,0,0,101,115,131,147,1,17385
196.95299983,-7,0,-18,9,-15,-13,8,-11,-11,134,121,172,-27,10,223,0,0,0,96,116,130,152,1,17386
196.980065822,-6,0,-18,5,7,-1,7,-3,-7,-102,120,77,-27,13,228,0,0,0,104,117,140,133,1,17387
196.989281892,-6,0,-18,12,-14,-3,8,-3,-2,84,-209,109,-28,11,232,0,0,0,100,119,135,140,1,17388
196.998186826,-6,0,-18,0,4,13,6,-4,4,46,84,127,-29,21,236,0,0,0,113,120,125,135,1,17389
197.008033037,-5,0,-18,1,0,1,0,2,7,-111,-6,61,-35,17,228,0,0,0,115,108,145,126,1,17390
197.035161972,-5,0,-18,-8,-3,-9,-3,-1,-4,23,123,-129,-39,30,219,0,0,0,115,100,135,144,1,17391
197.044484853,-5,0,-19,-6,0,-19,-7,-1,-14,-24,-123,219,-37,24,228,0,0,0,114,93,143,145,1,17392
197.053987026,-4,-1,-19,-4,1,-20,-5,0,-20,-15,-9,127,-42,17,228,0,0,0,106,100,148,140,1,17393
197.064419031,-4,-1,-19,-8,-9,-5,-6,-3,-12,77,-145,147,-34,13,223,0,0,0,115,102,131,145,1,17394
197.090960979,-4,-1,-19,-9,6,9,-8,-1,1,39,-10,168,-36,9,217,0,0,0,125,104,134,131,1,17395
197.100489854,-4,-1,-19,-4,-10,-16,-6,-1,-3,-204,38,32,-44,12,214,0,0,0,110,99,142,144,1,17396
197.109078884,-4,-2,-19,-7,-5,-8,-6,-7,-12,-226,-182,213,-50,11,211,0,0,0,113,102,128,151,1,17397
197.118053913,-3,-2,-19,-2,1,-21,-5,-1,-14,-27,-19,121,-56,13,212,0,0,0,107,98,149,140,1,17398
197.145998954,-3,-2,-19,-7,1,-7,-5,1,-14,-140,130,116,-53,11,213,0,0,0,113,103,144,134,1,17399
197.155125856,-3,-3,-19,-3,9,-6,-5,5,-7,-134,247,211,-62,12,211,0,0,0,114,103,148,130,1,17400
197.164124965,-3,-3,-19,2,6,1,0,8,-2,136,-165,28,-62,-2,206,0,0,0,107,115,147,125,1,17401
197.173137903,-3,-3,-19,-3,1,-10,0,4,-4,-44,-171,171,-57,0,211,0,0,0,107,106,142,139,1,17402
197.201107025,-3,-4,-19,2,3,-10,0,2,-10,-54,-75,176,-62,-11,218,0,0,0,108,106,142,139,1,17403
197.210135936,-3,-4,-19,3,2,6,2,3,-1,2,33,154,-48,4,222,0,0,0,108,119,138,129,1,17404
197.219215869,-3,-4,-19,10,7,8,6,5,7,21,-150,125,-44,-2,231,0,0,0,104,124,140,125,1,17405
197.228974819,-2,-4,-19,5,11,0,7,9,4,43,56,165,-48,4,230,0,0,0,103,119,149,122,1,17406
197.256151914,-2,-5,-19,4,7,4,5,9,2,-124,175,97,-48,7,232,0,0,0,110,115,144,124,1,17407
197.265092849,-2,-5,-19,4,15,3,4,11,4,-92,142,-32,-53,9,224,0,0,0,109,116,148,121,1,17408
197.274228811,-2,-5,-19,3,5,0,3,10,2,36,28,-74,-46,5,214,0,0,0,108,114,146,126,1,17409
197.283954858,-2,-5,-19,7,-1,0,5,2,0,-26,140,160,-53,13,208,0,0,0,104,117,133,140,1,17410
197.311044931,-2,-5,-19,3,-11,-13,5,-6,-6,71,-47,110,-50,8,210,0,0,0,101,110,129,154,1,17411
197.320966005,-1,-6,-19,2,-8,4,3,-9,-4,-238,4,21,-48,0,209,0,0,0,112,114,123,146,1,17412
197.329921007,-1,-6,-19,1,-4,7,2,-6,6,-2,-6,77,-53,5,210,0,0,0,112,115,131,135,1,17413
197.339134931,-1,-6,-19,-4,-8,4,-1,-6,6,-54,-37,218,-47,9,209,0,0,0,117,108,129,140,1,17414
197.367029905,-1,-6,-19,-8,8,0,-6,0,2,127,168,147,-46,18,207,0,0,0,121,101,143,129,1,17415
197.376051902,-1,-7,-19,2,-7,-11,-3,0,-5,-57,-67,62,-48,1,208,0,0,0,107,106,142,139,1,17416
197.38509798,-1,-7,-19,-6,11,13,-2,1,0,113,-19,73,-44,1,207,0,0,0,117,115,135,127,1,17417
197.394035816,-1,-7,-19,-9,1,0,-7,6,6,185,-212,140,-38,-6,209,0,0,0,123,98,148,125,1,17418
197.422077894,-1,-7,-19,-9,-1,6,-9,0,3,65,180,186,-34,3,213,0,0,0,124,103,129,138,1,17419
197.431181907,-1,-7,-19,-9,0,-15,-9,0,-4,7,-86,-44,-26,6,214,0,0,0,114,95,142,143,1,17420
197.440150022,-1,-7,-19,0,1,-16,-4,0,-15,197,85,-9,-22,2,215,0,0,0,104,104,146,140,1,17421
197.449927806,-1,-7,-19,0,-3,-8,0,-1,-12,33,-113,219,-12,-2,217,0,0,0,103,112,138,142,1,17422
197.476971864,-1,-7,-19,-7,5,10,-3,0,1,-30,-161,136,-23,-10,211,0,0,0,122,108,135,128,1,17423
197.486107826,-1,-7,-19,5,-5,-9,0,0,0,155,37,98,-12,-8,212,0,0,0,106,108,140,140,1,17424
197.495946884,-1,-7,-19,1,1,-3,3,-2,-6,-133,42,203,-12,-7,212,0,0,0,103,116,135,140,1,17425
197.504887819,-1,-7,-19,7,7,-7,4,4,-5,-19,-202,177,-22,-16,218,0,0,0,103,112,150,129,1,17426
197.532097816,-1,-6,-19,2,0,0,5,4,-3,-161,-241,133,-24,-31,220,0,0,0,106,116,140,132,1,17427
197.542038917,-1,-6,-19,1,20,4,2,10,2,94,132,137,-23,-16,214,0,0,0,113,112,151,118,1,17428
197.552945852,-1,-6,-19,7,9,4,4,15,4,94,-222,22,-22,-24,205,0,0,0,106,118,154,116,1,17429
197.560098886,-1,-6,-19,-5,0,-6,1,4,-1,-111,-72,88,-22,-25,212,0,0,0,110,106,136,142,1,17430
197.587987899,-2,-6,-19,5,3,10,0,1,2,27,-148,205,-22,-45,227,0,0,0,115,115,132,132,1,17431
197.597003936,-2,-6,-19,-4,-2,7,0,0,9,-23,117,185,-16,-39,226,0,0,0,112,115,134,133,1,17432
197.605948925,-2,-6,-19,-3,0,2,-3,0,5,-124,102,167,-18,-23,227,0,0,0,120,104,134,136,1,17433
197.616052866,-2,-6,-19,6,0,-3,1,0,0,102,-164,18,-18,-17,224,0,0,0,104,115,141,134,1,17434
197.643030881,-2,-6,-19,-5,2,4,0,1,0,145,101,33,-15,-15,227,0,0,0,112,113,138,131,1,17435
197.652029037,-2,-6,-19,-7,0,6,-6,1,5,-128,-196,26,-13,-27,220,0,0,0,126,101,136,131,1,17436
197.66106987,-3,-6,-19,-6,4,11,-7,2,9,4,19,142,-7,-15,218,0,0,0,123,108,136,127,1,17437
197.670150041,-3,-6,-19,-5,-3,17,-5,0,14,149,148,230,-3,-5,215,0,0,0,122,113,129,129,1,17438
197.698084831,-3,-5,-19,2,2,-5,-1,0,5,6,-71,76,0,-10,214,0,0,0,106,111,138,138,1,17439
197.707340002,-3,-5,-19,-5,-3,-3,-1,0,-4,31,-160,26,4,-26,209,0,0,0,111,108,138,137,1,17440
197.716190814,-3,-5,-19,-3,4,15,-4,0,6,129,25,-53,4,-22,207,0,0,0,124,110,132,127,1,17441
197.726008892,-3,-5,-19,0,-5,0,-1,0,7,74,83,53,7,-9,198,0,0,0,109,112,136,137,1,17442
197.753013849,-3,-5,-19,-10,14,22,-4,4,11,-219,-57,-79,2,-2,185,0,0,0,128,112,136,118,1,17443
197.762137889,-3,-4,-19,2,-11,-15,-4,1,3,1,-10,133,2,-9,191,0,0,0,108,102,142,142,1,17444
197.771282911,-3,-4,-19,-5,4,13,-1,-3,-1,-41,-124,188,-5,-15,192,0,0,0,116,117,124,138,1,17445
197.781028032,-3,-4,-19,-7,13,-18,-6,9,-2,-199,89,113,-11,-14,197,0,0,0,114,93,164,124,1,17446
197.808212995,-3,-4,-19,2,5,15,-2,9,-1,109,136,213,-5,-15,194,0,0,0,116,118,140,120,1,17447
197.817257881,-3,-4,-19,-11,11,3,-4,8,9,-154,48,141,-6,-11,205,0,0,0,118,106,143,127,1,17448
197.826246976,-3,-4,-19,2,9,4,-4,10,3,67,-161,33,-6,-22,214,0,0,0,116,109,147,122,1,17449
197.836001873,-3,-4,-19,-4,0,0,-1,4,1,-34,-66,120,0,-34,219,0,0,0,109,112,137,136,1,17450
197.863153934,-3,-3,-19,0,-2,-7,-2,-1,-4,185,-20,157,3,-33,220,0,0,0,111,105,134,144,1,17451
197.872042894,-3,-3,-19,4,-6,9,2,-4,0,-41,161,191,7,-23,218,0,0,0,108,121,126,138,1,17452
197.881970882,-3,-3,-19,11,-3,12,8,-4,10,107,32,135,10,-22,213,0,0,0,104,128,127,135,1,17453
197.891024827,-3,-3,-19,0,-3,1,5,-3,6,73,-56,21,13,-23,208,0,0,0,109,114,135,136,1,17454
197.918211936,-4,-3,-18,2,0,3,0,-1,2,-131,-213,213,7,-38,204,0,0,0,115,109,136,134,1,17455
197.928236961,-4,-3,-18,10,-2,15,6,0,9,-216,9,49,3,-30,197,0,0,0,106,128,131,129,1,17456
197.937111854,-4,-3,-18,2,1,5,6,0,10,173,107,168,4,-21,206,0,0,0,106,120,135,133,1,17457
197.946025848,-4,-2,-18,5,-1,5,4,0,5,-159,-46,87,-3,-23,204,0,0,0,111,115,135,132,1,17458
197.973937034,-4,-2,-18,2,-13,-12,3,-7,-3,57,-153,163,2,-38,210,0,0,0,103,109,129,154,1,17459
197.985810995,-4,-2,-18,8,-1,2,5,-7,-5,81,-112,40,4,-38,219,0,0,0,105,119,129,141,1,17460
197.992033958,-4,-2,-18,-3,-2,7,2,-1,4,-107,132,121,-3,-37,222,0,0,0,113,114,137,129,1,17461
198.001121997,-4,-2,-18,4,-11,-5,0,-6,0,40,3,28,3,-28,217,0,0,0,110,108,128,148,1,17462
198.029367923,-4,-2,-18,0,9,10,2,0,2,-181,-32,151,5,-25,218,0,0,0,111,119,137,127,1,17463
198.038462877,-4,-2,-18,-1,-1,0,0,4,5,125,-3,199,5,-32,220,0,0,0,115,108,145,127,1,17464
198.054066896,-4,-2,-18,-4,20,3,-3,9,2,-253,90,56,2,-24,223,0,0,0,118,107,149,120,1,17465
198.089771986,-5,-2,-18,-5,0,12,-5,10,8,-66,-4,6,7,-19,219,0,0,0,123,110,143,119,1,17466
198.102952003,-5,-1,-18,-1,-2,-14,-3,-1,-1,-117,-233,132,8,-19,212,0,0,0,111,108,136,155,1,17467
198.136096,-5,-1,-18,-1,-2,12,-1,-2,0,33,54,93,6,-21,211,0,0,0,123,124,135,141,1,17468
198.15122199,-5,-1,-18,-4,-6,4,-2,-4,8,208,194,101,9,-4,219,0,0,0,126,118,138,148,1,17469
198.185151815,-5,-1,-18,2,16,-5,0,5,0,98,-8,23,15,3,218,0,0,0,117,119,161,133,1,17470
198.200346946,-4,-1,-18,1,7,2,2,11,-1,-76,-184,246,6,8,212,0,0,0,117,125,162,126,1,17471
198.234041929,-4,-1,-18,0,4,13,1,5,7,148,-140,-65,10,2,206,0,0,0,128,129,144,141,1,17472
198.249150037,-4,0,-17,0,10,12,0,7,13,-126,-60,140,10,-8,212,0,0,0,131,130,154,135,1,17473
198.259074926,-4,0,-17,4,2,13,2,6,13,70,-169,164,9,-8,222,0,0,0,127,134,151,138,1,17474
198.286031007,-4,0,-17,4,-4,6,4,-1,9,-203,143,-4,0,-7,215,0,0,0,122,134,141,154,1,17475
198.301632881,-4,0,-17,4,0,-2,4,-2,2,-10,-3,198,3,-2,219,0,0,0,120,129,147,153,1,17476
198.304895877,-4,0,-17,-2,-8,-6,1,-4,-4,-36,-64,115,-3,-17,218,0,0,0,124,121,147,157,1,17477
198.314046859,-4,0,-17,2,-4,-11,0,-6,-8,138,-202,203,-3,-26,224,0,0,0,122,120,147,161,1,17478
198.341166973,-4,0,-17,0,-1,9,0,-3,0,-24,-176,86,-11,-28,224,0,0,0,128,130,147,145,1,17479
198.351011037,-4,0,-17,1,-5,0,0,-3,4,4,211,149,-11,-13,234,0,0,0,126,124,147,153,1,17480
198.360064029,-4,0,-17,3,-3,3,2,-4,1,99,129,205,-12,-4,240,0,0,0,123,131,144,152,1,17481
198.369000911,-4,0,-17,-7,-1,13,-1,-2,8,37,-183,114,-13,-17,242,0,0,0,136,125,144,144,1,17482
198.397430896,-4,0,-17,-3,-8,18,-5,-5,16,56,162,119,0,-5,247,0,0,0,142,124,136,148,1,17483
198.405895948,-4,-1,-17,-2,-1,-4,-3,-4,7,10,243,135,-6,1,240,0,0,0,125,122,148,155,1,17484
198.415091991,-4,-1,-17,0,-7,-2,-1,-4,-3,160,-121,-63,-1,7,228,0,0,0,125,124,147,154,1,17485
198.424036979,-3,-1,-17,6,-5,-5,3,-6,-3,59,66,145,11,6,228,0,0,0,116,130,144,159,1,17486
198.452060937,-3,0,-17,-5,-4,9,0,-5,1,-87,-150,112,6,-6,226,0,0,0,131,128,143,149,1,17487
198.46104002,-3,-1,-17,8,-11,-1,1,-7,3,228,-34,143,16,-15,220,0,0,0,123,127,141,159,1,17488
198.470058918,-3,0,-17,-2,-6,6,2,-8,2,-48,-22,20,6,-5,213,0,0,0,125,132,139,155,1,17489
198.479851007,-3,0,-17,-2,-3,6,-2,-4,6,23,37,-36,14,10,202,0,0,0,135,122,146,147,1,17490
198.513176918,-3,0,-17,4,2,-12,1,0,-2,101,-217,4,12,5,199,0,0,0,121,129,163,153,1,17491
198.529129028,-3,0,-17,-8,-6,4,-1,-1,-3,-27,-73,104,12,-7,196,0,0,0,132,123,145,150,1,17492
198.562153816,-3,0,-17,10,2,0,1,-2,1,125,-128,15,13,-17,200,0,0,0,126,133,152,155,1,17493
198.578027963,-2,0,-17,15,1,-10,12,1,-5,-101,-138,149,9,-13,203,0,0,0,99,143,160,148,1,17494
198.611100912,-2,0,-17,13,7,-14,14,4,-12,-51,-175,1,11,-12,198,0,0,0,109,138,167,152,1,17495
198.620316028,-2,0,-17,7,14,6,10,11,-4,84,41,48,18,-11,204,0,0,0,125,139,168,134,1,17496
198.629974842,-2,0,-17,4,3,-3,6,9,1,-85,23,84,12,-19,196,0,0,0,126,130,163,147,1,17497
198.639066934,-2,0,-17,14,5,4,9,4,0,150,62,239,19,-4,199,0,0,0,119,143,153,150,1,17498
198.666172027,-2,0,-17,3,-3,-4,9,1,0,95,-228,215,14,-6,194,0,0,0,119,136,154,157,1,17499
198.676049947,-2,0,-17,0,2,6,2,0,1,-54,147,25,11,0,188,0,0,0,136,128,150,152,1,17500
198.685102939,-2,0,-17,-9,-13,-21,-4,-5,-7,86,148,-77,15,0,183,0,0,0,131,111,154,170,1,17501
198.694170951,-2,0,-17,2,14,-5,-3,0,-13,111,-7,179,11,-6,186,0,0,0,130,124,162,150,1,17502
198.721002817,-2,0,-18,-8,7,-9,-3,11,-7,-193,-161,28,10,-15,183,0,0,0,128,123,178,137,1,17503
198.730053901,-2,1,-18,-16,4,-3,-12,6,-6,-71,-125,95,6,-18,181,0,0,0,147,108,158,153,1,17504
198.739107847,-2,1,-18,-3,0,-13,-9,2,-8,-103,-78,50,9,-35,174,0,0,0,132,117,159,159,1,17505
198.748035907,-3,1,-18,-12,-8,2,-7,-4,-5,103,69,213,14,-33,173,0,0,0,136,125,145,161,1,17506
198.776108026,-3,1,-18,-2,-14,-9,-7,-11,-3,-12,69,9,16,-19,176,0,0,0,132,119,142,173,1,17507
198.785881996,-3,1,-18,-9,-9,-22,-5,-11,-15,25,155,208,16,-23,179,0,0,0,125,116,152,173,1,17508
198.794154882,-3,1,-18,-3,-15,-16,-6,-12,-19,-40,188,193,10,-30,181,0,0,0,130,116,148,172,1,17509
198.803938865,-3,1,-18,-16,0,-9,-10,-7,-13,-157,13,168,3,-29,179,0,0,0,138,112,155,161,1,17510
198.831116914,-4,1,-18,-15,2,-11,-16,1,-10,118,-65,235,15,-33,178,0,0,0,145,104,168,148,1,17511
198.840047836,-4,1,-18,2,4,-7,-6,3,-9,-117,-68,3,8,-31,180,0,0,0,124,128,164,150,1,17512
198.850019931,-4,1,-18,-17,5,8,-7,5,0,115,80,24,20,-27,171,0,0,0,141,124,157,144,1,17513
198.859035015,-4,1,-18,9,-17,-10,-4,-6,0,-69,120,4,11,-20,160,0,0,0,126,124,144,172,1,17514
198.886209011,-4,1,-18,-2,-7,10,3,-12,0,16,58,191,22,-16,165,0,0,0,124,143,134,166,1,17515
198.896036863,-4,1,-19,9,-19,-23,3,-13,-6,-190,-161,28,18,-20,161,0,0,0,117,122,150,176,1,17516
198.904866933,-4,1,-19,7,-7,-10,8,-13,-16,-42,45,226,24,-11,170,0,0,0,112,137,147,170,1,17517
198.914018869,-4,1,-19,9,1,-15,8,-2,-13,84,-198,186,23,-11,163,0,0,0,114,131,168,153,1,17518
198.94196701,-4,2,-19,14,7,7,12,4,-4,-95,-21,87,27,-13,157,0,0,0,117,146,162,140,1,17519
198.950989007,-4,2,-19,0,9,1,7,8,4,150,212,123,31,-13,156,0,0,0,127,132,166,141,1,17520
198.95994091,-4,2,-19,18,14,-1,9,11,0,3,-102,-175,29,-25,147,0,0,0,118,138,170,140,1,17521
198.969740867,-4,3,-19,-8,-6,7,5,3,3,-34,-38,109,27,-22,147,0,0,0,131,133,149,153,1,17522
198.99741888,-4,3,-19,15,1,-9,3,-2,0,228,244,29,25,-26,151,0,0,0,123,127,151,165,1,17523
199.00591588,-4,3,-19,-7,-9,-11,3,-3,-10,-52,-99,72,23,-41,156,0,0,0,121,128,155,163,1,17524
199.015020847,-5,3,-19,1,-7,-25,-3,-8,-18,148,-183,217,23,-43,169,0,0,0,127,110,154,175,1,17525
199.024031877,-5,3,-19,-10,12,-9,-4,2,-17,-62,-113,162,13,-47,169,0,0,0,130,119,170,146,1,17526
199.052067995,-5,3,-19,-9,9,0,-10,10,-4,204,-133,60,21,-47,175,0,0,0,143,114,172,136,1,17527
199.061084985,-6,3,-19,-7,11,-4,-8,10,-2,-91,78,24,13,-37,172,0,0,0,134,120,167,145,1,17528
199.070041894,-6,4,-19,-19,4,-16,-13,8,-10,51,152,-64,28,-33,169,0,0,0,139,105,168,154,1,17529
199.079041004,-6,4,-19,-9,-2,6,-14,1,-5,48,223,-13,22,-35,170,0,0,0,146,116,148,156,1,17530
199.106937885,-6,4,-19,-25,-4,-3,-17,-3,1,162,72,-20,24,-21,163,0,0,0,147,108,150,162,1,17531
199.116058826,-7,4,-19,-17,0,-10,-21,-1,-6,255,-32,98,31,-20,163,0,0,0,148,101,159,158,1,17532
199.125171899,-7,4,-19,-15,-4,-23,-16,-1,-16,-169,-53,87,23,-18,165,0,0,0,131,107,163,165,1,17533
199.135018825,-7,4,-19,-24,2,-16,-19,0,-20,104,51,120,29,-13,170,0,0,0,144,100,162,160,1,17534
199.16199088,-7,4,-19,-1,-2,-11,-12,0,-13,-19,-185,129,29,-20,174,0,0,0,130,118,161,158,1,17535
199.171114921,-7,5,-20,-16,9,8,-9,3,-1,138,201,146,31,-16,176,0,0,0,137,126,158,144,1,17536
199.180119037,-7,5,-19,-1,-10,-1,-9,0,3,-130,89,111,30,-14,177,0,0,0,137,119,152,158,1,17537
199.189993858,-7,5,-19,-14,-20,16,-8,-15,7,58,-86,30,27,-25,171,0,0,0,142,128,121,175,1,17538
199.217192888,-7,5,-19,4,-10,21,-4,-15,19,-171,190,200,21,-14,177,0,0,0,140,135,132,159,1,17539
199.226024866,-7,4,-19,-10,-25,26,-2,-17,24,81,-56,46,24,-19,178,0,0,0,140,138,126,162,1,17540
199.235934019,-7,4,-19,-2,-10,45,-6,-18,36,4,69,225,22,-21,186,0,0,0,156,138,120,153,1,17541
199.24524784,-7,5,-19,14,0,23,5,-5,34,-191,125,220,14,-5,193,0,0,0,123,154,151,138,1,17542
199.272153854,-7,4,-18,0,-9,40,7,-4,32,-119,-121,67,16,-4,194,0,0,0,138,153,134,141,1,17543
199.281847,-6,4,-18,17,1,43,8,-4,42,26,38,234,19,0,198,0,0,0,137,156,134,139,1,17544
199.291112899,-6,4,-17,18,-3,51,17,-1,47,-5,-87,135,21,5,206,0,0,0,125,174,136,131,1,17545
199.300145864,-6,4,-17,12,-17,37,15,-10,44,80,-75,156,21,-4,205,0,0,0,132,157,121,156,1,17546
199.328039884,-6,4,-17,18,0,57,15,-8,47,-207,-101,198,16,-14,209,0,0,0,138,167,125,136,1,17547
199.337008953,-5,4,-16,19,-6,65,18,-2,61,160,18,191,19,-12,209,0,0,0,135,176,130,124,1,17548
199.345965862,-5,4,-15,25,15,83,22,4,74,194,-147,102,25,-20,207,0,0,0,138,187,132,108,1,17549
199.354981899,-5,4,-15,18,19,79,22,17,81,230,190,39,35,-9,210,0,0,0,142,183,149,93,1,17550
199.382939815,-5,5,-15,31,11,75,24,15,77,-103,-192,55,29,-6,205,0,0,0,135,186,136,109,1,17551
199.397887945,-4,5,-12,31,4,105,31,7,90,97,-29,9,35,-5,205,0,0,0,140,209,115,110,1,17552
199.407104015,-4,5,-12,19,13,112,25,9,108,-95,53,29,23,-6,206,0,0,0,160,197,119,98,1,17553
199.435020923,-3,5,-11,44,2,104,31,7,108,1,-255,93,37,-15,214,0,0,0,140,212,119,104,1,17554
199.443959951,-3,6,-9,10,23,136,27,12,120,38,117,77,32,-20,218,0,0,0,166,211,116,81,1,17555
199.453078031,-3,6,-8,37,-2,106,24,10,121,-39,-163,225,35,-26,223,0,0,0,156,196,120,102,1,17556
199.461992025,-3,6,-8,2,27,133,20,12,119,89,-132,138,39,-31,214,0,0,0,173,204,113,84,1,17557
199.490025997,-3,6,-7,43,23,118,23,25,125,-36,-233,162,36,-32,220,0,0,0,159,207,140,68,1,17558
199.499092817,-2,7,-4,17,32,125,30,27,121,81,-18,141,40,-25,228,0,0,0,150,221,131,72,1,17559
199.508072853,-2,7,-4,8,30,117,12,31,121,-175,17,-22,32,-24,211,0,0,0,185,180,138,71,1,17560
199.517041921,-2,7,-4,16,18,104,12,24,110,181,-246,122,36,-27,225,0,0,0,168,189,127,90,1,17561
199.545142889,-3,7,-3,13,29,97,14,23,100,19,82,-156,44,-24,218,0,0,0,159,193,134,88,1,17562
199.55399084,-2,8,-1,10,30,100,12,29,98,-149,-40,41,35,-31,212,0,0,0,168,186,144,76,1,17563
199.563012838,-3,8,-1,1,19,98,6,24,99,21,248,133,43,-16,207,0,0,0,175,177,131,90,1,17564
199.57277894,-3,8,0,-14,36,114,-6,28,106,176,0,35,44,-12,197,0,0,0,201,167,134,72,1,17565
199.600037813,-3,9,0,-7,18,86,-11,27,100,182,222,124,50,-3,196,0,0,0,187,158,141,87,1,17566
199.609596967,-3,9,1,-31,-8,111,-19,5,98,-25,52,248,44,7,194,0,0,0,209,157,91,117,1,17567
199.618093013,-3,9,2,-38,3,89,-35,-2,100,-224,138,64,41,8,195,0,0,0,220,128,106,120,1,17568
199.62805891,-3,9,2,-35,-31,97,-37,-13,93,200,-66,119,38,3,206,0,0,0,215,142,87,130,1,17569
199.655171871,-3,9,3,-59,-26,75,-47,-28,86,41,25,94,38,4,215,0,0,0,224,116,78,156,1,17570
199.664055824,-4,8,4,-39,-43,70,-49,-34,73,81,-40,-85,42,-10,213,0,0,0,216,120,82,156,1,17571
199.678015947,-4,8,4,-48,-24,58,-43,-34,64,34,83,-245,37,-7,205,0,0,0,200,126,93,155,1,17572
199.682981014,-4,8,5,-34,-56,48,-41,-40,53,6,-122,-99,41,-3,187,0,0,0,197,123,83,171,1,17573
199.710115909,-4,8,5,-45,-38,63,-39,-47,56,-127,114,6,35,-1,184,0,0,0,203,129,71,171,1,17574
199.718958854,-5,7,6,-1,-23,41,-23,-30,52,-160,185,44,32,13,189,0,0,0,166,148,116,144,1,17575
199.729525804,-4,7,6,-7,-34,57,-4,-28,49,122,-127,250,31,0,185,0,0,0,152,175,99,148,1,17576
199.738034009,-4,7,6,-2,8,50,-4,-13,53,-71,-102,86,33,-5,184,0,0,0,167,156,127,124,1,17577
199.765197992,-4,7,7,14,-21,43,6,-6,46,30,22,139,32,-2,187,0,0,0,144,174,128,129,1,17578
199.774888038,-4,7,8,19,5,48,17,-8,45,-170,-19,182,32,-8,180,0,0,0,135,186,118,134,1,17579
199.784001827,-3,7,8,14,2,26,17,3,37,-73,38,205,28,-5,190,0,0,0,136,168,150,120,1,17580
199.793275833,-3,7,8,31,0,38,23,1,32,-93,26,-126,26,-6,182,0,0,0,130,185,130,129,1,17581
199.820922851,-3,7,8,7,0,22,19,0,30,80,-42,44,33,-17,177,0,0,0,136,166,135,137,1,17582
199.829919815,-3,8,9,20,16,27,14,8,25,-209,-162,86,30,-11,178,0,0,0,144,161,150,119,1,17583
199.838969945,-3,8,9,11,4,26,16,10,26,185,121,28,34,-9,173,0,0,0,135,170,148,121,1,17584
199.848240852,-3,8,9,1,15,27,6,9,26,-224,132,220,29,-4,175,0,0,0,155,152,143,124,1,17585
199.875947952,-3,8,9,21,18,12,11,17,20,21,-32,189,27,-3,176,0,0,0,133,162,163,117,1,17586
199.885039806,-3,8,9,-11,13,3,4,16,8,-156,-187,136,29,-5,168,0,0,0,145,143,159,128,1,17587
199.893976926,-3,8,9,9,16,5,-1,15,4,161,19,72,29,-11,171,0,0,0,150,138,157,128,1,17588
199.903043985,-3,8,9,1,24,-3,5,20,0,-34,33,226,17,0,168,0,0,0,130,151,171,121,1,17589
199.930938005,-2,8,9,-5,13,-5,-1,18,-4,211,238,72,16,-6,169,0,0,0,148,132,165,129,1,17590
199.940178871,-3,9,9,-13,26,-5,-9,20,-5,-9,82,47,12,7,175,0,0,0,155,125,168,126,1,17591
199.949086904,-3,9,9,-20,12,-15,-16,19,-10,60,246,251,18,14,181,0,0,0,159,113,171,131,1,17592
199.958040952,-2,9,9,-35,9,-2,-27,11,-9,69,-87,200,22,10,185,0,0,0,177,105,150,141,1,17593
199.986013889,-2,9,9,-26,-6,-14,-30,1,-8,137,31,224,19,24,182,0,0,0,168,105,145,156,1,17594
199.995492935,-3,8,9,-35,-8,-14,-30,-7,-14,-28,-89,242,11,19,180,0,0,0,166,107,137,164,1,17595
200.003976821,-3,8,8,-43,-21,-25,-39,-15,-20,64,-116,138,13,26,184,0,0,0,176,87,136,175,1,17596
200.014070987,-2,8,8,-31,-6,-22,-37,-14,-24,-200,74,14,6,31,187,0,0,0,167,99,142,166,1,17597
200.041165828,-2,8,8,-29,-8,-24,-30,-7,-23,-4,-163,102,7,33,186,0,0,0,155,109,154,156,1,17598
200.050107955,-2,7,8,-16,-13,-27,-23,-10,-25,10,-106,220,5,24,188,0,0,0,148,115,144,168,1,17599
200.059978008,-2,7,8,-27,-4,-13,-22,-8,-20,174,138,41,14,21,202,0,0,0,157,116,145,156,1,17600
200.069641828,-2,7,8,-26,-11,-29,-27,-7,-21,112,-50,192,12,20,197,0,0,0,159,100,152,162,1,17601
200.096184015,-2,7,7,-27,-15,-24,-26,-13,-26,54,-171,84,13,13,203,0,0,0,157,107,138,172,1,17602
200.106094837,-2,6,7,-11,-5,-27,-19,-10,-26,-89,-131,250,14,11,209,0,0,0,143,118,149,164,1,17603
200.115096807,-2,6,7,-12,-20,-22,-11,-13,-25,-159,-201,77,3,0,207,0,0,0,137,128,141,168,1,17604
200.124089002,-2,6,7,-8,-11,-33,-10,-15,-27,220,-70,185,5,-7,217,0,0,0,137,119,143,175,1,17605
200.152081966,-2,6,7,-3,-5,-17,-6,-8,-25,-176,253,183,-3,-7,212,0,0,0,136,132,152,153,1,17606
200.161085844,-2,5,6,1,-10,-24,-1,-7,-21,88,-10,223,-1,-8,212,0,0,0,129,134,149,162,1,17607
200.170017004,-2,5,6,11,-1,-20,6,-5,-22,-78,122,1,2,-9,217,0,0,0,121,145,151,157,1,17608
200.179214954,-2,5,6,5,2,-17,8,0,-19,-99,193,150,-4,-2,211,0,0,0,125,144,160,146,1,17609
200.206924915,-2,5,6,9,-10,-23,7,-4,-20,-146,157,215,-9,-5,208,0,0,0,126,137,149,162,1,17610
200.21615386,-1,5,5,12,8,-24,10,-1,-24,-157,-14,51,-21,1,211,0,0,0,118,145,158,154,1,17611
200.225543022,-1,4,5,7,-5,-28,10,1,-26,88,-233,50,-20,-6,218,0,0,0,120,139,162,153,1,17612
200.235014915,-1,4,5,17,3,-34,12,-1,-31,-77,-80,40,-22,-5,235,0,0,0,113,141,158,162,1,17613
200.262130022,-1,4,5,0,3,-28,8,3,-31,45,209,68,-18,-3,236,0,0,0,125,134,166,150,1,17614
200.271149873,-1,4,4,13,3,-43,6,3,-35,-178,-194,58,-18,-12,230,0,0,0,119,127,168,159,1,17615
200.279986858,-1,3,4,-6,4,-35,3,4,-39,-69,155,187,-23,0,235,0,0,0,126,127,166,155,1,17616
200.289872884,-1,3,4,0,-1,-39,-3,1,-37,48,109,188,-20,6,238,0,0,0,134,115,163,162,1,17617
200.317122936,-1,3,4,-8,-3,-39,-4,-2,-39,13,-37,239,-21,-1,240,0,0,0,130,119,158,167,1,17618
200.326251029,-1,2,3,-5,0,-50,-7,-1,-45,3,-37,179,-16,-2,240,0,0,0,129,111,167,167,1,17619
200.336138963,-1,2,2,-16,0,-31,-11,0,-41,-97,-64,173,-17,-11,233,0,0,0,142,114,161,158,1,17620
200.345088958,-1,2,2,-12,12,-34,-14,5,-32,-29,-133,167,-15,-15,247,0,0,0,143,109,173,149,1,17621
200.373021841,-1,2,2,-25,8,-31,-18,10,-32,37,88,37,-16,-12,246,0,0,0,149,105,175,145,1,17622
200.382009983,-2,2,1,-12,7,-40,-18,7,-35,-104,0,211,-14,-7,250,0,0,0,141,105,170,157,1,17623
200.390956878,-2,2,1,-22,10,-34,-17,9,-37,118,78,161,-15,-9,253,0,0,0,141,111,172,151,1,17624
200.400040864,-2,2,1,-19,-9,-43,-20,0,-38,45,174,31,-2,-8,248,0,0,0,145,99,160,170,1,17625
200.428159952,-2,1,1,-18,9,-28,-18,0,-35,130,-124,77,0,-3,252,0,0,0,144,111,160,159,1,17626
200.438521862,-2,1,0,-16,-12,-45,-17,-1,-36,80,-17,3,5,0,255,0,0,0,137,105,165,168,1,17627
200.44599986,-2,1,0,-13,10,-18,-15,-1,-31,-39,12,195,0,0,252,0,0,0,144,119,155,155,1,17628
200.456050872,-2,1,0,-5,3,-31,-9,6,-24,-3,-34,206,8,-14,251,0,0,0,130,122,175,146,1,17629
200.483111858,-2,1,0,-9,7,-26,-7,5,-28,-8,65,53,-3,-12,251,0,0,0,134,122,164,154,1,17630
200.492158889,-2,1,0,-1,2,-39,-5,4,-32,15,-147,138,3,-30,246,0,0,0,127,119,169,159,1,17631
200.501978874,-3,1,0,-3,-1,-44,-2,0,-41,-253,18,-41,-11,-36,239,0,0,0,120,121,164,168,1,17632
200.51108098,-3,1,0,0,3,-25,-1,1,-35,164,170,119,-8,-30,237,0,0,0,129,127,162,157,1,17633
200.53805685,-3,1,0,-2,-7,-47,-1,-2,-36,217,-123,108,-6,-40,241,0,0,0,121,118,164,171,1,17634
200.5480659,-3,1,-1,0,2,-23,-1,-2,-35,-65,99,36,-1,-29,235,0,0,0,130,128,156,160,1,17635
200.55706191,-3,1,-1,4,-13,-54,2,-5,-39,76,123,82,5,-23,234,0,0,0,111,121,163,178,1,17636
200.565929889,-3,1,-1,10,4,-39,7,-4,-46,-176,-67,79,6,-33,236,0,0,0,111,133,162,168,1,17637
200.594019889,-3,1,-2,9,0,-51,9,1,-45,118,-179,13,9,-33,233,0,0,0,105,128,178,162,1,17638
200.602981805,-3,1,-3,17,10,-32,13,4,-42,-29,119,216,8,-21,227,0,0,0,109,140,171,154,1,17639
200.612010002,-3,1,-3,3,8,-32,10,9,-32,70,2,-30,5,-24,219,0,0,0,117,132,177,148,1,17640
200.621062994,-3,1,-3,14,0,-32,8,4,-32,-183,119,93,-1,-7,216,0,0,0,117,131,164,161,1,17641
200.649102926,-3,1,-3,4,-8,-55,9,-3,-43,171,27,115,-5,-2,223,0,0,0,106,124,162,182,1,17642
200.658051013,-3,1,-4,5,0,-43,4,-4,-49,173,87,-33,1,2,216,0,0,0,119,120,164,171,1,17643
200.667197942,-3,1,-4,10,-9,-51,7,-4,-47,193,-144,156,10,-2,225,0,0,0,107,126,167,175,1,17644
200.676968812,-3,1,-4,-6,15,-34,1,3,-43,214,83,164,10,7,224,0,0,0,126,119,175,153,1,17645
200.704123973,-3,1,-5,5,22,-46,0,19,-40,29,-161,-39,15,-8,219,0,0,0,121,115,201,137,1,17646
200.713025808,-3,2,-5,-9,23,-25,-1,22,-36,-88,35,160,10,-7,217,0,0,0,129,123,186,135,1,17647
200.722142934,-3,2,-6,4,23,-39,-2,23,-32,9,213,168,12,-11,221,0,0,0,123,118,190,143,1,17648
200.732110023,-3,2,-6,-3,7,-23,0,15,-31,-62,-63,184,13,-24,222,0,0,0,124,129,169,152,1,17649
200.759063005,-3,2,-6,-4,13,-43,-3,10,-33,22,155,241,18,-24,229,0,0,0,126,111,175,162,1,17650
200.768246889,-3,2,-7,3,4,-44,0,9,-43,14,-59,83,22,-25,230,0,0,0,116,121,178,160,1,17651
200.778023958,-3,2,-7,-9,12,-30,-3,8,-37,171,-113,104,30,-22,238,0,0,0,129,118,172,154,1,17652
200.78708291,-3,2,-7,2,28,-19,-3,20,-24,-23,146,215,25,-10,236,0,0,0,132,124,190,128,1,17653
200.814153909,-3,3,-7,-2,8,-31,0,18,-25,252,142,31,30,-12,228,0,0,0,120,126,181,147,1,17654
200.82396388,-3,3,-8,0,25,-35,-1,16,-33,71,183,128,37,3,236,0,0,0,124,119,181,150,1,17655
200.832957983,-3,3,-8,-1,10,-41,0,17,-38,-4,-145,158,38,-4,229,0,0,0,119,118,187,150,1,17656
200.842121839,-3,3,-8,-8,3,-24,-5,7,-32,104,239,246,46,0,231,0,0,0,135,116,160,163,1,17657
200.869985818,-3,4,-8,13,7,-40,2,5,-32,-177,-82,90,41,-2,233,0,0,0,110,127,173,163,1,17658
200.878993988,-3,4,-9,-10,-3,-27,1,1,-34,39,-52,2,49,-8,229,0,0,0,123,125,162,163,1,17659
200.887939929,-2,4,-9,11,-3,-27,0,-3,-27,-249,185,162,45,3,235,0,0,0,124,124,157,170,1,17660
200.89706397,-2,4,-9,-11,4,-23,0,0,-25,117,-38,-13,48,6,224,0,0,0,126,124,167,156,1,17661
200.925318002,-2,5,-9,12,2,-32,0,3,-28,51,207,-4,49,9,217,0,0,0,121,122,173,158,1,17662
200.934085845,-2,5,-10,5,9,-30,8,6,-31,-231,180,140,46,13,221,0,0,0,107,138,174,155,1,17663
200.942914962,-2,5,-10,18,-2,-42,11,3,-36,174,-135,-29,53,8,210,0,0,0,104,131,172,168,1,17664
200.952997922,-1,5,-10,14,-3,-27,16,-3,-35,-79,207,34,44,9,204,0,0,0,104,142,156,171,1,17665
200.980099916,-1,6,-10,14,-8,-34,14,-6,-31,174,121,163,51,15,206,0,0,0,108,132,159,174,1,17666
200.98903799,-1,6,-11,11,-8,-33,12,-8,-34,-17,189,25,49,26,200,0,0,0,110,131,157,175,1,17667
200.998216867,-1,6,-11,19,-4,-35,15,-6,-34,158,184,129,54,31,199,0,0,0,103,137,164,171,1,17668
201.00801301,0,6,-12,16,12,-21,18,3,-28,215,109,128,59,47,203,0,0,0,105,144,175,149,1,17669
201.035104036,0,6,-12,8,18,-22,12,15,-22,216,-217,14,71,34,196,0,0,0,117,132,188,137,1,17670
201.044037818,0,7,-12,7,24,-21,8,21,-22,214,210,183,76,49,203,0,0,0,121,129,189,135,1,17671
201.054035902,0,8,-12,14,24,-26,11,24,-23,-13,-150,130,82,38,207,0,0,0,110,136,191,137,1,17672
201.063419818,0,8,-12,5,19,-15,9,22,-20,32,-14,-52,79,34,203,0,0,0,119,135,180,140,1,17673
201.090152025,1,9,-12,15,9,-29,10,14,-22,-13,-199,220,73,32,200,0,0,0,112,131,175,157,1,17674
201.099972009,1,9,-13,5,13,-13,10,11,-21,160,-246,36,79,17,200,0,0,0,118,138,169,149,1,17675
201.109030962,1,10,-13,14,9,-23,10,11,-18,151,-138,255,81,10,197,0,0,0,115,133,175,151,1,17676
201.118096828,1,10,-13,9,24,-14,12,17,-18,-50,99,170,78,27,193,0,0,0,114,141,182,138,1,17677
201.146315813,2,10,-13,5,13,-28,7,19,-21,113,-221,204,77,26,192,0,0,0,118,125,187,144,1,17678
201.154997825,2,11,-14,-3,21,-14,1,17,-21,-164,-164,134,74,13,196,0,0,0,132,123,176,143,1,17679
201.164017915,2,12,-14,7,21,-38,2,21,-26,15,14,199,73,13,202,0,0,0,115,120,194,144,1,17680
201.172998905,2,12,-14,0,-1,-11,3,10,-24,99,-97,51,80,1,207,0,0,0,124,133,160,157,1,17681
201.201063871,2,12,-14,9,-1,-22,4,-1,-16,158,-41,16,79,0,198,0,0,0,119,129,153,173,1,17682
201.210268974,2,12,-14,5,-1,-12,7,-1,-17,28,81,1,76,0,206,0,0,0,119,137,158,160,1,17683
201.219041824,2,13,-14,-2,-8,-16,1,-5,-14,124,193,55,74,14,197,0,0,0,130,122,154,167,1,17684
201.228062868,2,13,-14,9,13,-17,3,2,-17,124,-197,101,72,7,189,0,0,0,120,131,171,152,1,17685
201.256080865,2,13,-14,-5,-3,-10,2,4,-14,119,119,46,74,20,197,0,0,0,127,129,167,151,1,17686
201.264997005,2,13,-15,15,8,-13,5,2,-12,-2,70,107,76,21,196,0,0,0,120,134,162,158,1,17687
201.273964881,2,14,-15,5,4,-17,10,6,-15,-15,-97,121,76,14,188,0,0,0,111,140,173,150,1,17688
201.283910036,2,14,-15,4,-13,-21,4,-4,-19,-119,-193,-127,74,17,180,0,0,0,124,124,151,175,1,17689
201.310942888,2,14,-15,7,4,-21,5,-4,-21,-6,18,178,73,13,179,0,0,0,118,130,159,167,1,17690
201.319972991,3,14,-15,3,1,-6,5,3,-13,96,-250,16,75,9,177,0,0,0,125,134,168,147,1,17691
201.329272031,3,15,-15,18,9,-7,10,5,-6,-104,159,103,62,15,177,0,0,0,115,144,166,149,1,17692
201.338891029,3,15,-15,-6,10,-1,5,10,-4,-114,-140,104,66,2,174,0,0,0,130,133,170,141,1,17693
201.366159915,3,15,-15,6,15,-7,0,13,-4,-158,41,110,56,6,183,0,0,0,134,125,174,142,1,17694
201.375892877,3,15,-15,-1,25,-7,2,20,-7,-115,-168,123,45,-15,183,0,0,0,124,134,185,131,1,17695
201.384960889,2,15,-15,0,23,3,0,24,-2,195,96,44,50,-2,186,0,0,0,136,130,182,126,1,17696
201.39408493,2,16,-15,15,20,-13,8,21,-5,-124,-30,111,38,-16,183,0,0,0,112,141,180,141,1,17697
201.42237091,2,15,-16,10,11,-20,12,15,-17,83,237,190,51,-1,185,0,0,0,108,140,174,152,1,17698
201.431010007,2,16,-16,14,16,1,12,14,-9,-95,50,57,41,13,187,0,0,0,121,144,167,141,1,17699
201.44000101,2,16,-16,8,2,-3,11,9,0,169,146,247,51,12,182,0,0,0,121,141,163,150,1,17700
201.449517965,2,16,-16,16,15,1,12,8,-1,-27,-187,123,48,8,192,0,0,0,120,145,164,145,1,17701
201.47705698,2,16,-16,5,16,-10,10,15,-4,161,64,42,51,11,200,0,0,0,119,137,181,137,1,17702
201.485976934,3,16,-16,21,1,-12,13,8,-11,84,85,137,65,15,200,0,0,0,113,142,164,156,1,17703
201.495049953,3,16,-16,11,13,-10,16,7,-11,-124,-68,124,51,17,210,0,0,0,109,146,166,152,1,17704
201.504061937,3,16,-16,17,6,-19,14,9,-14,19,-209,-1,53,7,209,0,0,0,112,137,176,150,1,17705
201.532119035,3,16,-16,14,-3,-17,16,1,-18,-25,-166,19,36,0,199,0,0,0,108,141,158,166,1,17706
201.541002988,3,16,-17,6,-5,-15,10,-4,-16,128,-150,110,39,-15,201,0,0,0,120,131,153,170,1,17707
201.550086975,3,15,-17,4,-14,-7,5,-10,-11,-44,-114,166,34,-28,202,0,0,0,128,129,145,171,1,17708
201.559978961,3,15,-17,7,-18,-17,5,-16,-12,22,-73,89,29,-39,201,0,0,0,119,130,143,182,1,17709
201.586971998,2,15,-17,8,-3,10,7,-11,-3,106,21,234,27,-33,207,0,0,0,127,145,146,156,1,17710
201.596105814,2,14,-16,2,-25,15,5,-14,13,-94,248,2,19,-32,202,0,0,0,135,140,134,165,1,17711
201.605342865,2,14,-16,18,-5,-8,10,-15,3,61,207,183,21,-11,210,0,0,0,115,142,144,173,1,17712
201.615001916,1,14,-16,-2,-19,-5,7,-12,-6,80,78,56,22,-8,213,0,0,0,124,135,149,166,1,17713
201.642172813,1,13,-16,4,-23,-7,1,-21,-6,-26,73,42,22,4,208,0,0,0,133,124,132,184,1,17714
201.652030944,1,13,-17,-3,-4,-19,0,-13,-13,-128,-61,-112,14,2,205,0,0,0,124,124,158,169,1,17715
201.661065816,1,12,-17,8,-5,-17,2,-4,-18,155,35,-123,8,6,195,0,0,0,121,128,166,159,1,17716
201.669931888,1,12,-17,-3,-17,0,2,-11,-8,-15,46,37,15,0,198,0,0,0,129,134,140,170,1,17717
201.697170019,1,12,-17,-2,16,0,-3,0,0,215,101,116,18,7,202,0,0,0,139,124,166,145,1,17718
201.706949949,1,12,-17,15,-5,-10,6,5,-5,61,-172,131,24,13,202,0,0,0,114,141,171,148,1,17719
201.715938806,2,12,-17,4,26,9,9,10,0,-13,142,213,23,23,209,0,0,0,123,148,167,136,1,17720
201.725036859,2,12,-17,19,20,-8,12,23,0,88,-32,136,23,18,205,0,0,0,115,141,194,124,1,17721
201.75819087,2,11,-17,2,10,-2,10,15,-5,169,226,-15,23,25,204,0,0,0,121,140,166,147,1,17722
201.762264013,2,12,-17,21,27,-14,11,19,-8,29,-153,-68,23,19,196,0,0,0,114,138,184,139,1,17723
201.771095991,2,12,-17,5,8,-20,13,18,-17,-158,-81,132,16,5,198,0,0,0,110,137,182,146,1,17724
201.780040025,2,11,-17,1,22,5,3,15,-7,-29,-51,200,6,9,207,0,0,0,139,128,167,140,1,17725
201.807999849,2,11,-17,13,24,-23,7,23,-9,-123,-131,106,0,3,208,0,0,0,112,132,195,134,1,17726
201.817171812,2,11,-17,-4,19,13,4,22,-4,126,168,151,3,5,216,0,0,0,135,139,171,129,1,17727
201.826100826,2,11,-17,25,12,-14,10,16,0,-18,-22,174,3,7,223,0,0,0,111,140,173,150,1,17728
201.835012912,2,11,-17,7,13,2,16,12,-6,146,101,112,9,21,229,0,0,0,112,152,166,144,1,17729
201.863099813,3,11,-17,18,5,-6,12,9,-1,-72,-22,19,8,20,225,0,0,0,120,138,165,151,1,17730
201.873674869,3,10,-18,6,1,-19,12,3,-12,113,39,-254,8,27,219,0,0,0,112,135,163,164,1,17731
201.881114006,3,10,-18,14,4,-4,10,2,-12,156,240,170,15,29,214,0,0,0,121,138,161,154,1,17732
201.890198946,3,10,-18,16,-17,-36,15,-6,-20,-63,244,58,16,39,213,0,0,0,97,136,158,183,1,17733
201.918083906,3,10,-18,5,4,-13,11,-6,-25,57,81,88,21,33,206,0,0,0,119,132,156,166,1,17734
201.927001953,4,9,-18,14,-18,-27,9,-7,-20,-220,-210,157,25,39,200,0,0,0,112,129,161,173,1,17735
201.93799901,4,9,-18,-6,9,0,3,-4,-14,3,144,127,20,34,196,0,0,0,133,129,155,157,1,17736
201.946000814,4,9,-18,10,0,-21,2,4,-11,-56,-247,205,22,34,198,0,0,0,122,123,178,151,1,17737
201.973186016,4,9,-19,13,-5,-17,12,-3,-19,33,-95,186,14,26,192,0,0,0,103,144,155,171,1,17738
201.982066869,5,9,-19,14,4,-6,14,0,-12,87,230,79,19,24,199,0,0,0,113,143,161,156,1,17739
201.991168975,5,9,-19,21,1,-4,17,3,-5,-82,93,-96,6,23,190,0,0,0,109,149,166,151,1,17740
202.001495838,5,9,-19,12,-16,-16,16,-7,-10,222,181,14,12,32,187,0,0,0,109,139,149,177,1,17741
202.028050899,5,8,-19,8,4,1,10,-5,-7,-173,156,69,-1,28,182,0,0,0,127,136,152,159,1,17742
202.037159919,6,8,-19,15,-9,-11,11,-2,-4,165,-130,171,-6,16,182,0,0,0,114,138,163,159,1,17743
202.047118902,6,8,-19,8,5,-6,11,-1,-8,-94,-143,79,-11,14,181,0,0,0,117,140,159,159,1,17744
202.056392908,6,7,-19,23,8,-17,16,6,-11,106,-98,26,-9,17,188,0,0,0,105,142,178,148,1,17745
202.088376998,6,7,-19,16,-1,-5,20,3,-11,42,-57,6,-1,20,194,0,0,0,106,151,160,157,1,17746
202.093019962,6,7,-19,17,18,-7,17,8,-6,30,24,200,-3,31,197,0,0,0,114,142,173,146,1,17747
202.101958036,6,7,-19,26,2,-9,22,10,-8,58,-181,180,-1,35,203,0,0,0,102,152,173,147,1,17748
202.110980033,6,7,-19,14,8,9,20,5,0,0,139,86,4,47,203,0,0,0,117,152,155,150,1,17749
202.138027906,7,7,-19,17,25,1,15,16,5,50,164,148,3,51,201,0,0,0,120,142,183,129,1,17750
202.148049831,7,7,-19,5,3,-10,11,14,-4,0,33,159,11,52,199,0,0,0,119,133,174,147,1,17751
202.157054901,7,7,-19,14,28,1,9,15,-4,35,123,73,11,50,196,0,0,0,123,139,173,138,1,17752
202.166060924,8,7,-19,0,11,-6,7,19,-2,69,4,-216,10,48,189,0,0,0,123,132,183,136,1,17753
202.194016933,8,6,-19,0,4,-8,0,8,-7,158,207,194,15,45,193,0,0,0,133,121,159,161,1,17754
202.203094005,8,6,-20,6,4,-8,3,4,-8,-249,-122,-7,12,43,196,0,0,0,121,133,162,157,1,17755
202.212072849,8,6,-20,-1,3,-6,2,4,-7,-16,254,42,8,49,200,0,0,0,126,130,164,154,1,17756
202.221123933,8,6,-20,8,-6,-17,3,-1,-12,-173,-67,56,4,46,194,0,0,0,119,127,160,168,1,17757
202.24890685,8,6,-20,8,12,-12,8,2,-15,-45,-111,37,-2,34,192,0,0,0,113,137,169,154,1,17758
202.257915973,9,6,-20,10,-15,-7,9,-1,-10,22,-121,63,-3,35,190,0,0,0,117,137,156,163,1,17759
202.266964912,9,6,-20,17,1,0,14,-6,-3,-156,-214,-58,-6,20,177,0,0,0,113,148,147,165,1,17760
202.275959014,9,5,-20,13,-1,5,15,0,3,53,-90,56,-7,25,175,0,0,0,117,148,161,148,1,17761
202.303995847,9,5,-20,11,-9,-2,12,-5,1,-218,93,-110,-17,22,173,0,0,0,120,138,149,166,1,17762
202.313133001,9,5,-20,26,-4,3,19,-6,0,35,93,243,-17,34,187,0,0,0,108,155,149,161,1,17763
202.322059869,9,4,-20,12,-7,-4,19,-6,0,7,-112,60,-13,40,191,0,0,0,110,147,155,162,1,17764
202.331117868,9,4,-20,29,-7,-10,21,-7,-7,-18,228,130,-6,47,190,0,0,0,105,148,154,168,1,17765
202.359198808,10,4,-20,6,-1,12,18,-4,0,-51,-100,208,-10,41,186,0,0,0,120,150,152,152,1,17766
202.36817789,10,3,-20,17,-4,-4,11,-3,3,218,-79,110,-8,35,185,0,0,0,122,134,158,159,1,17767
202.37705183,10,3,-20,8,9,8,13,2,1,-147,-95,91,-11,33,176,0,0,0,120,147,161,145,1,17768
202.386873006,10,3,-20,2,2,20,5,5,14,77,-95,71,-13,22,182,0,0,0,140,137,159,138,1,17769
202.414075851,10,3,-20,19,1,14,10,2,17,-153,61,184,-15,24,179,0,0,0,122,150,151,151,1,17770
202.423048973,10,3,-19,0,2,18,9,2,16,27,235,-20,-17,29,185,0,0,0,129,146,153,146,1,17771
202.432202816,10,2,-19,15,2,27,8,2,22,42,20,73,-20,30,183,0,0,0,135,148,149,142,1,17772
202.441913843,10,2,-19,3,-11,13,9,-4,20,68,66,65,-10,25,189,0,0,0,125,147,142,160,1,17773
202.46915698,10,2,-19,13,13,26,8,1,20,-117,170,82,-15,28,189,0,0,0,134,148,153,138,1,17774
202.478197813,10,2,-19,12,-11,3,12,1,15,36,176,61,-8,37,193,0,0,0,116,148,158,152,1,17775
202.487915992,10,2,-19,10,14,20,11,1,12,123,-103,132,-5,31,193,0,0,0,129,149,152,145,1,17776
202.497097969,10,2,-19,11,10,-5,10,12,7,-57,77,235,-12,45,194,0,0,0,119,138,181,136,1,17777
202.52402091,10,1,-19,17,17,3,14,14,-1,170,4,205,-8,54,195,0,0,0,115,149,171,139,1,17778
202.532992839,11,2,-19,9,2,-35,13,10,-15,-108,-235,49,-20,43,194,0,0,0,105,129,178,163,1,17779
202.543104887,11,1,-19,23,10,-28,16,6,-31,-201,141,4,-16,44,203,0,0,0,101,138,173,163,1,17780
202.552028894,11,1,-19,6,-14,-35,15,-2,-31,-91,-207,199,-24,34,201,0,0,0,103,129,163,179,1,17781
202.578971862,11,1,-20,17,1,-23,11,-6,-29,-49,-46,85,-15,29,201,0,0,0,113,129,158,175,1,17782
202.588915824,11,0,-20,12,-25,-50,14,-11,-36,2,-21,73,-19,25,199,0,0,0,94,127,162,191,1,17783
202.598153829,11,0,-21,16,-18,-39,14,-22,-44,-27,-37,109,-11,28,193,0,0,0,101,128,144,201,1,17784
202.606988906,11,0,-21,23,-6,-45,20,-12,-42,-234,-151,203,-19,20,191,0,0,0,88,136,172,178,1,17785
202.634953022,11,0,-21,25,-14,-43,24,-10,-44,-168,-205,48,-24,17,186,0,0,0,85,140,168,181,1,17786
202.64406085,11,0,-22,31,-8,-45,28,-11,-44,-72,-237,121,-27,4,184,0,0,0,81,142,165,185,1,17787
202.652990818,11,0,-22,21,-20,-47,26,-14,-46,27,156,-165,-28,12,169,0,0,0,87,134,162,191,1,17788
202.662212848,11,0,-22,32,-25,-63,26,-22,-55,-39,-227,123,-35,-2,170,0,0,0,78,130,155,211,1,17789
202.690055847,11,-1,-22,23,-18,-59,27,-22,-61,-139,211,-98,-40,-1,164,0,0,0,78,133,162,201,1,17790
202.703806877,11,-2,-24,37,-28,-64,30,-23,-61,70,-150,159,-38,-12,170,0,0,0,72,134,161,206,1,17791
202.708086967,11,-2,-24,28,-15,-71,33,-22,-68,-10,153,93,-39,-11,164,0,0,0,67,134,168,205,1,17792
202.716965913,10,-2,-24,36,-13,-85,32,-14,-78,-63,-141,6,-43,-15,176,0,0,0,65,124,187,199,1,17793
202.745091915,10,-3,-25,23,-34,-74,29,-23,-79,-55,174,154,-48,-16,175,0,0,0,72,125,160,217,1,17794
202.759997844,10,-4,-27,33,-33,-80,28,-33,-77,-149,172,201,-45,-2,180,0,0,0,75,127,157,235,1,17795
202.794044017,10,-5,-28,31,-11,-87,32,-22,-84,-129,121,184,-48,0,190,0,0,0,63,131,189,210,1,17796
202.802908897,11,-5,-30,36,-11,-76,33,-11,-82,-222,166,171,-50,6,193,0,0,0,68,135,195,196,1,17797
202.812112808,11,-5,-30,19,-9,-79,27,-10,-78,-33,84,97,-49,17,188,0,0,0,79,122,189,205,1,17798
202.821202993,11,-6,-30,20,-22,-68,19,-16,-74,104,89,114,-47,22,190,0,0,0,91,116,174,212,1,17799
202.849023818,10,-6,-30,23,-6,-71,21,-14,-70,-155,-67,209,-47,26,196,0,0,0,80,125,183,206,1,17800
202.85799098,11,-7,-32,22,-13,-76,22,-10,-73,0,201,143,-49,33,205,0,0,0,78,123,192,201,1,17801
202.866999864,11,-7,-32,0,-6,-60,11,-9,-68,-61,145,226,-51,35,220,0,0,0,105,109,182,198,1,17802
202.877147913,11,-7,-33,18,4,-83,9,0,-72,-177,-16,247,-56,25,213,0,0,0,89,105,208,192,1,17803
202.904139995,11,-7,-33,13,-3,-72,16,0,-78,-203,35,127,-62,36,215,0,0,0,80,122,199,194,1,17804
202.91326785,11,-7,-35,-7,-5,-65,3,-4,-69,47,161,-34,-60,34,205,0,0,0,111,96,186,201,1,17805
202.92297697,11,-8,-35,13,2,-78,3,-1,-71,-51,-215,202,-54,37,204,0,0,0,96,102,200,196,1,17806
202.931989908,11,-8,-35,-5,2,-62,4,2,-70,-157,15,113,-63,46,198,0,0,0,99,109,200,186,1,17807
202.95917201,11,-8,-35,2,-8,-68,-1,-2,-65,-171,188,-6,-64,60,196,0,0,0,107,96,190,201,1,17808
202.969017028,11,-9,-37,-4,1,-95,0,-3,-81,168,-121,180,-61,59,198,0,0,0,92,90,203,209,1,17809
202.978097915,11,-9,-38,-7,-6,-79,-6,-2,-87,13,-88,204,-51,55,199,0,0,0,107,87,199,200,1,17810
202.986989975,11,-9,-38,-7,-4,-83,-7,-5,-81,-27,-78,48,-52,47,201,0,0,0,103,86,195,209,1,17811
203.014997959,11,-9,-38,-26,-4,-69,-16,-4,-76,-94,-97,-118,-56,38,196,0,0,0,124,77,194,199,1,17812
203.024276971,11,-9,-40,-6,17,-83,-16,6,-76,155,-99,155,-60,34,198,0,0,0,110,79,219,186,1,17813
203.032991886,11,-9,-40,-19,20,-91,-12,19,-87,40,14,87,-56,30,205,0,0,0,101,82,236,175,1,17814
203.042006015,10,-9,-41,-28,7,-73,-23,14,-82,-94,-91,19,-59,23,204,0,0,0,129,66,210,189,1,17815
203.070237875,10,-10,-41,-12,16,-89,-20,12,-81,-182,-127,-148,-67,23,196,0,0,0,108,74,217,195,1,17816
203.078990936,10,-10,-43,-32,5,-95,-22,11,-92,223,-11,183,-53,14,202,0,0,0,111,66,219,197,1,17817
203.088065862,9,-10,-43,-24,7,-70,-28,6,-83,241,-92,209,-51,5,208,0,0,0,131,67,202,194,1,17818
203.097101926,9,-10,-43,-17,11,-77,-21,9,-73,-229,119,141,-48,14,204,0,0,0,109,81,215,189,1,17819
203.124984979,9,-10,-44,-34,0,-49,-26,6,-63,135,31,3,-40,11,204,0,0,0,135,77,195,187,1,17820
203.133994817,8,-10,-45,-28,-7,-56,-31,-3,-53,241,134,88,-31,26,208,0,0,0,137,69,183,204,1,17821
203.143177986,8,-10,-45,-27,-30,-67,-28,-19,-61,-3,213,146,-30,33,209,0,0,0,123,75,168,228,1,17822
203.152993917,8,-10,-45,-20,-8,-53,-23,-19,-60,176,66,22,-26,41,201,0,0,0,123,84,176,211,1,17823
203.180104017,8,-10,-46,-30,-22,-62,-25,-15,-57,-81,187,8,-34,47,199,0,0,0,125,75,187,207,1,17824
203.190425872,7,-10,-47,-27,-29,-54,-29,-25,-58,42,115,80,-27,60,202,0,0,0,134,72,162,226,1,17825
203.198135852,7,-10,-47,-26,-19,-58,-26,-24,-56,153,-8,53,-19,59,209,0,0,0,125,78,175,216,1,17826
203.208107948,7,-10,-47,-24,-48,-35,-25,-33,-46,31,-192,83,-16,60,208,0,0,0,133,88,148,226,1,17827
203.234943866,8,-10,-47,-15,-24,-37,-19,-36,-36,163,-66,-51,-13,54,211,0,0,0,123,95,152,224,1,17828
203.244930028,7,-11,-48,-15,-25,-39,-15,-24,-38,-133,-56,17,-15,59,208,0,0,0,119,97,176,201,1,17829
203.254209041,8,-11,-48,-20,-20,-32,-17,-22,-36,31,-79,105,-11,51,213,0,0,0,130,92,167,205,1,17830
203.263106822,8,-10,-49,-14,-26,-35,-17,-23,-33,114,65,67,-16,57,204,0,0,0,126,94,166,209,1,17831
203.291033983,8,-10,-49,-9,-27,-39,-11,-26,-37,-161,-164,248,-20,42,208,0,0,0,115,101,162,216,1,17832
203.300226926,8,-10,-50,-10,-8,-27,-10,-17,-33,143,37,175,-15,47,206,0,0,0,121,105,176,192,1,17833
203.309159994,8,-10,-50,-2,1,-20,-6,-3,-23,21,-170,167,-13,38,206,0,0,0,119,112,192,171,1,17834
203.31801486,8,-10,-50,-5,18,-25,-4,10,-22,156,194,10,-5,39,202,0,0,0,115,111,206,162,1,17835
203.345980882,8,-10,-50,-5,17,-11,-5,17,-18,-226,189,29,-8,34,198,0,0,0,125,112,203,154,1,17836
203.355046987,8,-9,-50,5,16,-32,0,16,-22,-198,26,97,-7,30,202,0,0,0,105,115,203,171,1,17837
203.363974809,8,-9,-50,-9,15,-21,-1,15,-27,168,17,195,-2,29,211,0,0,0,118,111,198,167,1,17838
203.377928018,8,-8,-50,9,26,-9,0,21,-15,-106,-70,183,-7,25,213,0,0,0,117,121,204,152,1,17839
203.401242971,8,-8,-50,-4,27,-3,2,27,-6,141,168,122,6,31,211,0,0,0,117,126,207,144,1,17840
203.410149812,8,-8,-50,-3,0,0,-3,13,-1,-59,214,140,4,31,211,0,0,0,132,113,177,172,1,17841
203.419036865,8,-7,-51,2,2,-21,0,0,-10,-222,-144,176,7,17,203,0,0,0,112,117,174,191,1,17842
203.429023027,8,-7,-51,-11,-10,-6,-4,-4,-13,210,-48,154,16,17,201,0,0,0,129,112,170,183,1,17843
203.456147909,8,-7,-51,3,-6,-14,-4,-8,-10,-59,-65,-145,20,1,187,0,0,0,121,113,170,190,1,17844
203.465979814,7,-7,-51,-11,-42,-10,-4,-24,-12,-123,-151,1,16,-6,195,0,0,0,122,114,143,214,1,17845
203.475122928,7,-7,-51,-22,-30,-2,-17,-36,-6,169,-7,24,21,0,197,0,0,0,149,95,132,219,1,17846
203.484680891,7,-6,-51,-9,-26,-8,-15,-28,-5,-92,-69,95,23,-9,196,0,0,0,133,105,159,197,1,17847
203.512099981,6,-6,-51,-21,-43,-2,-15,-35,-5,50,-142,254,28,-24,203,0,0,0,136,108,137,213,1,17848
203.521011829,6,-7,-51,-8,-42,-11,-14,-43,-6,-66,181,96,22,-10,194,0,0,0,132,104,132,226,1,17849
203.530088901,5,-6,-51,-22,-50,-4,-15,-46,-8,-24,-81,72,15,-9,197,0,0,0,136,106,130,222,1,17850
203.539132833,5,-6,-51,-14,-26,14,-18,-38,5,-228,218,54,10,-2,198,0,0,0,148,109,140,197,1,17851
203.567077875,5,-6,-51,-17,-25,0,-15,-25,7,-77,91,91,10,2,203,0,0,0,136,110,162,187,1,17852
203.576081037,4,-6,-51,-17,-5,14,-17,-15,7,3,69,181,7,12,203,0,0,0,147,110,164,173,1,17853
203.584993839,4,-6,-51,-10,-6,8,-13,-5,11,-69,16,177,4,12,199,0,0,0,136,116,174,168,1,17854
203.594311952,4,-6,-51,-19,-15,4,-14,-10,6,32,34,134,14,22,196,0,0,0,139,110,159,186,1,17855
203.62203598,4,-5,-51,-6,0,-1,-12,-7,1,-187,-200,187,7,20,204,0,0,0,133,112,172,178,1,17856
203.63102293,4,-5,-51,-7,15,8,-6,8,3,162,0,146,5,27,197,0,0,0,128,124,192,149,1,17857
203.640062809,4,-5,-51,-5,8,4,-6,11,6,-74,89,143,-1,38,195,0,0,0,130,119,188,157,1,17858
203.650123834,4,-4,-51,-6,28,7,-6,18,5,-128,82,6,0,43,192,0,0,0,131,120,195,148,1,17859
203.677453041,4,-4,-51,-10,8,14,-8,18,11,-35,254,-12,-3,49,185,0,0,0,139,118,186,150,1,17860
203.686077833,4,-4,-51,-7,9,0,-9,8,6,181,80,-10,-5,41,176,0,0,0,131,113,176,173,1,17861
203.695199012,5,-4,-50,-11,24,34,-9,16,17,53,216,215,-3,41,178,0,0,0,146,128,184,137,1,17862
203.705024004,5,-4,-50,-1,15,7,-6,19,21,-213,-212,-105,-13,34,175,0,0,0,130,122,194,148,1,17863
203.732164859,5,-3,-50,-5,18,18,-3,16,13,-252,45,163,-11,31,178,0,0,0,131,130,181,152,1,17864
203.741086959,5,-3,-50,-7,4,25,-6,11,21,-163,-116,68,-16,25,178,0,0,0,141,125,171,157,1,17865
203.750900983,5,-3,-50,-5,-3,17,-6,0,21,-32,46,-81,-21,33,168,0,0,0,136,124,160,175,1,17866
203.759917974,5,-3,-50,-9,-14,25,-7,-9,21,-150,190,-33,-32,42,166,0,0,0,141,126,148,179,1,17867
203.78697896,5,-4,-50,-2,-28,0,-5,-21,12,232,-46,164,-30,43,171,0,0,0,128,119,143,204,1,17868
203.796085834,6,-5,-49,-11,-32,13,-6,-30,7,-115,-252,103,-29,38,167,0,0,0,136,121,133,204,1,17869
203.806066989,6,-5,-49,0,-36,-2,-5,-34,5,-61,65,11,-32,41,171,0,0,0,127,117,140,210,1,17870
203.815189838,6,-5,-49,-4,-21,22,-2,-29,10,21,57,142,-28,48,179,0,0,0,132,133,142,187,1,17871
203.842453956,6,-5,-49,0,-23,16,-1,-22,19,-66,33,145,-32,53,176,0,0,0,131,129,152,182,1,17872
203.852278947,6,-6,-49,-12,-10,12,-5,-16,14,-12,18,153,-36,59,182,0,0,0,137,120,158,179,1,17873
203.861124038,7,-6,-49,0,-18,8,-6,-14,10,-51,-17,120,-44,62,181,0,0,0,133,120,159,182,1,17874
203.870177984,7,-6,-49,-17,-35,1,-9,-27,4,68,-107,140,-40,55,191,0,0,0,136,113,137,208,1,17875
203.897886991,7,-6,-49,-1,-11,8,-9,-23,5,-52,-87,91,-42,41,186,0,0,0,136,118,152,189,1,17876
203.906949996,7,-7,-49,-8,-23,1,-4,-17,4,-79,-2,124,-39,34,187,0,0,0,125,123,162,184,1,17877
203.916055917,7,-7,-49,-14,-7,15,-11,-15,8,160,55,170,-39,35,186,0,0,0,146,113,155,179,1,17878
203.925089836,7,-7,-49,-6,-5,5,-10,-6,10,-45,-92,-4,-44,28,175,0,0,0,135,117,174,168,1,17879
203.957821846,7,-8,-49,-16,1,25,-11,-1,15,96,50,127,-45,25,181,0,0,0,146,122,166,161,1,17880
203.962100982,7,-8,-48,-8,6,6,-12,4,16,-248,0,103,-50,20,174,0,0,0,139,113,181,161,1,17881
203.971069812,7,-8,-48,-15,19,35,-12,13,20,80,-20,-89,-42,30,167,0,0,0,149,127,180,139,1,17882
203.980861902,7,-8,-48,2,12,17,-6,15,26,-108,8,-4,-50,31,157,0,0,0,132,130,185,148,1,17883
204.007946014,7,-8,-48,-19,26,28,-8,19,22,-131,-168,125,-52,35,164,0,0,0,145,125,185,139,1,17884
204.017268896,7,-8,-48,-19,15,17,-19,21,22,-217,-31,3,-54,31,157,0,0,0,159,103,189,144,1,17885
204.02690196,7,-8,-48,-14,14,3,-17,15,10,44,-58,245,-51,30,157,0,0,0,140,111,182,161,1,17886
204.036082029,7,-8,-47,-15,-5,19,-14,4,11,-134,-146,131,-52,28,164,0,0,0,145,119,162,168,1,17887
204.063241958,7,-9,-47,-4,-7,2,-9,-6,11,-149,176,115,-57,36,167,0,0,0,130,120,158,186,1,17888
204.072975873,7,-9,-47,-19,-8,26,-11,-7,14,94,218,162,-53,31,168,0,0,0,148,121,154,170,1,17889
204.082005977,7,-9,-47,-3,-16,11,-11,-12,19,-16,-47,237,-53,31,166,0,0,0,139,118,153,183,1,17890
204.090988874,7,-10,-47,-12,0,31,-7,-8,21,135,55,119,-44,34,168,0,0,0,141,132,156,164,1,17891
204.118952989,7,-10,-47,6,-9,15,-3,-4,23,-43,43,-100,-43,33,163,0,0,0,130,131,166,167,1,17892
204.128098011,7,-10,-46,-1,-8,26,2,-8,21,82,96,139,-41,33,162,0,0,0,128,142,151,173,1,17893
204.137578964,7,-10,-46,-2,-14,31,-2,-11,29,-95,-121,220,-41,30,163,0,0,0,143,131,147,172,1,17894
204.146001815,7,-10,-46,6,-8,9,1,-11,20,178,-139,247,-44,19,166,0,0,0,123,134,159,178,1,17895
204.173942804,7,-11,-46,3,-20,7,4,-14,8,-34,-43,200,-34,23,172,0,0,0,120,135,154,185,1,17896
204.183135032,7,-11,-46,5,-15,19,4,-17,13,-23,-137,38,-39,13,176,0,0,0,128,136,146,184,1,17897
204.192157983,7,-11,-46,1,-15,15,3,-15,17,141,-254,165,-33,-1,177,0,0,0,128,133,154,178,1,17898
204.20191884,7,-11,-46,-9,-17,14,-3,-16,14,-80,97,131,-38,-7,186,0,0,0,140,120,151,182,1,17899
204.230013847,7,-11,-46,0,0,9,-5,-8,12,67,-134,143,-36,-17,190,0,0,0,134,123,167,169,1,17900
204.238291978,6,-11,-46,-7,-8,0,-4,-4,4,-198,-44,0,-45,-20,197,0,0,0,128,121,172,173,1,17901
204.248144865,6,-11,-46,-9,2,9,-8,-3,4,190,-18,-35,-42,-26,191,0,0,0,141,116,168,169,1,17902
204.256978034,5,-11,-46,-11,-19,15,-10,-8,12,240,-43,113,-31,-21,196,0,0,0,143,119,155,178,1,17903
204.284173011,5,-11,-45,-9,12,29,-10,-3,22,-122,-109,51,-27,-32,200,0,0,0,147,126,162,159,1,17904
204.293987035,4,-11,-45,-10,-18,4,-10,-3,16,85,138,202,-15,-25,197,0,0,0,136,117,168,172,1,17905
204.30300188,4,-11,-45,3,18,13,-3,0,8,-146,32,123,-17,-26,208,0,0,0,128,133,170,163,1,17906
204.312040805,4,-11,-45,1,6,3,2,12,8,236,54,-19,-1,-29,208,0,0,0,119,134,194,147,1,17907
204.340021848,3,-10,-45,0,8,19,0,7,11,-27,-38,24,-14,-29,205,0,0,0,133,132,168,161,1,17908
204.352844953,3,-10,-44,0,19,25,0,13,22,135,-25,-76,-8,-23,200,0,0,0,136,134,181,143,1,17909
204.357925891,3,-10,-44,-2,6,13,-1,12,19,162,119,105,-2,-15,196,0,0,0,134,127,178,154,1,17910
204.36700201,2,-9,-44,-8,-1,9,-5,2,11,216,132,87,-4,-20,195,0,0,0,138,120,163,173,1,17911
204.395195007,2,-9,-44,3,15,12,-2,7,10,24,162,61,10,-10,199,0,0,0,131,130,178,155,1,17912
204.404120922,2,-9,-44,5,-7,6,4,4,9,51,-248,168,18,-23,200,0,0,0,118,138,171,167,1,17913
204.412403821,2,-8,-44,-12,7,14,-3,0,10,114,-117,11,35,-26,203,0,0,0,141,121,163,169,1,17914
204.422004938,1,-8,-44,8,12,9,-1,9,11,22,-81,222,28,-25,199,0,0,0,130,129,186,150,1,17915
204.44907999,1,-7,-44,-7,-1,26,0,5,17,78,-17,154,44,-23,201,0,0,0,134,139,164,158,1,17916
204.458256959,1,-6,-43,12,0,9,2,0,18,-205,163,107,40,-13,200,0,0,0,125,134,162,173,1,17917
204.467237949,1,-6,-43,1,-4,15,7,-2,12,-179,-100,28,32,-23,197,0,0,0,121,142,162,169,1,17918
204.476028919,1,-5,-43,-3,0,12,0,-2,13,136,-169,227,43,-19,209,0,0,0,138,123,165,168,1,17919
204.503996849,0,-5,-43,-8,8,26,-5,3,19,-114,-90,167,31,-22,210,0,0,0,146,126,171,151,1,17920
204.513057947,0,-5,-43,-4,-10,21,-6,0,24,253,139,176,44,-19,218,0,0,0,141,127,159,166,1,17921
204.522189855,0,-4,-43,0,6,33,-2,-2,27,-8,55,194,35,-10,232,0,0,0,138,141,156,160,1,17922
204.537650823,0,-4,-43,-10,-18,18,-4,-6,26,195,144,195,43,-7,249,0,0,0,140,127,155,172,1,17923
204.559168815,0,-3,-42,11,-6,18,0,-12,18,-144,149,74,42,0,248,0,0,0,128,139,147,180,1,17924
204.568291902,0,-3,-42,6,-13,22,8,-9,20,-53,-153,20,47,3,249,0,0,0,120,150,155,168,1,17925
204.577893018,0,-3,-42,-7,0,21,0,-6,22,-38,-113,50,38,2,244,0,0,0,143,126,159,165,1,17926
204.587141037,0,-2,-42,12,7,13,2,3,17,-94,-17,57,39,0,242,0,0,0,127,136,179,153,1,17927
204.614310026,0,-2,-42,6,11,19,9,9,16,103,250,128,45,1,242,0,0,0,119,149,178,148,1,17928
204.626199007,0,-1,-41,21,8,12,14,10,15,-49,-90,117,42,-13,247,0,0,0,114,148,177,155,1,17929
204.632982969,0,-1,-41,0,15,22,11,12,17,23,90,102,43,-3,250,0,0,0,128,143,176,147,1,17930
204.642191886,0,-1,-41,23,10,22,12,13,22,-28,-169,229,32,-15,253,0,0,0,123,148,176,147,1,17931
204.669999837,0,0,-41,2,9,20,13,10,21,192,2,192,38,-16,11,0,0,0,122,148,170,154,1,17932
204.67927289,0,0,-41,10,11,17,6,10,18,-134,-112,130,33,-27,4,0,0,0,133,133,175,153,1,17933
204.688081979,0,0,-41,7,7,16,8,9,16,100,-17,232,38,-25,5,0,0,0,123,143,173,156,1,17934
204.697023868,0,0,-41,4,18,26,5,12,21,-167,-146,89,29,-31,1,0,0,0,134,141,176,144,1,17935
204.725157976,0,0,-41,6,10,8,5,14,17,-237,34,56,24,-29,253,0,0,0,125,135,183,150,1,17936
204.733904838,0,1,-40,-7,19,29,0,15,19,-14,89,34,24,-24,247,0,0,0,144,133,175,142,1,17937
204.74305582,0,1,-40,11,9,13,1,14,21,-20,60,148,14,-16,240,0,0,0,128,136,179,151,1,17938
204.752367973,0,1,-40,1,21,22,6,15,17,16,186,185,23,-14,241,0,0,0,126,146,177,145,1,17939
204.780129909,0,1,-40,13,12,15,7,16,19,-210,-226,166,16,-16,248,0,0,0,126,141,182,146,1,17940
204.788983821,0,1,-40,7,17,13,10,14,14,151,-33,228,24,-16,247,0,0,0,120,144,178,152,1,17941
204.798290014,0,2,-40,-3,2,23,2,9,18,103,180,73,22,-11,1,0,0,0,141,132,166,155,1,17942
204.808101892,0,2,-39,-2,4,5,-2,3,14,80,194,219,18,-5,3,0,0,0,136,122,167,169,1,17943
204.835146904,0,2,-39,-3,5,26,-3,5,16,27,-232,144,22,-1,5,0,0,0,141,135,166,152,1,17944
204.844286918,0,2,-39,10,-6,7,3,0,17,-208,-79,26,8,-13,7,0,0,0,121,139,163,171,1,17945
204.854030847,0,2,-39,-12,4,22,0,0,15,71,127,31,20,-11,5,0,0,0,141,132,160,161,1,17946
204.863095998,0,2,-39,6,-8,8,-3,-1,15,-34,-42,-144,13,-20,2,0,0,0,136,126,164,168,1,17947
204.890035867,0,2,-39,-11,4,30,-2,-1,19,67,-207,113,22,-24,4,0,0,0,142,138,157,158,1,17948
204.900108814,0,2,-38,0,-3,8,-6,0,19,-33,-14,162,18,-24,10,0,0,0,140,122,169,163,1,17949
204.90894103,-1,2,-38,0,0,21,0,-2,15,-123,-30,171,11,-40,12,0,0,0,132,140,158,164,1,17950
204.918056964,-1,2,-38,4,-9,15,2,-5,18,73,14,224,7,-43,15,0,0,0,130,138,157,170,1,17951
204.946049928,-1,2,-38,-15,0,20,-5,-5,17,-74,23,1,-1,-47,14,0,0,0,148,124,158,165,1,17952
204.955094814,-2,2,-38,-2,0,21,-8,0,20,131,-70,204,0,-42,15,0,0,0,148,125,166,156,1,17953
204.964036941,-2,2,-38,-5,2,17,-4,1,19,-252,146,-59,-14,-36,6,0,0,0,135,135,165,159,1,17954
204.973037004,-2,2,-38,-12,18,29,-9,10,23,93,145,158,-6,-30,5,0,0,0,153,127,176,139,1,17955
205.001080989,-2,2,-37,12,-3,25,0,7,27,-36,-248,79,-22,-29,3,0,0,0,131,146,164,153,1,17956
205.010156869,-2,2,-37,-3,22,15,4,9,20,-3,174,121,-17,-29,253,0,0,0,126,143,175,151,1,17957
205.019038915,-2,1,-37,10,-4,15,3,9,15,-85,57,80,-15,-19,248,0,0,0,131,137,172,154,1,17958
205.029027938,-2,1,-37,5,9,18,7,2,17,-45,-150,166,-19,-18,246,0,0,0,125,147,159,164,1,17959
205.056102037,-2,1,-37,6,0,26,5,4,22,-139,136,93,-20,-13,244,0,0,0,135,142,166,151,1,17960
205.065188884,-2,1,-36,14,4,8,10,2,17,113,-134,12,-23,-19,240,0,0,0,118,145,166,164,1,17961
205.074249982,-2,1,-36,-4,8,25,4,6,16,51,-80,205,-9,-29,241,0,0,0,138,139,169,149,1,17962
205.084076881,-2,1,-36,19,9,14,7,9,19,6,-48,113,-14,-40,232,0,0,0,125,144,175,151,1,17963
205.111174821,-2,1,-36,-17,-5,32,1,2,23,175,76,148,0,-42,234,0,0,0,145,137,153,159,1,17964
205.121039867,-3,1,-36,12,4,2,-2,0,17,145,-11,-98,5,-45,231,0,0,0,135,124,166,169,1,17965
205.129972934,-3,1,-36,-15,1,29,-1,2,15,35,58,2,7,-41,230,0,0,0,141,139,164,150,1,17966
205.139029026,-3,1,-36,13,-5,10,-1,-2,20,-47,-183,85,8,-39,224,0,0,0,134,132,159,169,1,17967
205.166961908,-3,1,-36,5,12,24,9,3,17,-54,64,47,4,-43,222,0,0,0,121,156,168,149,1,17968
205.176149845,-3,1,-35,0,-6,12,2,3,18,111,-111,180,8,-44,224,0,0,0,137,130,167,160,1,17969
205.18530488,-4,1,-35,14,18,4,6,6,8,-72,25,19,5,-45,222,0,0,0,120,141,176,158,1,17970
205.194039821,-4,1,-35,-1,2,22,6,10,13,30,-84,245,20,-50,222,0,0,0,132,144,174,144,1,17971
205.222074031,-4,1,-35,6,-2,26,2,0,24,-111,190,220,12,-45,216,0,0,0,141,139,150,164,1,17972
205.231216907,-4,1,-34,-8,0,15,-1,0,21,110,90,-28,18,-40,212,0,0,0,139,131,161,163,1,17973
205.240054845,-5,1,-34,3,-11,15,-2,-5,15,143,126,34,19,-30,207,0,0,0,139,131,154,170,1,17974
205.249058961,-5,1,-34,-13,5,27,-4,-2,21,93,45,59,26,-19,207,0,0,0,147,134,157,156,1,17975
205.277493953,-5,1,-34,-6,3,25,-9,4,26,-44,101,128,31,-11,202,0,0,0,153,126,170,146,1,17976
205.286195993,-5,2,-34,3,13,1,-1,8,13,36,-33,172,32,-20,205,0,0,0,125,135,180,155,1,17977
205.295266866,-5,2,-34,-16,4,5,-6,8,3,89,-133,-4,41,-25,202,0,0,0,142,121,175,156,1,17978
205.304980039,-5,2,-34,3,7,7,-6,5,6,78,-113,177,43,-39,195,0,0,0,138,127,169,160,1,17979
205.331964015,-5,3,-34,-5,-3,9,0,2,8,144,-150,17,51,-43,191,0,0,0,130,137,164,163,1,17980
205.342099905,-5,3,-34,5,2,11,0,0,10,-13,-71,112,47,-44,188,0,0,0,133,134,162,165,1,17981
205.351155996,-5,3,-34,-7,-1,22,0,0,16,-61,221,201,43,-43,185,0,0,0,140,137,161,156,1,17982
205.359987974,-6,3,-34,22,-3,-3,7,-2,9,-140,-31,236,38,-49,192,0,0,0,114,142,165,173,1,17983
205.388002872,-6,4,-34,3,4,0,12,0,-2,-138,164,99,34,-39,184,0,0,0,113,146,172,164,1,17984
205.397076845,-6,4,-34,17,-7,-4,10,-1,-2,212,238,171,44,-25,188,0,0,0,119,136,168,171,1,17985
205.405910968,-6,4,-34,16,5,-2,16,0,-3,-17,-239,71,35,-34,183,0,0,0,107,150,169,168,1,17986
205.415071964,-6,4,-34,-3,-1,-3,6,1,-3,150,-7,55,40,-26,188,0,0,0,131,125,174,164,1,17987
205.442921876,-6,5,-34,6,8,7,1,3,1,-203,-148,162,33,-25,189,0,0,0,135,130,170,159,1,17988
205.451952934,-6,5,-34,-4,2,1,0,5,4,250,82,-9,40,-23,185,0,0,0,130,131,174,159,1,17989
205.461022853,-6,5,-33,13,8,16,4,5,8,-225,213,165,38,-4,185,0,0,0,129,143,167,155,1,17990
205.471037864,-6,5,-33,-2,-4,16,5,1,16,213,30,-48,41,2,171,0,0,0,130,142,160,161,1,17991
205.497944831,-5,5,-33,4,11,-17,1,3,0,-7,24,176,43,2,169,0,0,0,125,120,180,169,1,17992
205.506983041,-5,6,-34,1,5,-10,3,8,-13,-41,13,155,32,4,168,0,0,0,121,130,185,159,1,17993
205.522303819,-5,6,-34,-3,17,0,0,11,-5,102,-73,244,41,0,176,0,0,0,134,126,182,153,1,17994
205.525944948,-5,6,-34,5,10,-19,1,13,-9,-153,-39,13,29,-11,178,0,0,0,119,124,192,159,1,17995
205.552968025,-5,6,-34,-8,3,-17,-1,7,-18,175,-20,180,47,-12,181,0,0,0,126,118,177,173,1,17996
205.562384843,-5,7,-34,8,11,0,0,7,-9,134,-92,74,50,-19,180,0,0,0,128,130,177,159,1,17997
205.571964025,-5,7,-34,-13,0,5,-2,6,2,190,185,-46,57,-15,177,0,0,0,136,128,171,160,1,17998
205.581041812,-5,7,-34,13,5,-2,0,3,1,113,137,184,61,-8,171,0,0,0,126,131,170,168,1,17999
205.608968019,-5,8,-34,-2,6,-14,5,5,-8,-213,193,175,59,-7,166,0,0,0,113,133,183,165,1,18000
205.617991924,-5,8,-34,1,-6,-11,0,0,-13,220,112,182,62,-1,171,0,0,0,130,119,169,176,1,18001
205.627128839,-4,8,-34,9,7,-8,5,0,-10,-51,-209,118,46,-4,168,0,0,0,116,136,173,169,1,18002
205.636302948,-4,9,-34,-2,4,-9,3,6,-8,138,-109,143,56,0,176,0,0,0,124,127,183,160,1,18003
205.665959835,-4,9,-34,-3,-9,-7,-3,-2,-8,-185,-16,115,41,-1,175,0,0,0,135,118,162,179,1,18004
205.673066854,-4,9,-35,-7,-2,-7,-5,-6,-7,126,2,103,40,4,180,0,0,0,134,119,163,179,1,18005
205.682030916,-4,9,-35,-6,-20,1,-6,-11,-2,188,155,40,44,13,181,0,0,0,137,122,153,182,1,18006
205.691027879,-4,9,-35,0,-6,10,-3,-13,6,-158,-132,30,41,15,179,0,0,0,134,133,150,177,1,18007
205.719033002,-3,9,-35,-13,-2,-7,-6,-4,1,149,146,159,46,23,182,0,0,0,135,117,176,167,1,18008
205.733842849,-3,9,-35,4,-26,-2,-4,-14,-5,-106,-85,148,35,24,175,0,0,0,130,126,149,190,1,18009
205.737541914,-3,9,-35,-17,-2,3,-6,-14,0,168,131,156,41,20,178,0,0,0,139,122,154,179,1,18010
205.746291875,-3,9,-35,10,-21,-7,-3,-12,-1,-189,-35,144,29,21,182,0,0,0,127,124,162,180,1,18011
205.773949861,-2,9,-35,-19,-30,-10,-4,-26,-9,199,-37,134,36,15,180,0,0,0,130,120,137,208,1,18012
205.783145904,-2,8,-35,-3,-33,-14,-11,-31,-12,223,0,249,39,13,187,0,0,0,140,106,140,208,1,18013
205.792150974,-2,8,-35,-2,-25,-25,-3,-29,-20,-136,-177,119,32,-6,196,0,0,0,115,122,153,203,1,18014
205.80191183,-2,8,-35,-8,-6,20,-5,-15,-2,68,-45,185,32,-15,199,0,0,0,144,130,157,163,1,18015
205.829157829,-2,8,-35,4,-16,1,-2,-11,10,-61,-160,-57,25,-34,194,0,0,0,128,130,162,174,1,18016
205.837957859,-2,8,-35,-1,13,9,1,-1,5,197,74,9,29,-19,196,0,0,0,129,136,172,157,1,18017
205.847205877,-3,8,-35,12,0,-8,5,6,0,-211,-157,79,21,-19,199,0,0,0,117,134,185,158,1,18018
205.857057809,-3,8,-35,-7,0,18,2,0,4,219,124,22,25,-1,195,0,0,0,136,136,156,166,1,18019
205.884069919,-2,8,-35,19,0,10,5,0,14,-11,-227,158,21,3,192,0,0,0,125,141,165,162,1,18020
205.893507003,-2,8,-35,8,2,0,14,1,5,57,-143,4,23,1,196,0,0,0,109,149,172,164,1,18021
205.902936935,-2,8,-35,-6,11,6,1,7,3,110,-80,195,27,-12,195,0,0,0,141,122,178,153,1,18022
205.917675972,-2,8,-35,24,20,7,8,16,7,-251,24,78,24,-11,191,0,0,0,117,147,188,141,1,18023
205.942591905,-2,8,-35,4,4,11,14,12,9,49,56,155,29,-13,193,0,0,0,116,151,173,154,1,18024
205.949019908,-2,8,-35,7,21,1,6,12,6,-185,205,112,19,-14,185,0,0,0,131,128,181,154,1,18025
205.958037853,-2,8,-35,10,-1,-10,9,10,-4,-218,-70,119,14,-16,193,0,0,0,114,136,181,164,1,18026
205.966992855,-2,8,-35,14,1,-12,12,0,-11,25,-66,37,17,-18,198,0,0,0,109,139,165,180,1,18027
205.993990898,-2,8,-35,8,24,0,11,12,-6,-10,-85,149,22,-23,205,0,0,0,118,139,192,145,1,18028
206.00415802,-2,8,-35,10,9,8,9,16,4,38,31,69,23,-24,213,0,0,0,125,140,185,144,1,18029
206.012934923,-2,8,-35,22,19,5,16,14,7,73,138,16,31,-26,216,0,0,0,110,152,178,153,1,18030
206.022112846,-2,8,-35,2,15,-5,12,17,0,198,-163,-137,30,-37,213,0,0,0,119,135,190,150,1,18031
206.050093889,-2,8,-35,15,12,12,8,13,3,231,173,94,36,-33,211,0,0,0,129,139,175,152,1,18032
206.059028863,-2,9,-35,5,8,-28,10,10,-8,-194,-149,220,32,-37,207,0,0,0,106,129,188,171,1,18033
206.068018913,-2,9,-35,0,4,-12,3,6,-20,179,16,24,34,-35,207,0,0,0,127,121,177,170,1,18034
206.076916933,-3,9,-35,0,8,-12,0,6,-12,-68,-94,191,30,-30,212,0,0,0,126,122,180,166,1,18035
206.105563879,-3,9,-35,-11,19,-9,-5,13,-11,249,-64,189,25,-25,219,0,0,0,135,115,193,151,1,18036
206.113873004,-3,9,-35,-1,0,-6,-6,9,-7,-204,172,220,17,-18,222,0,0,0,133,120,178,164,1,18037
206.123044014,-3,9,-35,-3,-1,-11,-2,0,-8,-49,74,57,11,-21,231,0,0,0,123,125,165,181,1,18038
206.133328914,-3,9,-35,-8,-12,-7,-6,-6,-9,-8,-85,173,8,-26,231,0,0,0,135,117,161,182,1,18039
206.160097837,-3,8,-35,-12,-18,-8,-10,-15,-8,-28,-225,166,6,-37,231,0,0,0,140,111,151,193,1,18040
206.169040918,-4,8,-35,-9,-23,-13,-11,-21,-11,101,190,-39,3,-35,219,0,0,0,134,112,150,197,1,18041
206.178062915,-4,7,-35,-4,-23,-10,-7,-23,-11,-98,4,78,2,-23,211,0,0,0,128,121,149,196,1,18042
206.188443899,-4,7,-35,0,-15,-12,-2,-19,-11,117,-101,7,-4,-29,202,0,0,0,122,125,159,188,1,18043
206.215091943,-4,7,-36,-6,-24,-7,-3,-20,-10,-88,-78,53,-1,-31,200,0,0,0,129,122,153,190,1,18044
206.224375963,-4,6,-36,7,-6,-16,0,-15,-11,-58,-194,64,-6,-36,199,0,0,0,118,127,165,184,1,18045
206.232995033,-4,6,-36,7,-12,-3,7,-9,-9,177,-30,28,-6,-47,199,0,0,0,115,140,167,173,1,18046
206.242991924,-4,5,-36,14,-14,1,10,-13,-1,-187,15,23,-7,-43,205,0,0,0,116,142,153,183,1,18047
206.269959926,-5,5,-36,20,-5,0,17,-9,0,111,196,146,-8,-48,205,0,0,0,106,150,163,174,1,18048
206.279165983,-5,5,-36,7,-16,-6,14,-11,-3,-149,-133,77,-3,-50,203,0,0,0,115,137,161,182,1,18049
206.289022922,-5,5,-36,14,8,2,11,-4,-2,-10,-167,104,-7,-57,202,0,0,0,121,138,170,165,1,18050
206.298022031,-5,4,-36,12,-1,-7,13,3,-2,-174,-161,38,-7,-54,199,0,0,0,110,140,182,161,1,18051
206.325122833,-5,4,-36,9,2,17,10,0,4,199,104,56,-7,-44,203,0,0,0,127,144,161,162,1,18052
206.335021972,-5,4,-36,14,9,9,12,5,13,16,-68,146,-6,-46,201,0,0,0,120,145,176,154,1,18053
206.343982934,-5,4,-36,1,-6,11,8,1,10,90,177,205,0,-24,197,0,0,0,128,137,163,165,1,18054
206.352989912,-5,4,-36,8,-5,1,4,-5,6,210,37,217,3,-15,197,0,0,0,127,131,157,179,1,18055
206.381002903,-5,4,-36,1,5,3,4,0,2,75,78,183,12,2,210,0,0,0,126,135,173,161,1,18056
206.390233993,-5,4,-35,-2,7,32,0,6,18,-46,-61,155,6,-13,213,0,0,0,147,137,168,143,1,18057
206.39901185,-5,4,-35,-5,-7,8,-3,0,20,197,25,134,17,-2,221,0,0,0,138,126,160,169,1,18058
206.40811181,-5,4,-35,-3,-1,20,-4,-4,14,12,-161,93,11,-15,223,0,0,0,142,133,153,167,1,18059
206.435932874,-5,4,-35,-3,-11,1,-3,-6,11,84,-119,156,14,-13,223,0,0,0,132,127,161,174,1,18060
206.445034027,-5,4,-35,1,11,22,0,0,12,-145,-10,153,9,-9,227,0,0,0,136,139,166,153,1,18061
206.460101842,-5,4,-35,1,7,6,1,9,14,-188,-38,254,1,-2,228,0,0,0,131,138,186,151,1,18062
206.488042831,-5,4,-35,-4,6,7,-1,7,7,-44,-162,204,6,-7,225,0,0,0,139,131,174,162,1,18063
206.49706602,-4,4,-34,14,12,13,4,9,10,-77,-27,239,3,-15,227,0,0,0,127,147,178,154,1,18064
206.505955934,-4,4,-34,-12,-6,15,0,3,14,-55,0,132,7,-20,234,0,0,0,141,136,163,166,1,18065
206.515228986,-4,4,-34,-1,-6,0,-7,-6,7,91,133,38,14,-9,232,0,0,0,145,119,158,184,1,18066
206.543224811,-4,3,-34,-16,-7,12,-9,-6,5,-169,-241,36,3,-13,232,0,0,0,147,127,160,172,1,18067
206.552053928,-5,3,-34,0,-15,-15,-8,-11,-1,-63,174,-80,2,0,220,0,0,0,134,118,163,191,1,18068
206.561035871,-4,3,-34,-7,-3,2,-4,-9,-6,0,-241,102,-5,-7,214,0,0,0,133,133,164,176,1,18069
206.570963859,-4,3,-34,-13,-2,5,-10,-2,3,92,-214,11,-4,-22,208,0,0,0,150,118,172,165,1,18070
206.598073959,-4,3,-34,-16,-7,0,-15,-4,2,12,-124,220,-9,-28,217,0,0,0,150,113,166,176,1,18071
206.607126951,-5,2,-34,-6,-5,7,-11,-6,3,100,77,228,-12,-37,220,0,0,0,144,127,162,174,1,18072
206.617107868,-5,2,-34,0,0,1,-3,-2,4,167,-219,135,-3,-38,218,0,0,0,129,136,172,169,1,18073
206.626091957,-5,2,-34,-16,-21,6,-8,-11,3,-149,-60,100,-11,-40,213,0,0,0,147,123,152,185,1,18074
206.653254985,-5,2,-34,13,-2,-18,-1,-12,-5,-25,126,182,-4,-35,213,0,0,0,120,129,166,190,1,18075
206.662917852,-5,1,-34,-11,-17,-2,1,-10,-10,36,-68,178,-9,-41,206,0,0,0,128,134,165,179,1,18076
206.671979904,-6,1,-34,-9,0,-19,-10,-8,-10,27,215,178,-3,-40,212,0,0,0,144,105,173,184,1,18077
206.681414842,-6,1,-34,2,0,-16,-3,0,-18,52,-76,29,-1,-44,211,0,0,0,123,128,186,170,1,18078
206.708209037,-6,1,-34,0,2,-2,0,0,-9,92,101,96,1,-33,215,0,0,0,127,135,174,170,1,18079
206.717962026,-6,1,-35,3,-3,-31,1,0,-17,100,107,137,10,-24,221,0,0,0,118,121,183,184,1,18080
206.727005004,-6,1,-35,2,-6,-22,2,-5,-27,150,227,211,12,-24,227,0,0,0,119,127,172,188,1,18081
206.736568927,-6,1,-35,5,-4,-19,4,-5,-21,151,-114,156,24,-33,236,0,0,0,119,129,174,184,1,18082
206.763944864,-6,1,-35,8,5,-11,7,0,-15,1,-124,88,21,-27,238,0,0,0,117,137,183,169,1,18083
206.772974967,-6,2,-35,6,3,-7,7,4,-9,106,-52,32,26,-26,244,0,0,0,121,136,183,165,1,18084
206.782109975,-6,2,-35,9,4,-14,7,4,-11,186,148,45,32,-11,243,0,0,0,118,134,182,173,1,18085
206.79103589,-6,2,-35,-5,5,-12,2,4,-13,167,-117,247,32,-14,249,0,0,0,129,124,183,170,1,18086
206.819032907,-6,2,-36,2,-9,-18,-1,-1,-15,105,104,199,46,-5,247,0,0,0,129,119,172,186,1,18087
206.8281219,-5,2,-36,5,3,-22,3,-2,-20,12,-75,167,43,-18,247,0,0,0,115,130,178,183,1,18088
206.837023973,-5,2,-36,-3,-9,-25,0,-2,-24,151,73,209,51,-7,250,0,0,0,123,119,180,183,1,18089
206.846087932,-5,3,-36,1,-5,-35,-1,-7,-30,-25,-253,244,50,-9,254,0,0,0,120,114,176,196,1,18090
206.873996019,-5,3,-36,2,0,-19,1,-2,-27,-215,64,40,49,2,254,0,0,0,119,128,181,177,1,18091
206.883011817,-5,3,-37,8,-2,-37,5,-1,-28,-115,-19,-150,42,-6,242,0,0,0,108,124,188,186,1,18092
206.892107963,-5,3,-37,-6,-4,-56,0,-3,-47,-211,88,41,30,3,240,0,0,0,112,105,190,199,1,18093
206.901919841,-4,3,-37,9,-7,-81,1,-6,-68,4,-43,34,27,-14,242,0,0,0,97,100,198,212,1,18094
206.929102897,-4,3,-38,6,-4,-79,7,-5,-80,-27,19,170,21,-15,247,0,0,0,86,112,199,209,1,18095
206.938067913,-4,3,-39,7,0,-65,6,-2,-72,-32,-169,153,12,-27,240,0,0,0,99,110,200,197,1,18096
206.947093963,-4,3,-40,8,0,-88,7,0,-77,-2,90,164,13,-17,240,0,0,0,87,104,211,205,1,18097
206.956919908,-4,3,-40,0,5,-75,4,2,-81,-224,195,121,3,-19,240,0,0,0,99,100,210,197,1,18098
206.98418498,-4,3,-40,11,7,-105,5,6,-90,79,-22,55,5,-16,239,0,0,0,81,94,226,206,1,18099
206.993167877,-4,3,-43,0,11,-100,6,9,-103,-242,167,76,-3,-9,237,0,0,0,83,95,226,202,1,18100
207.002046823,-4,3,-43,4,-9,-100,2,0,-100,-137,-124,14,-2,-11,234,0,0,0,90,88,208,219,1,18101
207.012018919,-4,3,-43,1,-7,-102,2,-8,-101,231,209,221,7,-5,239,0,0,0,85,90,201,230,1,18102
207.039148807,-4,3,-44,-1,1,-86,0,-2,-94,4,113,190,8,1,245,0,0,0,96,92,212,207,1,18103
207.048168897,-4,3,-46,6,-7,-99,2,-2,-93,68,13,-80,12,8,237,0,0,0,84,93,213,217,1,18104
207.058023929,-3,3,-46,-7,-1,-85,0,-4,-92,160,160,181,17,19,232,0,0,0,97,90,204,214,1,18105
207.067451,-3,3,-47,-7,-13,-79,-7,-7,-82,49,136,163,16,19,229,0,0,0,108,82,199,217,1,18106
207.09404087,-3,3,-47,0,-16,-109,-3,-15,-94,141,229,63,24,30,229,0,0,0,83,83,200,239,1,18107
207.103698015,-3,3,-49,-1,-4,-98,0,-10,-103,40,5,216,27,33,237,0,0,0,85,90,210,221,1,18108
207.11303091,-2,3,-50,8,7,-110,3,1,-104,82,111,167,29,41,238,0,0,0,76,90,233,208,1,18109
207.122164964,-2,3,-50,12,7,-120,10,7,-115,-114,32,-245,24,48,232,0,0,0,62,93,238,213,1,18110
207.149065971,-1,3,-50,5,11,-97,8,9,-108,-96,20,120,21,64,230,0,0,0,80,93,229,204,1,18111
207.158177852,-1,3,-53,9,6,-113,7,9,-105,-207,-16,72,13,55,232,0,0,0,74,86,232,214,1,18112
207.168061971,0,3,-53,12,-2,-127,11,2,-120,168,183,253,13,65,235,0,0,0,61,88,225,232,1,18113
207.177168846,0,3,-54,20,18,-113,16,7,-120,86,163,76,19,71,241,0,0,0,58,99,238,211,1,18114
207.204363822,0,3,-54,9,12,-124,15,15,-119,48,-196,156,21,63,234,0,0,0,61,87,240,207,1,18115
207.214016914,0,3,-57,4,-10,-104,7,0,-114,-131,40,-36,17,72,222,0,0,0,82,83,210,231,1,18116
207.222972869,1,3,-57,12,-12,-102,8,-11,-103,-241,102,86,10,69,213,0,0,0,73,92,200,240,1,18117
207.232234001,2,3,-58,11,-14,-100,12,-13,-101,-32,-20,205,8,64,218,0,0,0,68,97,206,234,1,18118
207.259999036,2,3,-58,10,-16,-102,11,-15,-101,-30,-46,25,-1,54,216,0,0,0,72,91,206,238,1,18119
207.269042015,3,3,-60,16,-2,-76,13,-9,-89,-211,-28,-154,-8,51,202,0,0,0,77,107,208,214,1,18120
207.278249025,3,3,-60,3,-11,-82,9,-6,-79,-52,-77,152,-14,43,207,0,0,0,83,96,210,217,1,18121
207.287209987,3,2,-61,0,-20,-73,1,-15,-78,66,-72,117,-16,44,206,0,0,0,98,86,189,233,1,18122
207.31513381,4,2,-61,10,1,-69,4,-9,-71,143,-243,-21,-12,41,203,0,0,0,86,101,207,212,1,18123
207.324080944,4,2,-62,-8,1,-55,0,1,-62,0,-7,140,-8,36,206,0,0,0,102,97,215,193,1,18124
207.333109855,4,2,-62,-23,13,-43,-15,7,-49,16,227,20,-13,31,212,0,0,0,133,75,212,186,1,18125
207.342118024,4,2,-63,-10,9,-46,-16,11,-45,215,29,-220,-11,35,200,0,0,0,119,85,216,187,1,18126
207.370115041,4,2,-63,-19,23,-34,-14,16,-40,27,207,219,-13,31,201,0,0,0,119,94,217,176,1,18127
207.381851911,4,2,-63,-35,16,-20,-27,20,-27,101,-161,25,-11,35,197,0,0,0,149,76,214,168,1,18128
207.388216018,4,2,-64,-33,25,-35,-34,21,-27,-130,-163,20,-18,30,192,0,0,0,145,68,219,174,1,18129
207.397987842,4,2,-64,-17,37,-13,-25,31,-24,-130,70,-23,-21,44,173,0,0,0,131,98,228,148,1,18130
207.42513585,4,2,-64,-26,14,-25,-21,26,-19,-140,-183,168,-19,31,170,0,0,0,128,92,214,172,1,18131
207.434046983,4,2,-64,-25,16,-29,-25,15,-27,84,107,168,-14,35,178,0,0,0,137,80,202,188,1,18132
207.443241834,4,1,-64,-16,7,-12,-21,12,-21,81,-23,-20,-7,25,176,0,0,0,131,99,198,178,1,18133
207.452966928,4,1,-64,-10,19,-1,-13,13,-6,86,-176,90,-5,28,178,0,0,0,126,113,198,169,1,18134
207.480132818,4,1,-64,-17,11,-12,-14,15,-6,-202,55,168,-9,29,178,0,0,0,129,101,206,171,1,18135
207.489321947,4,1,-65,2,0,-16,-7,6,-14,-127,-147,62,-5,30,175,0,0,0,115,112,189,191,1,18136
207.499003887,4,1,-65,-14,-17,7,-5,-8,-4,30,-37,93,1,20,167,0,0,0,127,119,161,199,1,18137
207.507992029,4,1,-65,-3,-30,-2,-8,-23,2,-182,-72,-87,2,14,155,0,0,0,130,107,150,219,1,18138
207.535024881,4,1,-65,-9,-21,-1,-6,-25,-1,179,16,96,5,15,163,0,0,0,123,115,158,209,1,18139
207.544917821,4,0,-65,-8,-28,22,-8,-25,10,68,71,116,13,19,164,0,0,0,139,118,152,197,1,18140
207.554049968,4,0,-64,16,-24,11,4,-26,16,-102,-245,51,14,16,165,0,0,0,109,139,153,205,1,18141
207.56328392,4,0,-64,-6,-12,30,5,-18,20,-66,169,74,6,21,161,0,0,0,126,138,161,181,1,18142
207.590996027,4,0,-64,8,-5,7,1,-9,18,-150,-234,191,2,12,155,0,0,0,125,120,180,180,1,18143
207.599936008,4,1,-64,10,18,23,9,6,15,63,77,129,2,14,166,0,0,0,114,145,193,154,1,18144
207.609082937,4,1,-64,15,4,22,13,11,22,-6,-17,142,-1,3,172,0,0,0,113,144,191,158,1,18145
207.618500947,4,1,-64,23,20,25,19,12,23,-126,-2,224,-6,-6,180,0,0,0,106,154,187,159,1,18146
207.646075964,4,1,-64,4,22,24,13,21,25,126,80,196,-6,-10,183,0,0,0,122,139,201,145,1,18147
207.655251979,4,1,-63,12,22,26,8,22,25,-118,-182,1,-10,-21,184,0,0,0,127,135,195,149,1,18148
207.664254903,4,1,-63,-1,38,40,5,30,33,88,116,173,-10,-14,191,0,0,0,134,139,203,130,1,18149
207.672996997,4,1,-63,8,19,44,3,28,42,144,7,13,-3,-15,204,0,0,0,137,140,192,138,1,18150
207.701092004,3,1,-63,12,38,35,10,28,39,-60,146,82,-2,-12,209,0,0,0,119,151,197,140,1,18151
207.710286855,3,2,-62,-4,34,30,3,36,33,35,-119,65,9,-8,209,0,0,0,135,131,212,128,1,18152
207.719144821,3,2,-62,-1,23,35,-3,28,33,18,-239,178,5,-18,207,0,0,0,144,125,190,146,1,18153
207.728114843,3,2,-62,-9,28,43,-5,25,39,-13,-46,166,3,-30,209,0,0,0,146,131,187,142,1,18154
207.756088018,2,2,-61,-9,13,32,-9,20,38,-20,-110,138,-4,-28,215,0,0,0,147,121,185,152,1,18155
207.765983819,2,2,-61,-12,2,43,-11,8,37,-124,224,82,-4,-23,224,0,0,0,150,126,163,167,1,18156
207.774044036,2,2,-60,-16,7,51,-14,5,47,208,212,222,6,-21,234,0,0,0,158,125,165,158,1,18157
207.783061027,1,2,-60,-10,3,24,-13,5,37,-141,230,76,3,-8,225,0,0,0,143,120,179,165,1,18158
207.811098814,1,2,-60,-21,-1,37,-15,1,30,210,178,208,16,-2,223,0,0,0,154,120,165,168,1,18159
207.819993972,1,2,-59,-14,-19,30,-17,-10,33,175,-246,81,26,-8,229,0,0,0,152,115,151,188,1,18160
207.829074859,0,2,-59,-23,-13,43,-18,-16,36,247,-48,92,33,-13,221,0,0,0,158,120,145,184,1,18161
207.839053869,0,2,-59,-11,-17,40,-17,-15,41,-32,114,232,31,-9,224,0,0,0,154,122,152,178,1,18162
207.866082906,0,2,-59,-14,-9,39,-12,-13,39,41,99,107,28,0,227,0,0,0,146,129,155,175,1,18163
207.875212907,0,2,-58,-5,-19,37,-10,-14,38,68,-117,242,30,3,229,0,0,0,144,130,153,179,1,18164
207.88514781,0,2,-58,3,-14,39,-1,-16,38,-142,19,195,19,4,227,0,0,0,131,144,148,183,1,18165
207.894019842,0,2,-58,-9,0,45,-3,-7,42,173,-243,237,25,-2,239,0,0,0,145,136,163,161,1,18166
207.921247959,0,2,-58,4,-18,46,-2,-9,46,-224,29,-32,12,-7,233,0,0,0,144,139,152,172,1,18167
207.935448884,0,2,-57,5,6,41,4,-6,44,246,194,36,16,8,233,0,0,0,128,150,162,166,1,18168
207.940012931,0,2,-56,6,-15,38,6,-4,39,-21,-100,70,18,9,234,0,0,0,131,144,163,167,1,18169
207.948983907,0,2,-56,11,0,44,8,-7,41,-81,208,124,20,6,251,0,0,0,130,152,153,171,1,18170
207.976172924,0,2,-56,11,-5,47,11,-2,46,-136,164,225,20,15,252,0,0,0,129,155,164,158,1,18171
207.986039876,0,2,-55,12,4,25,12,0,36,-78,-10,226,16,6,4,0,0,0,121,145,172,167,1,18172
207.995038032,1,2,-55,0,8,39,6,6,32,25,83,3,14,8,11,0,0,0,138,140,177,152,1,18173
208.004019022,1,2,-55,12,3,39,6,5,39,135,-237,-128,15,7,255,0,0,0,134,145,170,158,1,18174
208.031973838,1,2,-55,0,4,54,6,4,47,34,238,139,21,11,254,0,0,0,140,151,161,154,1,18175
208.041033983,1,2,-54,9,11,34,5,7,44,240,177,217,31,20,2,0,0,0,133,141,177,154,1,18176
208.050032854,1,3,-54,-2,9,56,3,10,45,144,6,242,27,27,6,0,0,0,143,149,170,144,1,18177
208.058967828,1,3,-54,14,4,36,6,6,46,135,115,27,35,38,15,0,0,0,131,146,169,160,1,18178
208.086982011,1,3,-53,-1,17,68,6,10,52,23,92,53,31,40,14,0,0,0,146,158,166,137,1,18179
208.09601593,1,3,-52,4,0,31,1,9,50,83,-61,24,31,24,12,0,0,0,140,134,175,158,1,18180
208.105479955,2,3,-52,0,19,38,2,10,35,-13,112,136,27,33,14,0,0,0,137,142,174,152,1,18181
208.114166975,2,3,-52,-10,7,21,-5,13,30,33,-92,26,30,14,6,0,0,0,144,123,186,153,1,18182
208.14199686,2,4,-52,-4,13,32,-7,10,27,-137,-44,161,30,12,5,0,0,0,147,129,174,156,1,18183
208.151095867,1,4,-51,-17,6,42,-10,10,37,77,-89,111,37,1,5,0,0,0,155,129,171,151,1,18184
208.160085916,1,4,-51,-2,4,32,-9,5,37,-29,-131,74,36,0,253,0,0,0,146,129,168,163,1,18185
208.169487953,1,4,-51,-25,-4,44,-14,0,38,242,4,144,46,5,251,0,0,0,160,126,157,163,1,18186
208.197136878,1,4,-51,-4,9,37,-14,2,40,152,113,197,46,12,245,0,0,0,155,125,168,157,1,18187
208.206157922,1,5,-50,-20,-3,50,-12,2,44,230,127,182,55,20,243,0,0,0,156,136,161,154,1,18188
208.215085983,1,5,-49,-16,-8,25,-18,-5,38,151,236,-117,57,17,229,0,0,0,158,113,156,179,1,18189
208.224831819,1,5,-49,-18,0,31,-17,-4,28,203,-224,-135,58,11,219,0,0,0,154,123,163,166,1,18190
208.252100944,1,5,-49,-7,-18,25,-13,-9,28,39,32,-175,60,2,206,0,0,0,145,127,154,179,1,18191
208.261044979,1,5,-48,-9,-5,36,-8,-11,31,-36,76,148,52,6,202,0,0,0,145,136,150,175,1,18192
208.270929813,1,5,-48,-15,-29,37,-12,-17,36,-62,-59,-142,50,5,194,0,0,0,157,125,143,182,1,18193
208.280025005,1,6,-48,2,-17,26,-6,-23,31,179,136,232,55,16,195,0,0,0,138,135,140,193,1,18194
208.307174921,1,6,-48,2,-18,34,2,-17,30,-65,-147,163,60,15,196,0,0,0,130,150,151,175,1,18195
208.317193985,1,6,-47,9,-20,29,6,-19,31,153,-25,165,67,2,204,0,0,0,129,147,146,184,1,18196
208.326138973,1,6,-47,13,-9,33,11,-15,31,17,-1,87,63,-2,201,0,0,0,124,155,154,173,1,18197
208.335129976,1,6,-47,8,0,32,11,-4,33,-102,-92,169,64,-17,203,0,0,0,130,150,169,158,1,18198
208.363037824,1,7,-47,2,-22,30,5,-11,31,33,53,189,59,-20,203,0,0,0,138,139,149,179,1,18199
208.372073888,1,7,-46,12,12,42,7,-4,36,-112,96,23,52,-11,208,0,0,0,135,152,161,158,1,18200
208.381012916,1,7,-46,8,-14,47,10,-1,44,93,-9,155,48,-4,209,0,0,0,134,158,161,154,1,18201
208.390170812,1,7,-46,3,2,44,5,-5,45,-187,184,214,44,3,209,0,0,0,143,146,149,167,1,18202
208.418112993,1,7,-46,10,11,19,6,6,31,-90,78,165,41,3,217,0,0,0,127,143,186,150,1,18203
208.427117824,1,8,-45,-4,2,36,2,6,27,-59,32,156,31,13,215,0,0,0,142,141,168,154,1,18204
208.436286926,1,8,-45,-1,12,18,-3,7,27,130,136,43,45,9,217,0,0,0,143,126,177,160,1,18205
208.446012973,1,8,-45,2,4,14,0,8,16,-17,-175,31,33,11,218,0,0,0,130,137,179,160,1,18206
208.473105907,1,8,-45,-6,2,21,-1,3,18,230,-125,137,45,7,229,0,0,0,140,132,167,167,1,18207
208.482416868,1,8,-44,-3,2,20,-5,2,21,171,-170,253,43,-7,228,0,0,0,143,128,169,165,1,18208
208.492420911,1,8,-44,-12,3,31,-8,2,26,99,-75,1,46,-7,226,0,0,0,151,130,167,159,1,18209
208.500937938,1,8,-44,-8,-2,21,-10,0,26,115,184,109,57,-7,220,0,0,0,149,124,166,167,1,18210
208.528182983,0,8,-44,-19,8,42,-14,2,32,-81,171,112,59,-7,223,0,0,0,161,129,164,152,1,18211
208.538013935,0,8,-43,-17,-8,33,-18,0,38,-40,-13,-56,59,-1,210,0,0,0,163,120,160,163,1,18212
208.54707694,0,9,-43,-22,4,28,-20,-2,31,-249,129,68,53,6,211,0,0,0,160,118,161,167,1,18213
208.555951833,0,9,-43,-13,-10,9,-18,-3,19,-37,-230,-101,48,6,212,0,0,0,148,116,168,174,1,18214
208.583961963,0,9,-43,-11,-14,18,-12,-12,13,-84,33,90,45,7,204,0,0,0,143,128,149,186,1,18215
208.593050003,0,9,-43,-9,-15,10,-10,-15,14,-172,-230,168,35,-2,203,0,0,0,141,124,155,186,1,18216
208.602147817,0,9,-43,-13,-27,11,-11,-21,11,164,-79,139,35,-11,207,0,0,0,145,121,145,195,1,18217
208.611121892,0,8,-43,0,-22,23,-6,-24,17,-235,174,7,26,-16,207,0,0,0,140,135,140,190,1,18218
208.639072895,0,8,-42,-10,-8,33,-4,-15,28,8,-106,206,26,-21,210,0,0,0,145,139,155,167,1,18219
208.64804697,0,8,-42,0,-23,32,-5,-15,32,-112,-26,165,15,-13,214,0,0,0,146,136,147,176,1,18220
208.657167911,0,8,-42,-6,-4,29,-3,-14,30,83,162,238,23,-6,216,0,0,0,142,139,152,174,1,18221
208.667004823,0,8,-41,-1,-21,21,-4,-13,25,-2,-166,125,16,-1,219,0,0,0,142,133,155,176,1,18222
208.697707891,0,7,-41,-1,-18,22,-1,-20,21,41,38,190,27,13,220,0,0,0,138,138,141,189,1,18223
208.703172922,0,7,-41,-3,-16,25,-2,-17,23,-136,-66,128,15,20,214,0,0,0,142,136,150,178,1,18224
208.713028907,0,7,-41,-5,-8,28,-4,-12,26,192,10,151,21,30,216,0,0,0,146,135,156,169,1,18225
208.722225904,0,7,-41,1,-7,19,-1,-7,24,-117,85,187,12,32,210,0,0,0,137,137,163,168,1,18226
208.749156951,0,7,-41,0,0,15,0,-3,17,-206,83,-134,3,25,202,0,0,0,133,138,169,166,1,18227
208.75909686,0,7,-40,-3,4,27,-2,2,21,111,-33,128,0,21,201,0,0,0,144,136,171,155,1,18228
208.768075943,0,6,-40,9,8,8,2,6,17,-225,-240,152,-9,9,207,0,0,0,125,139,180,161,1,18229
208.776983976,0,6,-40,-4,-5,24,2,1,16,115,-216,115,-4,9,220,0,0,0,138,141,162,166,1,18230
208.803973913,0,6,-40,5,-1,7,0,-3,15,-149,-56,172,-9,7,229,0,0,0,134,131,165,177,1,18231
208.814126014,0,6,-39,-6,3,35,0,1,21,247,19,-14,-2,5,225,0,0,0,145,142,165,154,1,18232
208.823092937,0,5,-39,11,4,19,2,3,27,21,14,30,0,14,229,0,0,0,132,142,172,159,1,18233
208.832224845,0,5,-39,-8,13,17,1,8,18,28,41,121,-4,18,226,0,0,0,136,138,180,152,1,18234
208.860023021,0,5,-39,6,4,0,0,9,9,222,141,114,2,25,219,0,0,0,133,127,183,164,1,18235
208.869061946,1,5,-39,2,17,23,4,11,11,16,-126,187,0,29,219,0,0,0,131,148,177,151,1,18236
208.87803483,1,5,-39,-3,-1,2,0,8,13,-63,-143,113,-2,19,213,0,0,0,135,126,179,166,1,18237
208.887153863,1,5,-39,-1,-2,8,-2,-1,5,-46,-1,227,-1,21,215,0,0,0,137,130,160,179,1,18238
208.915092945,1,5,-39,-5,-10,5,-3,-6,7,63,-157,207,0,9,222,0,0,0,136,128,161,180,1,18239
208.924073934,1,4,-39,1,-16,17,-2,-13,11,-160,37,129,-1,8,218,0,0,0,138,136,148,184,1,18240
208.933012008,1,4,-39,-3,-18,18,0,-17,18,179,155,167,0,12,225,0,0,0,137,137,146,185,1,18241
208.945403814,1,4,-38,10,-3,17,3,-11,18,-65,189,240,3,12,219,0,0,0,130,144,162,170,1,18242
208.970096826,1,4,-38,-6,-22,10,1,-13,14,57,166,1,7,14,215,0,0,0,134,134,155,182,1,18243
208.979116916,1,3,-38,-1,-15,-2,-4,-18,4,-126,91,85,5,16,213,0,0,0,138,120,152,196,1,18244
208.988276004,1,3,-38,-3,-20,-16,-2,-17,-9,-86,-60,139,0,4,215,0,0,0,124,123,164,195,1,18245
208.997195959,1,3,-38,-13,-32,-14,-8,-26,-15,102,-67,118,9,7,211,0,0,0,137,112,147,211,1,18246
209.025254964,1,3,-38,6,-30,0,-3,-31,-7,-10,-15,176,3,3,212,0,0,0,129,131,139,207,1,18247
209.034940958,1,2,-39,-16,-30,-12,-5,-30,-6,68,-11,168,7,7,210,0,0,0,132,119,150,205,1,18248
209.043021917,1,2,-39,-3,-20,1,-10,-25,-5,-135,-127,-71,-4,0,208,0,0,0,145,117,153,191,1,18249
209.052958011,1,2,-39,-19,-13,1,-11,-16,1,98,219,152,-11,1,216,0,0,0,142,119,164,181,1,18250
209.079952955,1,1,-39,-3,-12,-6,-11,-13,-2,-179,-165,38,-14,-7,208,0,0,0,139,116,167,184,1,18251
209.089094877,1,1,-39,-5,13,-20,-4,0,-13,156,-18,61,-9,-13,210,0,0,0,120,123,194,169,1,18252
209.098960876,0,1,-39,-8,9,-12,-7,11,-16,114,184,44,0,-18,203,0,0,0,134,116,199,157,1,18253
209.108148813,0,1,-39,-1,23,-17,-5,16,-15,165,-242,75,4,-19,208,0,0,0,126,119,201,160,1,18254
209.135221958,0,1,-39,-11,24,2,-6,24,-7,103,189,194,9,-21,217,0,0,0,139,123,202,142,1,18255
209.145017862,0,2,-39,12,24,-9,0,24,-3,-136,-62,87,10,-23,215,0,0,0,120,133,201,152,1,18256
209.154011964,0,2,-39,0,26,-5,6,25,-7,-127,72,87,3,-7,214,0,0,0,116,139,202,149,1,18257
209.163093805,0,2,-39,17,9,-24,9,18,-15,-153,-235,-136,5,-17,204,0,0,0,109,131,195,171,1,18258
209.190954923,0,2,-39,14,3,-10,16,6,-17,-55,-56,164,3,-16,196,0,0,0,105,146,175,180,1,18259
209.200117826,0,2,-39,9,-9,-5,11,-3,-8,-3,-164,225,6,-19,198,0,0,0,120,135,166,186,1,18260
209.209061861,0,2,-40,9,-19,-24,9,-14,-14,139,-246,248,7,-36,191,0,0,0,113,127,160,206,1,18261
209.217976808,0,2,-40,1,5,-3,5,-6,-13,53,116,26,15,-29,195,0,0,0,126,131,175,174,1,18262
209.24595499,0,2,-40,20,-12,-12,11,-3,-7,195,84,199,13,-34,196,0,0,0,109,140,179,178,1,18263
209.255136013,0,2,-40,4,1,3,12,-5,-4,-133,-106,22,13,-35,199,0,0,0,118,144,166,178,1,18264
209.263978004,0,2,-40,9,-20,-14,6,-9,-5,181,127,21,12,-38,202,0,0,0,122,125,167,191,1,18265
209.272969007,-1,2,-40,0,-22,-3,4,-21,-9,-67,-16,122,14,-41,201,0,0,0,125,131,146,204,1,18266
209.301092863,-1,2,-40,1,-20,-9,0,-21,-6,82,252,17,27,-37,211,0,0,0,128,123,158,197,1,18267
209.310029983,-1,1,-40,11,-21,1,6,-20,-3,29,135,27,25,-33,215,0,0,0,120,141,154,192,1,18268
209.319023847,-1,2,-40,-5,-4,8,2,-13,5,51,10,122,32,-20,221,0,0,0,133,132,165,175,1,18269
209.328227996,-1,2,-40,5,-13,0,0,-8,4,-172,104,104,19,-5,220,0,0,0,132,127,169,178,1,18270
209.355979919,-1,2,-40,5,9,-19,5,-1,-9,-40,218,151,21,0,220,0,0,0,112,131,186,176,1,18271
209.365159988,-1,2,-40,-8,18,-10,-1,13,-14,-133,-183,84,12,-4,229,0,0,0,133,118,205,151,1,18272
209.374361991,-1,2,-40,5,12,-4,-1,15,-7,-225,-110,199,6,-7,233,0,0,0,129,126,192,159,1,18273
209.38401699,-1,2,-40,-7,9,-1,0,10,-3,110,-68,123,8,-22,233,0,0,0,129,128,182,167,1,18274
209.411162853,-1,2,-40,12,33,-5,2,21,-3,35,178,247,3,-21,236,0,0,0,122,132,206,146,1,18275
209.420315027,-1,3,-40,2,15,5,7,24,0,81,-46,238,5,-19,231,0,0,0,121,142,198,144,1,18276
209.42996788,-1,3,-40,24,16,3,13,16,4,124,59,66,16,-2,236,0,0,0,113,148,181,163,1,18277
209.439018011,-1,3,-40,19,0,-3,22,8,0,179,-38,173,21,-2,235,0,0,0,100,156,177,173,1,18278
209.46615386,-1,3,-40,12,-10,0,15,-4,-1,199,-221,-52,25,1,216,0,0,0,119,139,159,189,1,18279
209.475978851,-1,3,-40,25,-14,22,18,-12,11,-32,-223,21,28,-4,213,0,0,0,118,158,148,182,1,18280
209.484951019,-1,3,-40,8,-20,27,16,-17,25,42,-15,-144,31,-15,199,0,0,0,126,154,142,183,1,18281
209.494088888,-1,3,-40,28,-21,20,18,-20,24,65,56,235,34,-25,205,0,0,0,119,157,144,187,1,18282
209.521234989,-1,3,-40,11,-22,18,19,-21,19,129,86,156,36,-27,209,0,0,0,117,157,145,187,1,18283
209.530931949,-1,3,-39,20,-31,24,15,-27,21,196,-239,15,51,-41,207,0,0,0,128,151,134,193,1,18284
209.539981842,-1,3,-39,7,-22,40,14,-27,32,-170,97,241,48,-25,203,0,0,0,134,157,132,183,1,18285
209.549008846,-1,3,-39,12,-26,14,10,-24,27,253,-129,-86,46,-32,198,0,0,0,129,142,147,188,1,18286
209.576968908,-1,3,-39,-9,-21,44,1,-24,29,-124,200,-73,43,-21,186,0,0,0,153,142,134,177,1,18287
209.586381912,-1,3,-38,0,-17,37,-4,-19,41,-18,-86,-35,34,-29,180,0,0,0,154,135,144,172,1,18288
209.595338821,-2,3,-38,-14,-10,47,-7,-14,42,-61,-251,229,43,-26,188,0,0,0,158,140,146,163,1,18289
209.604283809,-2,3,-38,0,-1,48,-7,-5,48,-9,-104,-140,40,-40,174,0,0,0,158,142,155,151,1,18290
209.632059812,-2,4,-37,-10,3,50,-5,1,49,42,-8,-215,45,-36,168,0,0,0,154,147,160,145,1,18291
209.640995979,-3,4,-36,-18,1,63,-14,2,56,71,-197,116,43,-34,169,0,0,0,177,134,152,143,1,18292
209.651396036,-3,4,-36,-11,2,55,-15,1,59,81,-218,9,42,-44,168,0,0,0,167,138,152,149,1,18293
209.658998012,-3,5,-36,-12,-18,73,-11,-8,64,-203,-188,-80,33,-43,164,0,0,0,169,152,127,158,1,18294
209.686980009,-4,5,-35,-5,-4,64,-8,-11,69,168,-41,215,35,-49,165,0,0,0,163,151,133,159,1,18295
209.696206808,-4,5,-34,-18,-20,84,-11,-12,74,-104,-24,45,36,-41,170,0,0,0,179,151,126,150,1,18296
209.705430984,-5,5,-33,-6,-5,83,-12,-13,84,-18,202,230,32,-45,174,0,0,0,177,152,126,151,1,18297
209.713996887,-5,5,-33,-29,-5,96,-17,-5,90,-38,-188,36,35,-43,178,0,0,0,192,150,134,131,1,18298
209.742053031,-5,5,-33,-28,3,90,-28,-1,93,-9,-87,129,36,-44,177,0,0,0,205,132,138,131,1,18299
209.751039028,-6,5,-30,-32,7,116,-30,5,103,-42,-40,87,41,-47,174,0,0,0,209,149,135,113,1,18300
209.760063886,-7,6,-30,-39,13,111,-36,10,114,-74,-17,36,36,-42,169,0,0,0,216,138,141,111,1,18301
209.769965887,-7,6,-29,-29,7,128,-34,10,120,227,-69,54,40,-46,169,0,0,0,216,153,129,107,1,18302
209.797163009,-7,6,-29,-32,22,142,-30,15,135,-162,138,88,32,-45,173,0,0,0,217,164,131,94,1,18303
209.8063519,-8,7,-26,-24,23,155,-28,22,148,133,82,219,38,-40,172,0,0,0,221,171,136,78,1,18304
209.815907955,-8,7,-25,-45,34,163,-34,29,159,94,-55,113,36,-45,174,0,0,0,238,161,137,70,1,18305
209.824949026,-9,7,-24,-25,28,151,-35,31,157,81,196,237,46,-33,183,0,0,0,230,162,139,74,1,18306
209.85215497,-9,8,-24,-21,26,141,-23,27,146,115,40,131,41,-38,186,0,0,0,205,180,134,87,1,18307
209.861896038,-9,8,-20,-14,41,155,-18,34,148,-18,207,235,39,-30,191,0,0,0,211,185,143,67,1,18308
209.870937824,-9,9,-20,-16,36,153,-15,39,154,-172,13,-50,34,-37,180,0,0,0,210,185,148,64,1,18309
209.879978895,-9,9,-19,-34,55,156,-25,46,154,244,196,61,44,-34,173,0,0,0,232,168,153,52,1,18310
209.908017873,-10,9,-19,-2,31,162,-18,43,159,-137,-196,-251,35,-45,163,0,0,0,215,191,140,61,1,18311
209.916976928,-10,10,-15,-34,51,180,-18,41,171,148,-45,39,42,-41,162,0,0,0,228,192,132,54,1,18312
209.925990819,-10,10,-14,-9,26,161,-22,38,170,-177,-219,-66,37,-50,155,0,0,0,226,178,136,65,1,18313
209.93522191,-11,11,-14,-7,45,139,-8,35,150,-245,151,-47,28,-39,144,0,0,0,193,198,139,75,1,18314
209.963039875,-11,11,-13,-27,26,163,-17,36,151,-19,-107,135,27,-46,142,0,0,0,229,181,133,62,1,18315
209.972168922,-11,11,-9,-8,37,170,-17,32,166,-91,36,40,23,-44,137,0,0,0,226,191,123,67,1,18316
209.981261014,-12,11,-9,-16,6,162,-12,21,166,58,114,-94,15,-49,126,0,0,0,212,198,111,84,1,18317
209.990065813,-12,11,-8,9,15,159,-3,11,160,83,232,172,12,-35,126,0,0,0,201,210,99,95,1,18318
210.018093824,-12,11,-7,-1,-10,142,4,2,151,-44,-216,109,6,-35,143,0,0,0,190,209,100,107,1,18319
210.027000904,-12,10,-4,21,-19,140,9,-14,141,-86,-99,33,5,-32,150,0,0,0,184,213,77,132,1,18320
210.036199808,-12,10,-4,20,-7,130,21,-13,135,-12,3,89,-2,-19,162,0,0,0,165,224,97,120,1,18321
210.046025991,-11,10,-3,14,-32,130,17,-20,130,-139,16,107,-14,-14,152,0,0,0,183,210,83,130,1,18322
210.072312831,-11,9,-3,6,-15,121,10,-23,126,15,98,76,-16,-13,150,0,0,0,189,197,85,135,1,18323
210.082865953,-11,8,0,18,-35,104,12,-25,112,24,-74,132,-21,-15,147,0,0,0,173,199,93,141,1,18324
210.091080904,-10,7,0,31,-30,120,24,-32,112,47,-87,8,-15,-26,141,0,0,0,159,226,74,147,1,18325
210.09999895,-10,7,0,11,-41,96,21,-36,108,124,-42,106,-19,-24,146,0,0,0,167,201,82,155,1,18326
210.126967906,-10,6,0,7,-36,101,9,-39,99,-53,-81,52,-23,-31,149,0,0,0,188,185,77,156,1,18327
210.137020826,-10,5,2,6,-28,93,7,-32,97,191,155,87,-18,-19,159,0,0,0,178,188,95,144,1,18328
210.145922899,-10,5,3,1,-46,71,4,-37,82,110,-28,6,-14,-20,153,0,0,0,172,176,90,168,1,18329
210.155222892,-10,4,3,-7,-12,74,-2,-29,72,-96,39,80,-16,-10,159,0,0,0,185,168,105,147,1,18330
210.18296504,-10,4,3,2,-27,70,-2,-20,72,-7,-64,94,-17,-11,166,0,0,0,177,173,117,139,1,18331
210.192014932,-10,3,5,-12,-28,56,-4,-28,63,118,-221,47,-16,-12,171,0,0,0,176,163,101,166,1,18332
210.20106101,-10,3,5,-19,3,67,-15,-12,61,-49,154,157,-19,-2,175,0,0,0,198,149,131,127,1,18333
210.210075855,-9,2,5,-18,-8,53,-18,-2,60,-114,143,52,-17,5,178,0,0,0,190,149,141,127,1,18334
210.238206863,-9,2,5,-22,5,65,-20,-1,59,90,50,41,-12,7,174,0,0,0,194,154,130,129,1,18335
210.247094869,-9,2,7,-19,13,47,-20,9,56,-149,93,103,-14,10,175,0,0,0,187,147,155,117,1,18336
210.256040811,-9,2,7,-24,-4,44,-21,4,46,69,31,118,-5,6,172,0,0,0,188,144,138,136,1,18337
210.264998912,-9,2,7,-23,7,37,-24,1,41,99,-24,184,-1,10,182,0,0,0,188,138,139,140,1,18338
210.293043851,-8,2,7,-39,13,39,-31,10,38,-97,163,163,-4,23,190,0,0,0,200,129,156,121,1,18339
210.302100896,-8,2,8,-14,2,26,-26,7,33,193,-28,184,1,29,192,0,0,0,181,137,150,138,1,18340
210.311178922,-8,2,8,-27,20,31,-21,11,28,-157,230,161,0,36,195,0,0,0,177,145,156,128,1,18341
210.321003913,-7,2,8,3,15,39,-12,18,35,60,-50,181,1,30,192,0,0,0,169,160,162,115,1,18342
210.348062992,-7,2,8,-22,26,31,-9,21,35,-137,-179,168,2,22,188,0,0,0,169,154,165,118,1,18343
210.357070922,-7,2,9,1,15,23,-10,21,27,193,232,222,4,25,194,0,0,0,170,147,166,124,1,18344
210.366096973,-6,2,9,-13,16,38,-6,15,31,104,-79,111,4,25,194,0,0,0,166,162,150,127,1,18345
210.37590599,-6,2,9,6,17,20,-3,17,29,70,13,49,-2,20,183,0,0,0,158,157,163,128,1,18346
210.402980804,-6,2,9,-13,-6,23,-3,5,21,191,-56,91,0,18,176,0,0,0,162,156,141,148,1,18347
210.412307977,-5,2,10,17,0,17,2,-3,20,-82,134,138,-2,16,173,0,0,0,150,163,138,156,1,18348
210.421941041,-5,2,10,2,-11,3,10,-5,10,-56,15,190,0,16,179,0,0,0,135,167,146,158,1,18349
210.431007862,-4,2,10,27,-8,-5,15,-9,0,25,-96,15,-4,2,184,0,0,0,129,166,143,168,1,18350
210.458068847,-4,2,10,8,-19,9,18,-14,2,-5,-127,211,5,4,196,0,0,0,133,173,134,166,1,18351
210.468034982,-4,1,10,26,-18,-4,17,-19,2,-16,-97,216,0,3,194,0,0,0,132,164,134,177,1,18352
210.477025985,-3,1,10,7,-30,4,16,-24,0,-5,0,237,11,15,202,0,0,0,136,166,125,178,1,18353
210.486033916,-3,1,10,24,-16,0,15,-23,2,-166,-10,-41,13,10,202,0,0,0,136,164,133,174,1,18354
210.513944864,-3,1,10,0,-19,0,12,-17,0,188,-255,-158,18,7,194,0,0,0,141,158,142,165,1,18355
210.523221015,-3,1,10,14,-22,-7,7,-20,-3,-146,-139,21,17,-3,194,0,0,0,144,149,135,178,1,18356
210.531987905,-2,1,10,-3,-14,-10,5,-18,-9,-115,-132,-18,13,-9,189,0,0,0,142,149,143,172,1,18357
210.541174888,-2,1,9,10,-15,-6,3,-15,-8,-63,-21,153,9,-16,189,0,0,0,146,148,145,167,1,18358
210.569109916,-3,1,9,-2,-21,-3,3,-18,-5,218,9,71,15,-10,188,0,0,0,144,152,136,175,1,18359
210.578135967,-3,0,9,-1,-10,-13,-1,-15,-8,-67,107,113,16,-5,184,0,0,0,150,138,147,171,1,18360
210.587014913,-3,1,9,-5,-4,-13,-3,-7,-13,5,149,155,16,-7,179,0,0,0,148,139,160,158,1,18361
210.602155923,-3,1,9,0,-14,-15,-2,-9,-14,118,-155,105,29,-25,179,0,0,0,146,141,150,169,1,18362
210.623992919,-3,1,9,-22,4,-2,-11,-4,-9,37,6,99,30,-20,173,0,0,0,166,130,155,155,1,18363
210.633050918,-3,1,9,0,-2,-25,-11,1,-14,-106,-110,8,20,-21,176,0,0,0,150,128,171,157,1,18364
210.642063856,-3,1,9,-25,9,-12,-13,3,-19,-152,100,53,15,-17,177,0,0,0,159,130,165,153,1,18365
210.651983022,-3,1,9,-10,-6,-21,-18,1,-17,1,157,88,12,-5,183,0,0,0,162,119,162,162,1,18366
210.679219961,-3,2,9,2,13,-23,-4,3,-22,-130,26,187,16,3,193,0,0,0,132,148,169,157,1,18367
210.689496994,-3,2,8,-7,-9,-17,-2,2,-20,-81,-134,239,10,-3,190,0,0,0,144,141,163,159,1,18368
210.69798398,-3,2,8,4,14,-26,-1,2,-21,-28,225,156,0,8,201,0,0,0,139,137,168,161,1,18369
210.707123994,-3,2,8,2,9,-29,3,11,-28,32,-158,46,3,3,206,0,0,0,130,144,186,146,1,18370
210.735031843,-3,2,8,-8,18,-19,-3,14,-24,-31,28,145,-3,12,207,0,0,0,150,132,178,146,1,18371
210.744084835,-3,2,7,-3,4,-26,-5,11,-22,-59,-237,32,-8,12,201,0,0,0,146,130,174,155,1,18372
210.752974033,-3,2,7,-4,8,-20,-3,6,-23,-184,52,186,-11,9,208,0,0,0,142,139,165,159,1,18373
210.762027978,-2,2,7,1,-9,-28,-1,0,-24,-25,-94,195,-9,-2,211,0,0,0,137,138,161,171,1,18374
210.790091037,-2,1,7,11,6,-28,6,-1,-28,-249,-41,191,-24,-4,209,0,0,0,125,150,164,167,1,18375
210.799083948,-2,1,6,6,-12,-25,8,-2,-26,28,-89,140,-19,-9,203,0,0,0,128,149,161,168,1,18376
210.810216903,-2,1,6,13,-7,-35,9,-10,-30,-80,56,7,-23,-8,200,0,0,0,125,144,154,183,1,18377
210.818042039,-2,1,6,1,-16,-31,7,-12,-33,-85,-175,195,-27,-12,194,0,0,0,131,141,155,180,1,18378
210.845266819,-2,0,6,4,-10,-35,3,-13,-33,-155,66,233,-29,-21,190,0,0,0,135,133,156,183,1,18379
210.854156017,-2,0,5,7,-22,-36,6,-16,-35,-113,-140,3,-37,-30,192,0,0,0,125,142,152,187,1,18380
210.863898992,-2,0,5,8,-16,-35,8,-19,-36,109,154,218,-30,-26,199,0,0,0,125,143,149,189,1,18381
210.87404704,-2,0,5,2,-16,-22,5,-16,-29,-34,-77,45,-39,-20,202,0,0,0,136,142,151,177,1,18382
210.900184869,-2,0,5,12,-12,-43,7,-14,-33,134,42,79,-32,-8,207,0,0,0,121,139,161,184,1,18383
210.909978866,-2,-1,4,10,-11,-27,11,-11,-35,-155,216,112,-41,-8,204,0,0,0,122,151,158,175,1,18384
210.919077873,-2,-1,4,2,-9,-48,6,-10,-38,10,63,147,-37,-5,198,0,0,0,126,130,167,183,1,18385
210.928030967,-2,-2,4,17,-2,-44,9,-6,-46,-214,-186,14,-44,-16,197,0,0,0,118,141,172,175,1,18386
210.956106901,-2,-2,4,11,2,-52,14,0,-48,-11,-23,52,-49,-15,196,0,0,0,109,143,182,172,1,18387
210.964949846,-2,-2,3,13,8,-36,12,5,-44,-120,-9,84,-50,-32,195,0,0,0,122,143,180,160,1,18388
210.974109888,-2,-2,2,8,12,-47,11,10,-41,14,-102,99,-42,-41,193,0,0,0,119,137,189,160,1,18389
210.983140945,-2,-3,2,2,5,-36,5,8,-41,9,165,-13,-36,-35,186,0,0,0,132,132,178,163,1,18390
211.010998964,-2,-3,2,7,0,-40,4,2,-38,114,-149,242,-33,-35,186,0,0,0,127,134,172,174,1,18391
211.020313024,-3,-3,1,3,4,-32,5,2,-36,-48,209,164,-33,-21,185,0,0,0,128,139,173,167,1,18392
211.029012918,-3,-3,1,3,-4,-48,3,0,-40,-15,182,222,-40,-16,185,0,0,0,126,129,174,177,1,18393
211.039057016,-3,-3,1,6,12,-31,4,3,-39,101,179,217,-33,-5,198,0,0,0,128,139,177,162,1,18394
211.066118001,-3,-4,1,1,-3,-42,3,4,-36,-184,34,197,-43,1,213,0,0,0,127,132,179,169,1,18395
211.075335979,-2,-4,0,2,6,-38,1,1,-40,-125,86,205,-42,13,224,0,0,0,130,131,172,172,1,18396
211.086447,-2,-4,0,-3,-4,-43,0,1,-41,-209,-177,118,-44,12,240,0,0,0,131,126,176,173,1,18397
211.094074964,-2,-4,0,3,-15,-51,0,-9,-47,173,-33,109,-39,12,245,0,0,0,125,126,160,196,1,18398
211.121289014,-2,-4,0,-4,-5,-43,0,-10,-47,-175,-36,173,-48,4,242,0,0,0,129,128,165,185,1,18399
211.13111782,-2,-5,-1,2,-13,-46,0,-9,-45,236,177,177,-41,6,243,0,0,0,128,126,169,184,1,18400
211.139991998,-2,-5,-1,2,0,-42,2,-6,-44,-59,-196,83,-42,-8,241,0,0,0,123,134,172,177,1,18401
211.149012804,-2,-5,-1,-12,1,-37,-4,1,-40,28,29,146,-45,2,242,0,0,0,141,119,181,165,1,18402
211.181986808,-2,-5,-1,-3,4,-34,-7,3,-36,97,-95,190,-43,-6,245,0,0,0,141,121,177,167,1,18403
211.186101913,-2,-5,-2,-10,14,-40,-6,9,-37,-8,-13,-107,-41,2,235,0,0,0,134,123,189,160,1,18404
211.195075988,-2,-5,-2,3,9,-39,-3,11,-40,184,-41,217,-32,-1,240,0,0,0,129,129,188,160,1,18405
211.205802917,-2,-5,-2,-7,6,-32,-2,7,-35,-39,136,249,-33,-1,237,0,0,0,133,131,176,167,1,18406
211.231941938,-2,-5,-2,-3,17,-31,-5,11,-31,62,-33,249,-28,-9,232,0,0,0,141,123,186,156,1,18407
211.241183996,-2,-5,-3,3,9,-37,0,13,-34,-77,-116,192,-28,-15,238,0,0,0,125,134,188,159,1,18408
211.250073909,-2,-5,-3,-1,17,-18,1,13,-27,166,133,47,-17,-18,235,0,0,0,135,139,179,153,1,18409
211.25998187,-2,-5,-3,11,15,-25,4,16,-22,105,-46,56,-15,-21,229,0,0,0,126,141,188,150,1,18410
211.28696084,-2,-5,-3,-6,-5,-29,2,4,-27,23,95,7,-7,-26,225,0,0,0,132,133,167,175,1,18411
211.29595685,-2,-5,-4,17,8,-35,5,1,-32,66,221,100,-4,-14,233,0,0,0,122,138,172,175,1,18412
211.306032896,-2,-5,-4,-2,-13,-32,7,-2,-33,-225,-62,232,-5,-24,228,0,0,0,123,140,167,177,1,18413
211.314993858,-2,-5,-4,15,-5,-38,6,-9,-35,-50,27,151,-6,-14,233,0,0,0,123,134,161,189,1,18414
211.34218502,-2,-4,-5,14,4,-30,14,0,-34,-143,-243,180,-3,-19,240,0,0,0,110,152,180,164,1,18415
211.352006912,-2,-4,-5,1,-10,-45,7,-2,-38,227,-68,156,1,-25,246,0,0,0,124,126,174,182,1,18416
211.361008882,-2,-4,-6,16,6,-16,9,-2,-31,-4,96,163,-3,-24,250,0,0,0,127,146,166,167,1,18417
211.370136976,-2,-4,-6,7,-3,-23,12,1,-20,117,-64,47,1,-21,247,0,0,0,119,148,174,165,1,18418
211.398101806,-2,-4,-6,9,-10,-22,8,-7,-23,-186,158,-47,0,-19,240,0,0,0,129,139,156,182,1,18419
211.407402992,-2,-4,-6,0,-4,-28,5,-7,-25,26,37,-31,4,-8,232,0,0,0,130,133,165,178,1,18420
211.416014909,-2,-4,-6,5,-12,-26,3,-8,-27,240,31,42,7,-11,228,0,0,0,131,134,162,179,1,18421
211.424995899,-2,-4,-7,0,-3,-18,3,-7,-22,-240,-138,238,2,-13,226,0,0,0,132,138,161,174,1,18422
211.453053951,-2,-4,-7,0,6,-26,0,1,-22,32,181,178,0,-16,229,0,0,0,134,131,182,160,1,18423
211.461952924,-2,-3,-7,2,4,-32,1,5,-29,-158,-127,180,-6,-24,224,0,0,0,128,132,183,164,1,18424
211.471163034,-2,-3,-7,-13,13,-22,-5,9,-27,252,-109,136,-6,-29,224,0,0,0,145,123,181,158,1,18425
211.481637001,-2,-3,-7,-4,-2,-30,-8,5,-26,-99,172,137,-3,-20,227,0,0,0,141,119,176,170,1,18426
211.508178949,-2,-3,-8,-7,4,-30,-6,0,-30,88,-77,135,4,-21,229,0,0,0,134,127,171,175,1,18427
211.517256021,-3,-3,-8,-11,0,-20,-9,2,-25,-45,35,153,6,-7,224,0,0,0,146,122,173,165,1,18428
211.526170969,-3,-3,-8,-8,8,-16,-9,4,-18,-33,244,77,0,7,224,0,0,0,145,126,174,160,1,18429
211.535976886,-3,-3,-8,-3,19,-28,-5,14,-22,104,250,15,-4,9,231,0,0,0,133,129,195,150,1,18430
211.56316781,-2,-2,-8,-5,10,-29,-4,15,-28,-204,105,-130,-12,15,221,0,0,0,134,127,189,157,1,18431
211.574621915,-2,-2,-9,-5,32,-21,-5,21,-25,174,236,191,-7,10,229,0,0,0,140,127,196,143,1,18432
211.582055807,-2,-2,-9,1,11,-37,-1,22,-29,-64,-119,-6,-8,-3,223,0,0,0,126,128,198,154,1,18433
211.591190814,-2,-2,-9,-10,4,-30,-4,7,-33,197,60,-40,-5,-13,210,0,0,0,136,124,170,177,1,18434
211.618194818,-2,-2,-9,6,11,-20,-1,7,-25,-59,-65,48,-2,-22,206,0,0,0,133,133,178,162,1,18435
211.628129005,-2,-2,-10,-16,-3,-16,-4,4,-18,-79,-166,-128,-1,-28,191,0,0,0,142,127,170,167,1,18436
211.645588874,-3,-2,-10,7,5,-19,-4,1,-18,249,62,123,9,-16,192,0,0,0,137,130,169,170,1,18437
211.64893794,-3,-1,-10,6,4,-22,6,4,-21,-172,-8,64,1,-15,184,0,0,0,117,148,179,162,1,18438
211.674283981,-3,-1,-10,5,4,-15,5,4,-18,-128,19,119,2,-1,183,0,0,0,131,140,173,163,1,18439
211.68321681,-2,-1,-10,9,3,-20,7,4,-17,-32,-225,107,-10,-11,187,0,0,0,125,142,174,165,1,18440
211.69211483,-2,-1,-10,2,8,-10,5,5,-15,14,-235,41,-2,-5,186,0,0,0,133,141,174,158,1,18441
211.701090812,-2,-1,-10,0,-4,-16,1,1,-13,-185,-142,61,-7,-10,184,0,0,0,138,131,168,169,1,18442
211.729120016,-2,-1,-11,3,-5,-17,1,-5,-16,59,114,23,-2,-4,186,0,0,0,132,136,159,179,1,18443
211.738067865,-2,-1,-11,1,-3,-12,2,-4,-14,210,-86,242,2,-6,195,0,0,0,133,139,164,170,1,18444
211.747313022,-2,-1,-11,-6,-5,-13,-2,-4,-12,-45,60,107,-2,2,192,0,0,0,143,129,164,171,1,18445
211.760277986,-2,-1,-11,3,5,-19,-1,0,-16,174,74,137,2,0,196,0,0,0,134,132,174,166,1,18446
211.784062862,-2,-1,-11,6,8,-20,4,6,-20,-17,73,72,0,3,192,0,0,0,123,143,183,157,1,18447
211.793265819,-2,-1,-11,-5,19,-9,0,13,-15,249,84,103,8,21,189,0,0,0,140,134,186,146,1,18448
211.803071022,-2,-1,-11,6,14,-22,0,17,-16,-149,-45,212,0,10,187,0,0,0,132,132,191,151,1,18449
211.812022924,-1,0,-12,0,8,-20,3,11,-21,154,-16,39,2,17,193,0,0,0,128,138,177,164,1,18450
211.839311838,-1,0,-12,4,9,-17,2,9,-18,-209,-248,229,-3,8,199,0,0,0,132,135,177,162,1,18451
211.849011898,-1,0,-12,-6,5,-12,0,7,-14,130,-198,175,-2,-1,194,0,0,0,139,132,174,160,1,18452
211.858022928,-1,0,-12,5,10,-9,0,8,-10,164,16,175,7,13,199,0,0,0,137,137,175,157,1,18453
211.867211818,-1,0,-12,-4,18,-6,0,14,-7,53,180,209,10,16,194,0,0,0,136,140,185,145,1,18454
211.89496088,-1,0,-12,5,16,-3,0,17,-4,67,141,151,15,26,187,0,0,0,139,139,183,145,1,18455
211.903993845,0,0,-12,4,17,-24,4,17,-14,-63,-28,65,1,33,178,0,0,0,123,139,189,155,1,18456
211.913105011,0,0,-12,4,22,-14,4,20,-19,197,94,-39,13,33,167,0,0,0,131,138,191,146,1,18457
211.92210102,0,0,-12,4,4,-8,4,13,-11,-52,-139,140,2,25,169,0,0,0,132,142,174,158,1,18458
211.949959993,0,0,-13,-2,2,-14,1,3,-11,231,201,240,12,26,183,0,0,0,136,132,165,173,1,18459
211.95907402,0,0,-13,-7,-3,-16,-5,0,-15,-194,-63,190,7,17,195,0,0,0,144,124,167,172,1,18460
211.968063831,0,0,-13,0,5,-21,-3,1,-19,32,-8,31,8,10,194,0,0,0,134,129,174,169,1,18461
211.977351903,0,0,-13,-2,8,-1,-1,6,-11,85,-77,59,16,11,190,0,0,0,139,140,176,151,1,18462
212.00544691,0,0,-13,-9,4,-9,-6,6,-5,-80,178,63,13,11,181,0,0,0,146,126,174,160,1,18463
212.014317035,0,1,-13,-8,15,-7,-8,10,-8,242,43,55,30,22,178,0,0,0,148,126,179,153,1,18464
212.023054838,0,1,-13,-8,0,-9,-8,7,-8,-81,-150,-10,22,21,174,0,0,0,144,128,172,161,1,18465
212.033653974,0,1,-13,-8,-4,-3,-8,-2,-6,240,81,89,30,25,173,0,0,0,147,130,154,175,1,18466
212.060070037,0,1,-13,-7,-10,4,-8,-7,0,43,0,72,22,27,171,0,0,0,149,135,150,172,1,18467
212.069270849,0,1,-13,-15,-4,-19,-11,-7,-7,184,-5,109,28,13,170,0,0,0,146,118,164,177,1,18468
212.078896999,1,2,-14,-3,-9,-7,-9,-7,-13,62,110,238,31,10,174,0,0,0,144,129,160,172,1,18469
212.088039875,1,2,-14,-6,8,0,-5,0,-3,43,-49,168,29,-3,171,0,0,0,141,139,169,157,1,18470
212.115999937,0,2,-14,-7,1,-2,-7,5,-1,51,-228,216,36,-11,180,0,0,0,147,130,175,153,1,18471
212.125003814,0,2,-14,3,15,-2,-2,8,-2,-89,13,115,29,-11,172,0,0,0,137,141,176,152,1,18472
212.134016037,0,3,-14,1,16,1,2,16,0,57,-64,30,45,-3,173,0,0,0,135,146,185,140,1,18473
212.142954826,0,3,-14,-2,6,0,0,11,0,-105,45,22,37,2,174,0,0,0,143,137,171,155,1,18474
212.171149969,0,3,-14,-9,7,-12,-6,6,-6,167,210,129,43,15,170,0,0,0,145,125,172,164,1,18475
212.180140972,0,4,-14,2,-1,-20,-3,3,-16,-12,1,209,45,20,178,0,0,0,133,130,172,171,1,18476
212.189772844,0,4,-14,-7,16,6,-2,7,-7,129,-87,158,42,3,173,0,0,0,144,141,172,149,1,18477
212.199007988,0,4,-14,11,9,-8,1,12,-1,-90,-127,-27,44,0,171,0,0,0,131,141,184,150,1,18478
212.226004838,0,5,-14,-7,20,10,1,14,0,94,-131,57,49,-9,175,0,0,0,142,146,176,142,1,18479
212.234926939,0,5,-14,18,-1,-10,5,9,0,-40,-16,159,55,-10,177,0,0,0,128,144,173,162,1,18480
212.244098901,0,6,-14,-1,14,9,8,6,0,-216,134,102,43,5,185,0,0,0,133,154,164,155,1,18481
212.253966808,0,6,-14,6,-5,0,2,4,4,-87,85,50,46,10,191,0,0,0,142,137,168,160,1,18482
212.281113863,0,6,-14,8,10,-15,7,2,-8,-162,-4,175,34,7,195,0,0,0,122,145,171,168,1,18483
212.290879964,1,6,-14,5,-1,1,7,4,-6,154,-214,222,32,4,194,0,0,0,134,146,170,156,1,18484
212.299984931,1,6,-14,7,-3,-17,6,-2,-7,-91,217,177,31,2,196,0,0,0,127,139,163,177,1,18485
212.308977842,1,6,-14,-9,-4,-14,0,-3,-15,206,-19,230,32,-6,192,0,0,0,141,127,165,173,1,18486
212.337049007,0,6,-14,2,-5,-19,-3,-5,-17,-156,174,107,29,-4,193,0,0,0,138,126,166,176,1,18487
212.346038818,0,6,-15,-7,-3,2,-2,-4,-8,147,-145,227,26,-16,189,0,0,0,142,139,159,166,1,18488
212.354995012,0,6,-15,4,-10,-13,-1,-6,-5,90,-157,156,32,-12,194,0,0,0,134,134,162,176,1,18489
212.364041805,0,6,-15,0,-5,-11,1,-7,-12,-71,94,2,26,-9,193,0,0,0,131,139,161,176,1,18490
212.392117023,0,6,-15,3,-14,-8,1,-10,-10,108,17,230,34,-3,193,0,0,0,135,136,156,178,1,18491
212.401124,0,6,-15,1,-10,-5,2,-12,-7,-178,-14,143,27,1,193,0,0,0,134,140,153,179,1,18492
212.410063982,0,6,-15,-2,-15,-11,0,-13,-8,230,0,26,28,0,189,0,0,0,138,131,156,180,1,18493
212.41997385,0,6,-15,4,-9,-6,0,-12,-9,-215,-29,80,21,-4,192,0,0,0,135,139,156,177,1,18494
212.44760704,0,6,-15,-5,-2,-3,0,-5,-4,160,149,141,24,-4,198,0,0,0,140,136,166,164,1,18495
212.456295967,0,6,-15,8,-4,-13,1,-3,-8,-3,-216,46,32,-8,204,0,0,0,131,136,169,170,1,18496
212.466711998,0,6,-15,-11,9,0,-1,2,-7,0,-135,232,27,-14,211,0,0,0,143,135,172,156,1,18497
212.475622892,0,6,-15,0,-14,-13,-5,-2,-7,85,174,28,37,0,215,0,0,0,142,126,163,175,1,18498
212.502182006,0,6,-15,3,-1,0,2,-8,-7,110,-3,182,34,-11,213,0,0,0,131,147,153,176,1,18499
212.512064933,0,6,-15,0,-12,-6,2,-6,-3,244,250,107,45,2,211,0,0,0,134,139,162,171,1,18500
212.520970821,0,6,-15,8,4,-6,4,-3,-6,-134,111,194,34,5,209,0,0,0,130,143,166,166,1,18501
212.530217885,0,7,-15,3,10,-12,6,7,-9,168,145,-70,36,10,206,0,0,0,127,141,187,151,1,18502
212.558066844,0,7,-15,3,24,5,3,17,-3,-61,30,61,30,13,205,0,0,0,140,142,188,136,1,18503
212.567008972,0,7,-15,-1,17,-17,0,20,-5,-141,-194,69,21,-5,206,0,0,0,134,131,194,147,1,18504
212.576136827,0,7,-16,5,21,-12,2,19,-14,-213,-12,105,17,-1,215,0,0,0,131,137,187,151,1,18505
212.585037946,0,7,-16,5,-1,-11,5,10,-12,-71,-70,119,10,-18,216,0,0,0,126,143,172,166,1,18506
212.612970829,0,7,-16,7,6,2,6,2,-4,152,-133,106,12,-21,223,0,0,0,133,147,160,166,1,18507
212.622180938,0,7,-16,6,-5,-1,7,0,0,-34,-184,8,0,-19,221,0,0,0,131,146,164,165,1,18508
212.631127834,0,7,-16,0,-8,-2,3,-6,-2,201,100,126,4,-13,218,0,0,0,138,138,153,177,1,18509
212.640942811,0,6,-16,4,6,4,2,0,0,-67,-90,126,-4,-8,217,0,0,0,139,142,167,157,1,18510
212.667941808,0,6,-16,-1,-6,-8,1,0,-2,207,132,189,0,7,216,0,0,0,135,136,170,165,1,18511
212.677179813,0,6,-16,-2,5,-10,-2,0,-9,-178,-71,111,-3,-1,216,0,0,0,140,130,168,168,1,18512
212.689865827,0,6,-16,0,-6,-23,-1,0,-17,206,-11,-60,-5,-6,214,0,0,0,131,129,173,173,1,18513
212.696055889,0,5,-16,-2,-17,-3,-1,-11,-13,-58,59,231,-4,-12,219,0,0,0,139,135,146,185,1,18514
212.722980022,0,5,-16,3,-17,-17,0,-17,-10,-47,-85,106,-10,-26,218,0,0,0,130,134,151,191,1,18515
212.733007907,0,5,-16,-5,-14,-8,0,-16,-12,13,-145,206,-9,-29,218,0,0,0,138,134,154,181,1,18516
212.741978883,0,4,-16,2,-23,-7,-1,-19,-7,-3,52,224,-12,-19,220,0,0,0,138,134,147,187,1,18517
212.751103878,0,4,-16,1,6,5,2,-8,0,81,-2,230,-8,-16,226,0,0,0,136,146,163,161,1,18518
212.779034853,0,4,-16,8,-8,-4,5,0,0,-241,15,-100,-16,-13,216,0,0,0,130,144,172,160,1,18519
212.787883996,0,4,-16,4,6,-14,6,0,-9,108,170,216,-13,4,217,0,0,0,126,140,170,170,1,18520
212.797034025,0,3,-17,5,-11,-3,4,-2,-8,-99,7,57,-10,-5,210,0,0,0,134,141,162,169,1,18521
212.806154012,0,3,-17,8,-8,-11,6,-10,-7,246,70,240,-1,0,208,0,0,0,126,142,154,184,1,18522
212.834148883,0,3,-17,4,-14,-12,6,-11,-11,-133,-204,185,-1,-4,209,0,0,0,128,139,158,181,1,18523
212.843006849,0,3,-17,1,-4,7,2,-9,-2,152,-84,212,-1,0,208,0,0,0,142,141,155,168,1,18524
212.852154016,0,2,-17,2,-4,-3,1,-4,2,192,-21,246,5,-13,210,0,0,0,137,138,167,165,1,18525
212.861114978,0,2,-17,2,8,-4,2,1,-3,16,215,102,1,-1,207,0,0,0,134,140,174,159,1,18526
212.889099836,0,2,-17,3,-3,-10,3,2,-7,116,-235,36,8,-11,211,0,0,0,131,138,172,165,1,18527
212.898058891,0,2,-17,-3,6,-1,0,1,-5,-74,66,42,2,0,213,0,0,0,141,135,166,164,1,18528
212.907932996,0,2,-17,-3,-2,-6,-3,1,-4,108,-242,202,2,-1,214,0,0,0,142,130,170,164,1,18529
212.917186021,0,2,-17,4,5,-1,0,1,-3,206,29,67,9,3,216,0,0,0,134,142,167,163,1,18530
212.944290876,0,2,-17,14,11,-5,9,8,-3,56,-125,168,8,0,214,0,0,0,120,153,182,151,1,18531
212.954035997,0,2,-17,-3,-3,-17,5,4,-11,1,218,59,19,5,212,0,0,0,130,133,173,170,1,18532
212.96304202,0,2,-17,5,13,-7,0,5,-12,-139,244,226,10,5,211,0,0,0,138,132,174,161,1,18533
212.972040891,0,2,-17,-4,1,-14,0,7,-11,-53,-177,-21,14,1,202,0,0,0,133,132,180,161,1,18534
212.999908924,0,3,-17,7,-1,-2,1,0,-8,113,123,145,13,0,196,0,0,0,135,140,160,171,1,18535
213.009083986,0,2,-18,1,-4,-24,4,-2,-13,-220,-146,59,7,-3,190,0,0,0,122,136,170,179,1,18536
213.017848968,0,2,-18,-1,-12,-14,0,-8,-19,116,-93,114,10,-2,193,0,0,0,137,128,158,183,1,18537
213.027318,0,2,-18,15,-17,-13,6,-14,-13,-20,-100,65,1,-16,188,0,0,0,121,145,152,189,1,18538
213.05508399,0,2,-18,-2,5,6,6,-5,-3,-26,84,6,-1,-7,183,0,0,0,135,146,165,160,1,18539
213.063920974,0,2,-18,8,-27,-22,2,-10,-8,-48,-160,217,-9,-17,180,0,0,0,130,129,160,188,1,18540
213.072973966,0,2,-18,0,3,-12,4,-11,-17,27,120,138,-5,-11,185,0,0,0,128,139,159,181,1,18541
213.082391023,0,2,-18,9,-12,-12,5,-4,-12,-43,-84,55,-10,-23,194,0,0,0,128,138,173,167,1,18542
213.110033988,0,1,-18,-12,-20,-13,-1,-16,-12,60,249,6,-1,-24,193,0,0,0,139,126,145,195,1,18543
213.119462966,-1,1,-18,7,-7,-7,-2,-13,-10,248,-67,44,8,-21,198,0,0,0,138,132,158,178,1,18544
213.128067016,-1,1,-18,12,-17,-21,10,-12,-14,-97,-242,-77,11,-26,188,0,0,0,110,149,164,183,1,18545
213.13813591,-1,1,-18,-11,-12,5,0,-14,-7,230,2,62,19,-18,193,0,0,0,148,133,147,178,1,18546
213.165143966,-1,1,-18,10,-5,-5,0,-8,0,-66,86,130,7,-13,187,0,0,0,137,135,165,170,1,18547
213.174149036,-1,1,-18,2,-2,4,6,-4,0,87,-21,173,16,-9,197,0,0,0,128,152,164,162,1,18548
213.183256864,-1,1,-18,5,-12,-4,3,-7,0,-150,-85,33,7,-20,201,0,0,0,135,137,157,177,1,18549
213.192948818,-1,1,-18,1,-4,8,3,-8,1,76,11,72,17,-11,206,0,0,0,139,144,153,170,1,18550
213.219956874,-1,1,-18,5,-16,-12,3,-10,-2,28,-213,121,19,-26,211,0,0,0,129,137,159,181,1,18551
213.229177951,-1,1,-18,11,1,3,8,-7,-4,-85,48,181,15,-16,213,0,0,0,127,151,160,168,1,18552
213.239012002,-1,1,-18,0,2,0,5,2,1,77,106,105,12,-7,217,0,0,0,135,140,176,154,1,18553
213.247979879,-1,1,-18,6,16,-11,3,9,-5,-69,-92,-45,5,-11,210,0,0,0,132,134,186,154,1,18554
213.27511692,-1,1,-19,3,10,-20,5,13,-16,-14,-221,115,6,-8,210,0,0,0,123,136,190,157,1,18555
213.284996032,-1,2,-19,11,20,-5,7,15,-12,37,-75,91,7,-6,214,0,0,0,126,145,185,150,1,18556
213.294068813,-1,2,-19,6,13,-9,8,16,-7,-151,-123,143,3,-17,212,0,0,0,125,143,187,151,1,18557
213.303081035,-1,2,-19,4,-1,-6,5,5,-8,220,-66,88,7,-18,215,0,0,0,132,137,165,171,1,18558
213.331097841,-1,2,-19,14,-2,-9,9,-2,-8,-157,63,156,9,-17,221,0,0,0,122,146,161,177,1,18559
213.340155839,-1,2,-19,0,-8,0,6,-5,-4,111,181,98,15,-17,212,0,0,0,134,141,158,173,1,18560
213.349030017,-1,2,-19,6,-16,-25,2,-12,-12,-29,44,248,10,-16,216,0,0,0,128,127,159,192,1,18561
213.358014822,-1,2,-19,6,15,-21,6,0,-23,10,150,177,5,-14,221,0,0,0,120,138,184,164,1,18562
213.385969877,-1,2,-19,-2,-3,-15,2,5,-18,13,-114,167,8,-18,214,0,0,0,133,129,184,160,1,18563
213.395166873,-1,2,-20,11,6,-11,4,1,-13,-58,52,212,3,-15,214,0,0,0,127,138,169,171,1,18564
213.404175996,-1,2,-20,1,0,-6,6,3,-9,141,-151,239,2,-12,214,0,0,0,127,143,174,162,1,18565
213.413159847,-1,2,-20,8,-12,-13,4,-5,-10,27,-101,-83,2,-26,210,0,0,0,128,135,158,184,1,18566
213.441185951,-1,1,-20,-1,-9,-2,3,-11,-8,-64,-36,221,-2,-21,208,0,0,0,135,138,153,181,1,18567
213.450165987,-2,1,-20,-10,-21,-14,-6,-15,-8,16,-8,106,0,-36,203,0,0,0,145,118,153,189,1,18568
213.459022998,-2,1,-20,18,-10,2,4,-15,-6,16,-22,11,-2,-37,198,0,0,0,126,151,150,179,1,18569
213.468946933,-2,1,-20,-9,-13,5,4,-11,3,-111,152,213,-10,-40,202,0,0,0,135,144,157,170,1,18570
213.496162891,-2,1,-20,2,-12,-2,-3,-12,1,-33,-3,74,-12,-43,206,0,0,0,147,126,154,179,1,18571
213.505468845,-3,0,-20,-14,-5,-7,-6,-9,-5,-135,142,135,-22,-45,214,0,0,0,142,126,164,174,1,18572
213.515273809,-3,0,-20,2,-18,-15,-6,-11,-11,-10,189,159,-18,-47,213,0,0,0,137,125,159,185,1,18573
213.524220943,-3,0,-20,-13,-3,-1,-5,-10,-8,9,-38,10,-17,-43,220,0,0,0,142,131,158,175,1,18574
213.551983833,-4,0,-20,-5,-1,-8,-9,-2,-4,42,-210,207,-19,-51,221,0,0,0,146,121,175,164,1,18575
213.561069965,-4,0,-20,-1,7,-14,-3,2,-11,11,-63,121,-13,-49,223,0,0,0,129,133,180,164,1,18576
213.570214986,-4,0,-20,-8,6,8,-5,6,-3,140,-30,73,-12,-48,222,0,0,0,147,134,173,152,1,18577
213.579355955,-4,0,-20,6,8,5,-1,7,6,-89,-128,22,-8,-48,227,0,0,0,137,141,172,155,1,18578
213.606997966,-5,0,-20,-3,-2,2,1,3,3,207,213,64,-2,-45,222,0,0,0,135,141,165,165,1,18579
213.616333961,-5,0,-20,5,8,3,1,3,2,71,107,2,0,-32,223,0,0,0,137,139,168,161,1,18580
213.625137805,-5,0,-20,-2,1,5,1,5,4,-52,-124,166,-1,-45,218,0,0,0,137,141,171,157,1,18581
213.635344982,-5,0,-20,13,9,-1,5,5,1,41,138,100,0,-26,219,0,0,0,129,144,173,160,1,18582
213.66217494,-5,0,-20,14,16,-15,13,12,-8,-89,-255,116,-9,-39,221,0,0,0,111,151,191,153,1,18583
213.671099901,-5,0,-21,13,7,-11,13,11,-13,26,-28,121,-8,-38,223,0,0,0,119,145,182,160,1,18584
213.680961847,-5,0,-21,20,14,-1,16,10,-6,-41,-88,119,-13,-34,228,0,0,0,118,155,177,157,1,18585
213.690003871,-5,0,-21,0,17,14,10,15,6,217,-215,31,-13,-40,221,0,0,0,139,147,180,140,1,18586
213.717002868,-5,0,-21,10,0,-4,4,9,5,-247,-70,-91,-11,-50,216,0,0,0,135,136,171,164,1,18587
213.72706604,-5,0,-21,-14,5,7,-2,3,1,252,181,-24,-7,-45,204,0,0,0,148,132,162,164,1,18588
213.735981941,-6,0,-20,-2,-6,2,-8,0,4,177,182,218,0,-38,202,0,0,0,152,124,162,168,1,18589
213.745046854,-6,0,-20,-2,-9,1,-2,-8,1,213,27,209,3,-44,206,0,0,0,135,140,152,179,1,18590
213.772931814,-6,0,-20,4,-5,-9,1,-7,-4,126,183,164,0,-34,207,0,0,0,129,137,164,176,1,18591
213.78210783,-6,0,-21,6,-16,1,5,-10,-4,91,215,137,10,-36,206,0,0,0,129,146,153,178,1,18592
213.790947914,-6,0,-21,-4,-5,-14,1,-11,-6,80,12,27,17,-32,204,0,0,0,134,129,162,181,1,18593
213.800128936,-6,0,-21,0,-6,-20,-2,-6,-17,-4,89,-240,25,-28,199,0,0,0,134,124,173,176,1,18594
213.828267812,-6,0,-21,5,-7,-2,2,-7,-11,141,165,-19,29,-18,196,0,0,0,130,142,161,174,1,18595
213.837164878,-6,0,-21,2,-7,-24,3,-7,-13,-209,-121,25,23,-26,188,0,0,0,122,132,170,182,1,18596
213.846136808,-6,0,-21,0,-3,-13,0,-5,-19,-201,-169,113,21,-20,187,0,0,0,133,130,169,174,1,18597
213.855093956,-6,0,-21,1,-17,-16,0,-10,-15,255,-59,70,22,-27,186,0,0,0,130,130,159,187,1,18598
213.88311696,-6,0,-21,1,8,12,1,-4,-2,123,-30,25,29,-29,189,0,0,0,139,144,162,160,1,18599
213.892151832,-6,0,-21,2,-18,-8,2,-5,2,204,73,211,25,-38,192,0,0,0,131,136,165,174,1,18600
213.901086807,-6,1,-21,-1,8,10,0,-5,1,-115,183,240,29,-28,192,0,0,0,141,141,158,166,1,18601
213.911092996,-6,1,-21,3,4,-11,1,6,0,167,-122,92,33,-41,184,0,0,0,130,134,187,154,1,18602
213.937973976,-7,1,-21,-6,0,2,-1,2,-4,-35,212,182,32,-27,184,0,0,0,141,135,165,165,1,18603
213.947186946,-7,1,-21,5,7,-10,0,3,-3,87,-14,95,36,-35,181,0,0,0,132,132,176,165,1,18604
213.957057952,-7,2,-21,2,-2,-15,3,2,-13,35,-239,64,33,-37,183,0,0,0,123,138,174,171,1,18605
213.96596384,-7,2,-21,-5,-7,10,-1,-5,-2,-198,-238,75,27,-34,193,0,0,0,147,135,152,172,1,18606
213.993183851,-7,2,-21,-2,5,7,-3,0,9,161,-36,223,33,-34,193,0,0,0,146,134,167,160,1,18607
214.003026008,-7,2,-21,-4,-7,0,-3,0,3,-197,-238,162,28,-34,195,0,0,0,140,134,166,166,1,18608
214.012033939,-7,2,-21,-1,4,-7,-2,-1,-3,220,208,49,33,-15,196,0,0,0,136,131,168,170,1,18609
214.021021842,-7,3,-21,-3,2,13,-2,3,3,-99,-91,107,33,-21,193,0,0,0,144,140,169,153,1,18610
214.048861026,-7,3,-21,1,-14,-12,0,-5,0,3,63,210,34,-7,197,0,0,0,131,132,159,184,1,18611
214.058094024,-7,3,-21,5,8,-3,3,-2,-8,-155,89,106,34,-8,196,0,0,0,128,142,168,167,1,18612
214.067111969,-7,3,-21,8,-5,-16,6,1,-10,0,-248,83,34,-19,200,0,0,0,121,139,179,167,1,18613
214.076151847,-7,3,-21,8,14,3,8,4,-6,-24,175,78,33,-13,196,0,0,0,129,147,172,158,1,18614
214.104194879,-6,4,-21,-2,13,-9,3,13,-2,-168,-53,164,28,-16,195,0,0,0,134,132,192,148,1,18615
214.113103866,-6,4,-22,13,18,-1,5,15,-5,18,89,219,28,-6,197,0,0,0,129,143,185,150,1,18616
214.12193799,-6,4,-22,1,13,-5,7,15,-3,-26,20,202,17,-4,194,0,0,0,127,143,184,153,1,18617
214.132791996,-6,4,-22,7,10,0,4,11,-3,145,251,161,23,10,197,0,0,0,134,138,175,158,1,18618
214.15894103,-6,4,-22,0,1,0,4,5,0,-46,68,78,17,7,204,0,0,0,133,141,168,164,1,18619
214.167937994,-5,4,-22,16,4,-18,8,3,-8,60,224,154,17,3,201,0,0,0,117,141,175,173,1,18620
214.179291009,-5,4,-22,9,5,1,13,4,-8,-120,-122,190,15,-2,202,0,0,0,121,153,173,159,1,18621
214.186061859,-5,4,-22,3,10,3,6,7,2,-66,-3,36,12,-12,194,0,0,0,137,139,176,154,1,18622
214.214102029,-5,4,-22,4,10,-3,4,10,0,-98,-26,103,18,-6,200,0,0,0,133,137,180,155,1,18623
214.22310996,-4,5,-22,4,3,5,4,6,1,158,-127,134,15,-2,194,0,0,0,134,143,169,160,1,18624
214.232033967,-4,5,-22,9,14,8,6,8,6,-24,-111,222,22,-3,203,0,0,0,132,148,174,152,1,18625
214.24130392,-4,5,-22,1,-5,-1,5,4,3,129,100,200,20,4,207,0,0,0,133,139,168,166,1,18626
214.268944978,-4,5,-22,13,3,-5,7,-1,-3,45,-88,155,34,10,213,0,0,0,126,143,164,173,1,18627
214.278312921,-4,5,-22,-12,-6,11,0,-1,2,-26,-151,241,27,2,220,0,0,0,146,136,161,163,1,18628
214.287236928,-4,5,-22,-1,3,5,-7,-1,8,240,150,211,28,7,220,0,0,0,152,126,164,165,1,18629
214.296970844,-3,5,-22,-2,-1,-6,-2,0,0,-220,-72,28,17,5,215,0,0,0,132,136,173,166,1,18630
214.323906898,-3,5,-22,0,10,4,-1,4,0,61,220,203,16,6,216,0,0,0,139,137,173,156,1,18631
214.333181858,-3,5,-22,4,3,4,2,7,4,-141,-55,203,4,-6,218,0,0,0,133,143,175,155,1,18632
214.342046022,-3,5,-22,1,6,15,2,4,10,16,157,86,2,-9,226,0,0,0,139,146,164,157,1,18633
214.352106809,-3,5,-21,2,2,13,1,4,14,-86,-123,121,0,-21,235,0,0,0,141,143,166,156,1,18634
214.379207849,-3,5,-21,-15,-9,35,-6,-3,24,24,230,-10,3,-19,235,0,0,0,163,138,143,162,1,18635
214.388121843,-3,4,-20,2,-5,42,-6,-7,39,58,-132,219,10,-13,240,0,0,0,160,148,139,159,1,18636
214.397902011,-3,4,-20,-5,-16,34,-1,-10,38,33,-26,-2,16,-16,237,0,0,0,148,153,140,165,1,18637
214.406994819,-3,4,-20,5,-9,50,0,-12,42,72,251,219,11,-2,241,0,0,0,157,158,133,158,1,18638
214.434182882,-3,4,-20,-1,-8,51,2,-8,50,-5,98,125,2,0,243,0,0,0,154,162,141,149,1,18639
214.444098949,-3,4,-19,6,-8,63,2,-8,57,232,-13,160,2,-1,248,0,0,0,159,166,133,148,1,18640
214.453045845,-3,4,-18,7,-6,63,7,-7,63,-106,125,144,-3,-9,246,0,0,0,152,173,135,146,1,18641
214.461910963,-3,3,-18,10,-15,78,9,-10,71,12,81,73,0,-4,246,0,0,0,159,180,121,146,1,18642
214.490093946,-3,3,-18,4,-17,74,7,-16,76,-71,-54,206,-8,-17,246,0,0,0,162,173,115,155,1,18643
214.499058008,-3,3,-16,10,2,97,7,-7,86,43,-87,99,-9,-18,246,0,0,0,170,184,127,125,1,18644
214.508090972,-3,3,-16,1,-10,107,6,-4,102,53,60,22,-8,-11,245,0,0,0,176,186,122,122,1,18645
214.517297029,-3,3,-15,-2,8,119,0,0,113,59,-66,117,-2,-13,246,0,0,0,193,181,119,113,1,18646
214.544996976,-3,2,-15,9,8,105,3,8,112,-137,-6,23,-9,-19,241,0,0,0,175,188,139,104,1,18647
214.554066896,-3,3,-12,-12,30,142,-1,19,123,40,-120,223,-3,-22,249,0,0,0,202,191,135,78,1,18648
214.563136816,-3,3,-11,8,24,125,-2,27,133,-116,-44,161,-12,-35,246,0,0,0,192,187,147,81,1,18649
214.572268962,-3,3,-11,-1,30,153,3,27,139,-9,-180,234,-9,-37,242,0,0,0,195,210,128,74,1,18650
214.600111007,-3,3,-10,3,25,140,0,28,147,-138,-84,143,-13,-47,234,0,0,0,199,196,134,78,1,18651
214.609117984,-3,3,-7,-4,30,164,0,27,152,66,-60,169,-7,-51,229,0,0,0,209,205,123,69,1,18652
214.618086814,-4,3,-6,-11,26,156,-8,28,160,32,-28,-162,-7,-45,217,0,0,0,218,189,128,71,1,18653
214.627988815,-4,3,-6,-11,23,164,-11,24,160,118,122,192,-3,-47,226,0,0,0,223,194,116,73,1,18654
214.655213832,-4,3,-5,-27,11,156,-19,17,160,-211,58,159,-4,-31,232,0,0,0,231,181,108,86,1,18655
214.666034936,-5,3,-2,-4,7,139,-16,9,148,18,124,72,1,-30,229,0,0,0,211,187,107,101,1,18656
214.673291921,-5,3,-1,-31,1,125,-18,4,132,43,-41,82,9,-32,232,0,0,0,212,174,111,108,1,18657
214.682905912,-5,3,-1,-9,-7,122,-20,-3,124,-108,-22,138,3,-45,232,0,0,0,215,173,100,118,1,18658
214.710179805,-5,3,0,-33,11,117,-21,1,120,-184,153,106,0,-43,232,0,0,0,213,171,118,104,1,18659
214.720021963,-6,3,1,-21,-16,104,-27,-2,110,-85,145,132,-3,-45,232,0,0,0,219,155,111,121,1,18660
214.730013847,-6,2,2,-11,-10,107,-16,-13,106,39,109,186,6,-26,238,0,0,0,195,182,94,136,1,18661
214.738013029,-6,2,2,-9,-14,99,-10,-12,103,-84,136,53,6,-23,245,0,0,0,191,182,107,127,1,18662
214.766014814,-6,2,3,-21,-8,99,-15,-11,99,8,-61,223,15,-30,248,0,0,0,205,168,108,125,1,18663
214.774935007,-7,2,5,-16,-10,100,-18,-9,99,-51,-53,62,10,-28,252,0,0,0,207,166,110,123,1,18664
214.784188985,-7,2,5,12,-18,74,-1,-14,87,-248,-109,-50,4,-28,239,0,0,0,164,189,109,144,1,18665
214.793277025,-7,2,5,-10,-11,88,1,-14,81,47,72,109,2,-29,237,0,0,0,180,186,106,134,1,18666
214.821048021,-7,2,6,20,-11,56,4,-11,72,-93,9,150,-13,-26,237,0,0,0,163,178,126,140,1,18667
214.830328941,-6,1,7,14,-4,72,17,-7,64,218,112,81,-7,-13,233,0,0,0,150,204,122,130,1,18668
214.839159965,-6,1,7,0,-5,67,7,-5,70,-248,0,8,-19,-17,228,0,0,0,177,173,127,130,1,18669
214.84802103,-6,1,8,36,-12,65,18,-8,66,-19,128,123,-14,-6,224,0,0,0,148,202,117,139,1,18670
214.876047849,-6,1,8,-19,0,76,8,-6,71,198,9,-9,-11,-11,212,0,0,0,179,180,120,127,1,18671
214.885453939,-6,1,9,0,5,44,-9,2,60,82,-25,253,0,-4,213,0,0,0,191,143,147,126,1,18672
214.89409089,-6,1,9,-4,-10,40,-2,-2,42,43,-68,197,1,-10,210,0,0,0,161,169,132,144,1,18673
214.904034853,-6,1,10,5,1,40,0,-4,40,136,-23,162,6,-1,217,0,0,0,163,168,132,143,1,18674
214.931290864,-5,1,10,-18,13,51,-6,7,46,23,-95,39,0,-9,218,0,0,0,182,159,150,115,1,18675
214.940174818,-6,1,11,-10,-2,15,-14,5,33,-48,-17,134,-2,-12,216,0,0,0,177,135,152,143,1,18676
214.949995994,-6,1,11,-28,10,30,-19,4,23,-17,178,39,-3,5,224,0,0,0,185,138,145,137,1,18677
214.95917201,-5,1,11,-30,14,30,-29,12,30,-76,182,128,-7,3,215,0,0,0,199,126,161,121,1,18678
214.986166,-5,1,11,-13,15,24,-22,15,27,115,69,118,2,9,215,0,0,0,175,145,161,126,1,18679
214.99605298,-6,1,11,-34,16,28,-24,15,26,-252,237,3,-9,15,204,0,0,0,186,136,159,125,1,18680
215.004957914,-5,1,12,-25,21,18,-30,18,23,-80,192,72,-2,17,209,0,0,0,191,123,167,125,1,18681
215.013978004,-5,1,12,-30,20,13,-28,20,15,-37,150,209,-10,18,212,0,0,0,181,131,170,125,1,18682
215.042057037,-5,1,12,-17,10,18,-24,15,16,26,-78,128,-1,24,217,0,0,0,177,138,156,134,1,18683
215.051098823,-5,1,12,-25,12,9,-21,11,14,205,-158,135,2,29,224,0,0,0,173,135,157,141,1,18684
