TiempoEjecucion,AnguloPitch,AnguloRoll,AnguloYaw,G_Pitch,G_Roll,G_Yaw,G_Pitch_filtrada,G_Roll_filtrada,G_Yaw_filtrada,Ax,Ay,Az,Ax_filtrada,Ay_filtrada,Az_filtrada,posZ,posZ_filtrada,velZ,motorDelantero,motorTrasero,motorDerecho,motorIzquierdo,EstadoEncendido,MensajesRecibidos
168.897816896,-1,5,-167,-8,-47,11,-14,-45,14,-66,-75,189,138,95,180,2,5,0,179,166,131,195,1,14966
168.912883043,0,4,-167,-8,-47,11,-14,-45,14,-48,154,2,172,74,178,2,5,0,178,167,131,194,1,14967
168.923995018,0,2,-167,-18,-39,11,-14,-44,13,-54,-10,148,197,52,182,2,5,0,178,167,131,194,1,14968
168.934944868,0,1,-167,-13,-45,11,-14,-44,14,-54,-10,148,197,52,182,2,5,0,190,155,140,186,1,14969
168.945911884,0,1,-167,-13,-45,11,-14,-44,14,-54,-10,148,197,52,182,2,5,0,178,166,129,196,1,14970
168.96490097,0,1,-167,-22,-42,13,-14,-43,14,-5,19,246,206,30,190,2,5,0,192,153,136,189,1,14971
168.975947857,-1,0,-167,-15,-40,14,-14,-43,14,15,-79,245,193,13,203,2,5,0,192,153,136,189,1,14972
168.989681005,-1,0,-167,-15,-40,14,-14,-43,14,15,-79,245,193,13,203,2,5,0,179,167,136,188,1,14973
168.998029947,-1,0,-167,-14,-38,16,-13,-43,14,15,-79,245,193,13,203,2,5,0,179,167,136,188,1,14974
169.015934944,-5,2,-167,-14,-38,16,-13,-43,14,134,-19,162,159,3,215,2,5,0,183,164,136,186,1,14975
169.027224064,-7,0,-166,-12,-47,15,-13,-43,13,-57,-90,102,110,-2,226,2,5,0,183,164,136,186,1,14976
169.037859916,-7,0,-166,-12,-47,15,-13,-43,13,-57,-90,102,110,-2,226,2,5,0,181,166,125,198,1,14977
169.050976991,-7,0,-166,-14,-49,13,-13,-43,13,-57,-90,102,110,-2,226,2,5,0,182,163,128,197,1,14978
169.067806005,-5,-3,-166,-14,-49,13,-13,-43,13,-234,242,52,57,-7,232,2,5,0,182,164,129,196,1,14979
169.082808017,-3,-3,-166,-9,-40,13,-14,-43,13,-14,115,67,9,-14,232,2,5,0,182,164,129,196,1,14980
169.089884996,-3,-3,-166,-9,-40,13,-14,-43,13,-14,115,67,9,-14,232,2,5,0,177,169,140,184,1,14981
169.100863933,-3,-3,-166,-13,-39,14,-15,-42,13,-14,115,67,9,-14,232,2,5,0,184,162,136,188,1,14982
169.119142055,-3,-3,-166,-13,-39,14,-15,-42,13,19,-16,61,-26,-22,228,2,5,0,182,165,135,188,1,14983
169.129852056,-5,-4,-165,-15,-40,15,-15,-42,13,-63,-169,25,-50,-30,222,2,5,0,182,165,135,188,1,14984
169.141494035,-5,-4,-165,-20,-42,12,-15,-43,13,-63,-169,25,-50,-30,222,2,5,0,185,163,134,188,1,14985
169.154742956,-6,-7,-165,-20,-42,12,-15,-43,13,-159,-38,207,-62,-33,218,2,5,0,188,157,133,192,1,14986
169.170964002,-5,-6,-165,-13,-37,13,-15,-43,13,-159,-38,207,-62,-33,218,2,5,0,179,167,139,185,1,14987
169.182079076,-6,-9,-165,-13,-48,13,-14,-43,14,-124,-69,222,-65,-30,219,2,5,0,179,167,139,185,1,14988
169.193060875,-6,-9,-165,-13,-48,13,-14,-43,14,-124,-69,222,-65,-30,219,2,5,0,182,164,124,200,1,14989
169.2038939,-6,-8,-165,-9,-48,15,-14,-42,14,-124,-69,222,-65,-30,219,2,5,0,178,170,129,193,1,14990
169.221920013,-6,-12,-165,-9,-48,15,-14,-42,14,-202,12,142,-63,-23,226,2,5,0,180,167,129,194,1,14991
169.234740019,-3,-12,-165,-10,-41,13,-13,-42,14,0,219,7,-61,-17,237,2,5,0,180,167,129,194,1,14992
169.243967056,-2,-12,-165,-13,-45,15,-13,-42,14,0,219,7,-61,-17,237,2,5,0,181,166,138,186,1,14993
169.254916906,-2,-12,-165,-13,-45,15,-13,-42,14,0,219,7,-61,-17,237,2,5,0,184,163,128,194,1,14994
169.274107933,-5,-8,-165,-20,-36,14,-14,-42,14,94,-98,-3,-62,-12,247,2,5,0,190,156,142,181,1,14995
169.284884929,-9,-6,-164,-17,-43,15,-13,-42,14,141,-199,-1,-67,-10,253,2,5,0,190,156,142,181,1,14996
169.295897007,-9,-6,-164,-17,-43,15,-13,-42,14,141,-199,-1,-67,-10,253,2,5,0,184,163,128,194,1,14997
169.306999921,-9,-5,-164,-15,-42,15,-13,-42,13,141,-199,-1,-67,-10,253,2,5,0,184,163,128,194,1,14998
169.32546401,-6,-4,-164,-15,-42,15,-13,-42,13,182,209,33,-73,-9,251,2,5,0,182,165,133,190,1,14999
169.336335897,-5,-2,-164,-17,-42,16,-13,-43,14,159,103,68,-75,-7,238,2,5,0,182,165,133,190,1,15000
169.3469069,-5,-2,-164,-17,-42,16,-13,-43,14,159,103,68,-75,-7,238,2,5,0,186,162,133,189,1,15001
169.358386039,-5,-2,-164,-11,-45,11,-14,-43,14,159,103,68,-75,-7,238,2,5,0,186,162,133,189,1,15002
169.376914978,-6,-3,-164,-15,-39,15,-14,-43,14,-74,-138,114,-68,-6,217,2,5,0,183,164,135,187,1,15003
169.388128042,-6,-6,-163,-13,-44,12,-15,-43,14,-158,-42,129,-46,-4,192,2,5,0,183,164,135,187,1,15004
169.399964094,-6,-6,-163,-13,-44,12,-15,-43,14,-158,-42,129,-46,-4,192,2,5,0,180,165,131,195,1,15005
169.409861087,-6,-5,-163,-16,-44,12,-15,-42,14,-158,-42,129,-46,-4,192,2,5,0,184,161,132,193,1,15006
169.430828094,-9,-6,-163,-16,-44,12,-15,-42,14,-30,-157,179,-15,0,172,2,5,0,183,162,133,193,1,15007
169.44001007,-7,-7,-163,-19,-43,13,-16,-42,14,-35,91,71,20,2,165,2,5,0,183,162,133,193,1,15008
169.450931072,-7,-7,-163,-19,-43,13,-16,-42,14,-35,91,71,20,2,165,2,5,0,188,158,134,190,1,15009
169.460879087,-7,-7,-163,-19,-44,13,-16,-42,14,-35,91,71,20,2,165,2,5,0,185,160,131,193,1,15010
169.479870081,-6,-6,-163,-19,-44,13,-16,-42,14,56,114,56,48,3,174,2,5,0,186,160,132,192,1,15011
169.491174936,-7,-9,-162,-11,-43,15,-15,-42,14,-210,-96,212,63,0,198,2,5,0,186,160,132,192,1,15012
169.501942873,-6,-9,-162,-11,-37,17,-15,-42,13,-210,-96,212,63,0,198,2,5,0,177,170,132,190,1,15013
169.513123989,-6,-9,-162,-11,-37,17,-15,-42,13,-210,-96,212,63,0,198,2,5,0,182,167,138,183,1,15014
169.532080888,-3,-10,-162,-8,-44,14,-15,-43,13,-172,181,219,61,-4,231,2,5,0,177,169,128,196,1,15015
169.542963981,-4,-12,-162,-11,-44,14,-15,-43,13,-102,-15,62,44,-9,9,2,5,0,177,169,128,196,1,15016
169.553827047,-4,-12,-162,-11,-44,14,-15,-43,13,-102,-15,62,44,-9,9,2,5,0,182,165,132,191,1,15017
169.565048933,-3,-11,-162,-16,-47,12,-15,-43,13,-102,-15,62,44,-9,9,2,5,0,182,165,132,191,1,15018
169.582939863,-5,-12,-162,-16,-47,12,-15,-43,13,-60,-69,233,14,-11,37,2,5,0,186,159,129,197,1,15019
169.593909025,-5,-15,-162,-18,-44,12,-15,-43,13,-133,-25,158,-22,-8,54,2,5,0,186,159,129,197,1,15020
169.607009887,-5,-15,-162,-18,-44,12,-15,-43,13,-133,-25,158,-22,-8,54,2,5,0,186,159,135,190,1,15021
169.616110086,-5,-14,-162,-11,-38,17,-14,-43,14,-133,-25,158,-22,-8,54,2,5,0,178,171,138,183,1,15022
169.634228944,-7,-14,-162,-11,-38,17,-14,-43,14,8,-193,246,-61,-2,58,2,5,0,182,167,135,186,1,15023
169.64500308,-7,-15,-161,-14,-36,15,-13,-43,14,-38,-12,153,-94,4,50,2,5,0,182,167,135,186,1,15024
169.655879974,-7,-14,-161,-11,-46,11,-13,-43,14,-38,-12,153,-94,4,50,2,5,0,184,163,138,185,1,15025
169.667068004,-6,-13,-161,-11,-46,11,-13,-43,14,41,34,25,-118,8,33,2,5,0,178,166,126,199,1,15026
169.685858011,-6,-12,-161,-20,-39,13,-12,-43,14,41,34,25,-118,8,33,2,5,0,191,155,139,185,1,15027
169.696933984,-7,-14,-161,-13,-47,14,-13,-43,14,-77,-72,175,-129,6,11,2,5,0,191,155,139,185,1,15028
169.708062887,-7,-14,-161,-13,-47,14,-13,-43,14,-77,-72,175,-129,6,11,2,5,0,179,168,125,198,1,15029
169.718980074,-7,-13,-161,-14,-41,16,-13,-42,14,-77,-72,175,-129,6,11,2,5,0,179,168,125,198,1,15030
169.737952947,-7,-16,-161,-14,-41,16,-13,-42,14,-181,-32,232,-125,-2,243,2,5,0,184,164,137,185,1,15031
169.74890995,-11,-17,-160,-18,-37,18,-13,-42,14,-89,-188,135,-110,-15,221,2,5,0,184,164,137,185,1,15032
169.75999403,-11,-17,-160,-18,-37,18,-13,-42,14,-89,-188,135,-110,-15,221,2,5,0,189,161,137,183,1,15033
169.771133899,-10,-16,-160,-14,-44,13,-14,-41,14,-89,-188,135,-110,-15,221,2,5,0,181,165,129,196,1,15034
169.789090871,-8,-16,-160,-14,-44,13,-14,-41,14,-26,102,224,-88,-30,205,2,5,0,183,163,132,192,1,15035
169.800006866,-8,-18,-160,-11,-43,12,-15,-41,14,-191,0,41,-66,-45,196,2,5,0,183,163,132,192,1,15036
169.815435886,-7,-17,-160,-10,-40,12,-15,-41,14,-191,0,41,-66,-45,196,2,5,0,179,166,134,191,1,15037
169.82219696,-7,-17,-160,-10,-40,12,-15,-41,14,-191,0,41,-66,-45,196,2,5,0,179,166,137,188,1,15038
169.840875864,-7,-19,-160,-9,-44,13,-15,-41,14,-96,-15,135,-51,-55,192,2,5,0,178,167,130,194,1,15039
169.852472067,-4,-18,-160,-13,-40,16,-15,-41,14,-15,116,168,-44,-61,192,2,5,0,178,167,130,194,1,15040
169.862974882,-4,-18,-160,-13,-40,16,-15,-41,14,-15,116,168,-44,-61,192,2,5,0,185,164,135,187,1,15041
169.874917984,-4,-17,-159,-17,-48,17,-15,-42,14,-15,116,168,-44,-61,192,2,5,0,188,161,125,196,1,15042
169.892844915,-6,-13,-159,-15,-37,16,-14,-42,14,199,-130,111,-47,-59,196,2,5,0,183,165,141,181,1,15043
169.903904915,-8,-9,-159,-17,-48,12,-13,-42,14,150,-103,-6,-57,-51,201,2,5,0,183,165,141,181,1,15044
169.914893865,-8,-9,-159,-17,-48,12,-13,-42,14,150,-103,-6,-57,-51,201,2,5,0,185,160,125,200,1,15045
169.92582798,-8,-9,-159,-16,-37,16,-12,-42,14,150,-103,-6,-57,-51,201,2,5,0,185,164,141,180,1,15046
169.943932056,-6,-7,-159,-16,-37,16,-12,-42,14,130,144,253,-67,-38,203,2,5,0,185,164,136,186,1,15047
169.954936981,-6,-6,-159,-11,-38,16,-12,-42,14,32,-26,162,-69,-23,200,2,5,0,185,164,136,186,1,15048
169.970694065,-6,-6,-159,-11,-38,16,-12,-42,14,32,-26,162,-69,-23,200,2,5,0,179,169,134,188,1,15049
169.977112054,-6,-6,-159,-12,-44,11,-12,-42,14,32,-26,162,-69,-23,200,2,5,0,181,163,131,195,1,15050
169.998770952,-8,-8,-159,-12,-44,11,-12,-42,14,-79,-121,174,-59,-10,191,2,5,0,180,164,134,193,1,15051
170.006222009,-9,-9,-158,-20,-46,10,-13,-42,15,-114,-84,52,-34,-1,177,2,5,0,180,164,134,193,1,15052
170.017260074,-9,-9,-158,-20,-46,10,-13,-42,15,-114,-84,52,-34,-1,177,2,5,0,189,154,131,196,1,15053
170.030591011,-8,-9,-158,-14,-40,15,-14,-42,15,-114,-84,52,-34,-1,177,2,5,0,180,167,138,185,1,15054
170.046326875,-8,-8,-158,-14,-40,15,-14,-42,15,44,2,199,-2,2,162,2,5,0,183,164,134,188,1,15055
170.058845043,-8,-10,-158,-19,-39,17,-15,-42,15,-123,31,74,30,1,151,2,5,0,183,164,134,188,1,15056
170.068034887,-7,-9,-158,-11,-44,13,-15,-42,15,-123,31,74,30,1,151,2,5,0,189,160,134,187,1,15057
170.078866005,-9,-10,-158,-11,-44,13,-15,-42,15,-26,-48,117,53,-5,148,2,5,0,181,175,135,199,1,15058
170.100216865,-8,-9,-158,-20,-40,13,-15,-42,14,-26,-48,117,53,-5,148,2,5,0,196,160,142,192,1,15059
170.110941887,-8,-10,-157,-13,-47,13,-16,-41,14,-16,-21,253,61,-15,154,2,5,0,196,160,142,192,1,15060
170.122088909,-8,-10,-157,-13,-47,13,-16,-41,14,-16,-21,253,61,-15,154,2,5,0,183,173,131,203,1,15061
170.133008957,-8,-9,-157,-15,-37,14,-16,-41,14,-16,-21,253,61,-15,154,2,5,0,189,167,147,187,1,15062
170.150960922,-7,-11,-157,-15,-37,14,-16,-41,14,-116,21,187,53,-26,169,2,5,0,188,168,142,192,1,15063
170.162184953,-7,-10,-157,-20,-40,14,-16,-42,13,121,31,83,32,-34,189,2,5,0,188,168,142,192,1,15064
170.172852039,-7,-10,-157,-20,-40,14,-16,-42,13,121,31,83,32,-34,189,2,5,0,194,163,138,196,1,15065
170.183916092,-6,-10,-157,-13,-46,13,-16,-42,13,121,31,83,32,-34,189,2,5,0,194,163,138,196,1,15066
170.202858925,-5,-8,-157,-15,-45,14,-16,-42,13,119,81,151,4,-37,210,2,5,0,185,171,134,200,1,15067
170.21419692,-6,-9,-157,-11,-42,12,-16,-42,14,-54,-35,211,-23,-35,229,2,5,0,185,171,134,200,1,15068
170.224994898,-6,-9,-157,-11,-42,12,-16,-42,14,-54,-35,211,-23,-35,229,2,5,0,183,172,140,195,1,15069
170.235995054,-5,-9,-157,-16,-38,15,-16,-42,14,-54,-35,211,-23,-35,229,2,5,0,192,165,143,190,1,15070
170.254992962,-7,-10,-157,-16,-38,15,-16,-42,14,-116,-151,72,-43,-28,245,2,5,0,189,168,141,192,1,15071
170.26658988,-8,-11,-156,-11,-38,13,-15,-42,14,-61,-70,6,-52,-17,2,2,5,0,189,168,141,192,1,15072
170.277083873,-7,-10,-156,-17,-44,12,-15,-42,14,-61,-70,6,-52,-17,2,2,5,0,183,173,142,192,1,15073
170.287986993,-7,-10,-156,-17,-44,12,-15,-42,14,-61,-70,6,-52,-17,2,2,5,0,192,164,135,200,1,15074
170.310461998,-10,-11,-156,-18,-39,13,-15,-42,14,-89,-203,228,-49,-6,14,2,5,0,190,165,143,192,1,15075
170.318818092,-9,-13,-156,-15,-49,11,-14,-42,13,-105,-20,250,-39,0,23,2,5,0,190,165,143,192,1,15076
170.328835964,-9,-13,-156,-15,-49,11,-14,-42,13,-105,-20,250,-39,0,23,2,5,0,185,169,130,205,1,15077
170.340271949,-9,-12,-156,-12,-42,15,-14,-42,13,-105,-20,250,-39,0,23,2,5,0,186,171,141,192,1,15078
170.357882976,-10,-13,-156,-15,-44,13,-14,-41,13,-44,-49,128,-28,-1,30,2,5,0,189,167,136,198,1,15079
170.368982076,-13,-14,-155,-11,-35,19,-14,-41,13,-81,-3,121,-21,-12,33,2,5,0,189,167,136,198,1,15080
170.380017996,-12,-13,-155,-15,-39,13,-14,-41,13,-81,-3,121,-21,-12,33,2,5,0,186,175,146,184,1,15081
170.390923023,-12,-13,-155,-15,-39,13,-14,-41,13,-81,-3,121,-21,-12,33,2,5,0,190,166,139,196,1,15082
170.416054964,-9,-12,-155,-14,-38,18,-15,-42,13,4,164,221,-21,-30,29,2,5,0,190,172,141,191,1,15083
170.427013874,-10,-14,-155,-14,-42,13,-15,-42,13,-68,-49,160,-28,-54,19,2,5,0,190,172,141,191,1,15084
170.438036918,-9,-13,-155,-12,-41,16,-14,-42,14,-68,-49,160,-28,-54,19,2,5,0,189,169,137,199,1,15085
170.448900938,-9,-13,-155,-12,-41,16,-14,-42,14,-68,-49,160,-28,-54,19,2,5,0,187,174,140,194,1,15086
170.468112945,-11,-13,-155,-14,-43,12,-14,-42,14,-66,-151,244,-40,-76,2,2,5,0,189,168,138,199,1,15087
170.478888988,-12,-15,-154,-10,-42,12,-14,-41,15,-149,-92,221,-54,-93,236,2,5,0,189,168,138,199,1,15088
170.489897012,-12,-15,-154,-10,-42,12,-14,-41,15,-149,-92,221,-54,-93,236,2,5,0,184,174,140,197,1,15089
170.500981092,-11,-14,-154,-18,-44,12,-14,-40,15,-149,-92,221,-54,-93,236,2,5,0,194,163,137,200,1,15090
170.519914865,-13,-17,-154,-18,-44,12,-14,-40,15,-147,-133,180,-65,-100,213,2,5,0,190,167,138,199,1,15091
170.530896902,-14,-19,-154,-19,-42,14,-13,-40,15,-110,-76,148,-73,-100,193,2,5,0,190,167,138,199,1,15092
170.541874885,-14,-19,-154,-19,-42,14,-13,-40,15,-110,-76,148,-73,-100,193,2,5,0,192,166,141,195,1,15093
170.552917003,-13,-17,-154,-12,-38,15,-13,-40,15,-110,-76,148,-73,-100,193,2,5,0,185,175,144,191,1,15094
170.571248054,-14,-19,-154,-12,-38,15,-13,-40,15,-136,-89,247,-79,-94,179,2,5,0,188,171,142,193,1,15095
170.583235979,-14,-16,-154,-9,-37,14,-13,-41,14,190,-80,227,-84,-86,172,2,5,0,188,171,142,193,1,15096
170.592926025,-13,-15,-154,-10,-46,12,-13,-41,14,190,-80,227,-84,-86,172,2,5,0,184,175,143,192,1,15097
170.603895902,-13,-15,-154,-10,-46,12,-13,-41,14,190,-80,227,-84,-86,172,2,5,0,186,171,133,204,1,15098
170.622915029,-15,-14,-153,-17,-41,14,-14,-42,13,0,-239,29,-89,-80,172,2,5,0,194,165,142,193,1,15099
170.633868932,-17,-16,-153,-17,-51,13,-14,-42,13,-161,-211,247,-91,-77,178,2,5,0,194,165,142,193,1,15100
170.64487791,-16,-15,-153,-18,-45,15,-14,-42,13,-161,-211,247,-91,-77,178,2,5,0,190,168,128,208,1,15101
170.655809879,-13,-17,-153,-18,-45,15,-14,-42,13,-97,124,130,-90,-80,188,2,5,0,192,167,140,195,1,15102
170.674901962,-12,-16,-153,-14,-42,16,-14,-42,13,-97,124,130,-90,-80,188,2,5,0,188,173,140,194,1,15103
170.685821056,-14,-15,-153,-17,-36,13,-14,-42,13,47,-85,167,-83,-87,200,2,5,0,188,173,140,194,1,15104
170.700429916,-14,-15,-153,-17,-36,13,-14,-42,13,47,-85,167,-83,-87,200,2,5,0,191,166,147,190,1,15105
170.707927942,-13,-14,-153,-15,-39,17,-14,-42,13,47,-85,167,-83,-87,200,2,5,0,191,166,147,190,1,15106
170.725976944,-11,-12,-153,-15,-39,17,-14,-42,13,147,101,222,-72,-98,213,2,5,0,189,172,138,195,1,15107
170.737286091,-8,-13,-152,-16,-43,15,-14,-43,14,-103,209,1,-59,-107,223,2,5,0,189,172,138,195,1,15108
170.747814893,-8,-13,-152,-16,-43,15,-14,-43,14,-103,209,1,-59,-107,223,2,5,0,192,168,137,198,1,15109
170.759492874,-8,-12,-152,-7,-41,14,-15,-43,14,-103,209,1,-59,-107,223,2,5,0,180,178,141,195,1,15110
170.776870012,-8,-13,-152,-7,-41,14,-15,-43,14,-47,-46,254,-44,-109,228,2,5,0,184,174,140,196,1,15111
170.787977934,-7,-14,-152,-13,-47,9,-15,-43,15,-68,65,38,-30,-100,228,2,5,0,184,174,140,196,1,15112
170.798873901,-7,-14,-152,-13,-47,9,-15,-43,15,-68,65,38,-30,-100,228,2,5,0,189,165,136,204,1,15113
170.80991888,-7,-13,-152,-16,-48,12,-15,-43,15,-68,65,38,-30,-100,228,2,5,0,191,166,135,202,1,15114
170.827965974,-5,-12,-152,-16,-48,12,-15,-43,15,150,132,103,-18,-78,226,2,5,0,190,167,136,201,1,15115
170.838926077,-7,-10,-151,-15,-38,18,-15,-42,15,88,-106,228,-8,-44,223,2,5,0,190,167,136,201,1,15116
170.850152969,-6,-9,-151,-15,-31,17,-15,-42,15,88,-106,228,-8,-44,223,2,5,0,190,171,145,187,1,15117
170.860964059,-6,-9,-151,-15,-31,17,-15,-42,15,88,-106,228,-8,-44,223,2,5,0,190,171,148,184,1,15118
170.879872083,-6,-7,-151,-15,-36,13,-14,-42,14,96,0,209,-2,-6,223,2,5,0,190,168,141,195,1,15119
170.890883922,-6,-5,-151,-8,-45,13,-14,-42,14,208,-15,205,2,30,228,2,5,0,190,168,141,195,1,15120
170.901880026,-6,-4,-151,-18,-50,13,-14,-41,14,208,-15,205,2,30,228,2,5,0,180,178,133,203,1,15121
170.918747902,-8,-2,-151,-18,-50,13,-14,-41,14,151,-164,252,9,58,238,2,5,0,196,162,131,205,1,15122
170.93197608,-7,-2,-151,-7,-46,14,-13,-41,13,151,-164,252,9,58,238,2,5,0,179,179,139,197,1,15123
170.943790912,-6,-1,-151,-17,-45,12,-13,-41,14,10,151,58,20,72,248,2,5,0,179,179,139,197,1,15124
170.954676866,-6,-1,-151,-17,-45,12,-13,-41,14,10,151,58,20,72,248,2,5,0,195,163,139,198,1,15125
170.964950084,-5,-1,-150,-10,-37,14,-13,-41,14,10,151,58,20,72,248,2,5,0,195,163,139,198,1,15126
170.983876943,-3,0,-150,-10,-37,14,-13,-41,14,138,182,68,38,70,1,2,5,0,183,176,146,189,1,15127
170.994991064,-4,0,-150,-9,-32,13,-13,-41,14,-19,-51,236,63,56,7,2,5,0,183,176,146,189,1,15128
171.006042957,-4,0,-150,-9,-32,13,-13,-41,14,-19,-51,236,63,56,7,2,5,0,184,173,149,188,1,15129
171.016377926,-4,-1,-150,-16,-43,14,-13,-42,14,-19,-51,236,63,56,7,2,5,0,194,165,133,202,1,15130
171.037782907,-2,0,-150,-16,-43,14,-13,-42,14,6,229,138,93,35,11,2,5,0,190,168,138,197,1,15131
171.045979023,-2,1,-150,-15,-50,16,-13,-42,14,181,-9,183,122,16,12,2,5,0,190,168,138,197,1,15132
171.058475017,-2,1,-150,-15,-50,16,-13,-42,14,181,-9,183,122,16,12,2,5,0,189,171,130,204,1,15133
171.067890882,-2,0,-150,-12,-45,11,-13,-43,14,181,-9,183,122,16,12,2,5,0,185,171,142,196,1,15134
171.085901022,-1,2,-150,-12,-45,11,-13,-43,14,73,66,205,145,5,14,2,5,0,186,170,139,199,1,15135
171.098736047,-3,0,-149,-15,-40,16,-12,-43,14,-18,-54,116,157,5,16,2,5,0,186,170,139,199,1,15136
171.107975006,-3,0,-149,-13,-43,14,-12,-43,14,-18,-54,116,157,5,16,2,5,0,192,168,142,192,1,15137
171.118969917,-3,0,-149,-13,-43,14,-12,-43,14,-18,-54,116,157,5,16,2,5,0,187,171,137,198,1,15138
171.137985944,-1,0,-149,-19,-35,15,-12,-42,14,-38,85,166,156,15,17,2,5,0,196,164,147,188,1,15139
171.148949861,0,-1,-149,-16,-40,18,-13,-42,14,3,64,35,142,32,16,2,5,0,196,164,147,188,1,15140
171.161735058,0,-1,-149,-16,-40,18,-13,-42,14,3,64,35,142,32,16,2,5,0,190,172,137,195,1,15141
171.17090702,0,-1,-149,-20,-41,11,-13,-42,14,3,64,35,142,32,16,2,5,0,194,163,141,197,1,15142
171.19085288,0,-2,-149,-20,-41,11,-13,-42,14,-50,-6,232,120,48,10,2,5,0,191,165,141,196,1,15143
171.200510978,-1,0,-148,-14,-44,10,-14,-42,14,159,-33,121,90,61,254,2,5,0,191,165,141,196,1,15144
171.210916042,-1,0,-148,-12,-49,12,-15,-42,14,159,-33,121,90,61,254,2,5,0,185,170,138,201,1,15145
171.222151041,-1,0,-148,-12,-49,12,-15,-42,14,159,-33,121,90,61,254,2,5,0,185,172,133,204,1,15146
171.240875005,0,2,-148,-10,-42,15,-16,-41,15,138,119,173,59,67,238,2,5,0,186,174,142,192,1,15147
171.252333879,1,4,-148,-9,-45,13,-16,-41,15,233,134,7,31,66,222,2,5,0,186,174,142,192,1,15148
171.262932062,1,4,-148,-9,-45,13,-16,-41,15,233,134,7,31,66,222,2,5,0,185,173,136,200,1,15149
171.273860931,1,3,-148,-12,-34,15,-16,-41,14,233,134,7,31,66,222,2,5,0,189,170,149,185,1,15150
171.291974067,2,4,-148,-12,-34,15,-16,-41,14,61,91,41,12,60,207,2,5,0,188,172,144,190,1,15151
171.302963018,3,4,-148,-16,-38,13,-16,-42,14,75,114,58,5,50,195,2,5,0,188,172,144,190,1,15152
171.313958883,3,4,-148,-16,-38,13,-16,-42,14,75,114,58,5,50,195,2,5,0,191,166,140,196,1,15153
171.325237989,3,3,-148,-24,-45,15,-15,-42,13,75,114,58,5,50,195,2,5,0,200,160,133,201,1,15154
171.344078064,4,0,-148,-24,-45,15,-15,-42,13,-112,28,84,14,43,190,2,5,0,196,164,137,198,1,15155
171.355334043,4,0,-147,-12,-49,12,-14,-43,13,50,33,179,34,42,191,2,5,0,196,164,137,198,1,15156
171.365850925,3,0,-147,-8,-43,15,-13,-43,13,50,33,179,34,42,191,2,5,0,181,176,134,203,1,15157
171.378594875,3,0,-147,-8,-43,15,-13,-43,13,50,33,179,34,42,191,2,5,0,183,176,141,193,1,15158
171.395807027,5,1,-147,-6,-49,14,-13,-43,13,124,147,53,59,46,198,2,5,0,182,177,131,204,1,15159
171.406903982,4,3,-147,-8,-39,15,-13,-43,13,3,-48,31,81,54,208,2,5,0,182,177,131,204,1,15160
171.418143987,3,2,-147,-14,-44,14,-13,-43,14,3,-48,31,81,54,208,2,5,0,186,173,146,188,1,15161
171.428905964,4,4,-147,-14,-44,14,-13,-43,14,151,27,139,96,65,219,2,5,0,192,167,135,200,1,15162
171.447998047,3,3,-147,-21,-32,12,-13,-43,14,151,27,139,96,65,219,2,5,0,196,161,153,184,1,15163
171.458886861,2,4,-146,-20,-43,16,-13,-43,14,190,-36,66,101,73,229,2,5,0,196,161,153,184,1,15164
171.470211029,2,4,-146,-20,-43,16,-13,-43,14,190,-36,66,101,73,229,2,5,0,193,167,132,202,1,15165
171.480800867,2,4,-146,-19,-38,12,-12,-43,14,190,-36,66,101,73,229,2,5,0,192,165,134,203,1,15166
171.498929023,0,5,-146,-19,-38,12,-12,-43,14,99,-104,20,102,78,239,2,5,0,191,166,145,191,1,15167
171.510082006,2,5,-146,-14,-42,14,-12,-43,14,80,159,43,103,75,250,2,5,0,191,166,145,191,1,15168
171.520868063,2,5,-146,-14,-42,14,-12,-43,14,80,159,43,103,75,250,2,5,0,186,173,137,198,1,15169
171.53196001,2,4,-146,-8,-50,13,-13,-43,14,80,159,43,103,75,250,2,5,0,181,177,130,206,1,15170
171.549808025,3,5,-146,-8,-50,13,-13,-43,14,77,130,87,106,65,7,2,5,0,184,174,134,202,1,15171
171.561184883,3,4,-145,-9,-42,15,-13,-42,14,26,30,243,112,49,21,2,5,0,184,174,134,202,1,15172
171.571943998,3,4,-145,-9,-42,15,-13,-42,14,26,30,243,112,49,21,2,5,0,187,173,143,191,1,15173
171.582844972,3,4,-145,-17,-41,11,-14,-41,14,26,30,243,112,49,21,2,5,0,194,163,142,196,1,15174
171.601392984,4,4,-145,-17,-41,11,-14,-41,14,2,30,163,120,33,35,2,5,0,190,167,141,196,1,15175
171.611902952,2,1,-145,-19,-38,12,-15,-41,14,-97,-98,60,124,20,47,2,5,0,190,167,141,196,1,15176
171.623003959,2,1,-145,-22,-49,13,-16,-41,14,-97,-98,60,124,20,47,2,5,0,192,165,144,193,1,15177
171.633943081,2,1,-145,-22,-49,13,-16,-41,14,-97,-98,60,124,20,47,2,5,0,195,163,130,206,1,15178
171.653066873,1,0,-145,-15,-42,14,-16,-41,14,-161,7,45,123,13,54,2,5,0,186,173,142,193,1,15179
171.664036035,1,0,-145,-11,-49,14,-15,-42,14,109,15,63,113,13,54,2,5,0,186,173,142,193,1,15180
171.677483081,1,0,-145,-11,-39,15,-15,-42,13,109,15,63,113,13,54,2,5,0,184,174,131,205,1,15181
171.686122894,2,0,-145,-11,-39,15,-15,-42,13,60,80,251,91,16,48,2,5,0,187,172,145,189,1,15182
171.709516048,2,0,-145,-14,-47,12,-15,-43,13,60,80,251,91,16,48,2,5,0,190,167,133,204,1,15183
171.716028928,3,0,-144,-13,-39,13,-15,-44,13,64,71,136,62,20,39,2,5,0,190,167,133,204,1,15184
171.726847887,3,0,-144,-13,-39,13,-15,-44,13,64,71,136,62,20,39,2,5,0,187,171,146,190,1,15185
171.738928079,3,0,-144,-17,-43,11,-15,-44,13,64,71,136,62,20,39,2,5,0,187,171,146,190,1,15186
171.756130933,1,0,-144,-17,-43,11,-15,-44,13,18,-123,175,29,22,28,2,5,0,191,165,137,201,1,15187
171.768970966,0,1,-144,-20,-44,11,-15,-44,13,136,-132,58,0,23,17,2,5,0,191,165,137,201,1,15188
171.778070926,0,1,-144,-20,-44,11,-15,-44,13,136,-132,58,0,23,17,2,5,0,193,163,139,199,1,15189
171.788884878,0,1,-144,-12,-43,14,-15,-44,13,136,-132,58,0,23,17,2,5,0,193,163,139,199,1,15190
171.808121919,0,3,-144,-12,-43,14,-15,-44,13,165,10,219,-18,22,7,2,5,0,183,175,139,197,1,15191
171.818976879,2,3,-143,-11,-44,17,-14,-44,13,38,169,128,-23,17,253,2,5,0,183,175,139,197,1,15192
171.830659866,2,3,-143,-11,-44,17,-14,-44,13,38,169,128,-23,17,253,2,5,0,187,174,136,197,1,15193
171.840873003,2,2,-143,-9,-40,17,-14,-44,13,38,169,128,-23,17,253,2,5,0,186,175,142,192,1,15194
171.859040022,1,2,-143,-9,-40,17,-14,-44,13,-11,-47,36,-14,10,243,2,5,0,187,174,140,194,1,15195
171.870357036,1,-1,-143,-13,-42,14,-14,-43,13,-142,1,151,6,1,234,2,5,0,187,174,140,194,1,15196
171.880935907,1,-1,-143,-18,-39,11,-14,-43,13,-142,1,151,6,1,234,2,5,0,190,168,138,198,1,15197
171.892143011,1,-1,-143,-18,-39,11,-14,-43,13,-142,1,151,6,1,234,2,5,0,193,163,144,194,1,15198
171.910906076,1,-1,-143,-12,-46,12,-14,-43,13,-10,54,232,32,-7,226,2,5,0,183,173,134,203,1,15199
171.922693967,0,-4,-143,-20,-39,12,-14,-42,14,-119,-95,191,56,-12,219,2,5,0,183,173,134,203,1,15200
171.932964086,0,-4,-143,-20,-39,12,-14,-42,14,-119,-95,191,56,-12,219,2,5,0,196,161,145,192,1,15201
171.944047928,0,-4,-143,-15,-45,12,-13,-42,14,-119,-95,191,56,-12,219,2,5,0,186,171,135,202,1,15202
171.96192789,1,-6,-143,-15,-45,12,-13,-42,14,-164,112,211,70,-12,213,2,5,0,189,168,138,199,1,15203
171.972871065,2,-6,-142,-9,-45,17,-13,-42,14,57,88,223,68,-9,209,2,5,0,189,168,138,199,1,15204
171.983908891,2,-6,-142,-9,-39,16,-13,-42,14,57,88,223,68,-9,209,2,5,0,184,177,136,197,1,15205
171.995183944,2,-6,-142,-9,-39,16,-13,-42,14,57,88,223,68,-9,209,2,5,0,186,174,144,190,1,15206
172.014760971,2,-6,-142,-9,-41,15,-14,-42,14,-14,22,167,50,-2,207,2,5,0,186,174,138,196,1,15207
172.025323867,2,-9,-142,-17,-38,14,-14,-42,13,-29,5,14,20,5,205,2,5,0,186,174,138,196,1,15208
172.035959959,2,-9,-142,-17,-38,14,-14,-42,13,-29,5,14,20,5,205,2,5,0,195,164,143,192,1,15209
172.046911001,1,-9,-142,-17,-42,11,-14,-42,13,-29,5,14,20,5,205,2,5,0,195,164,143,192,1,15210
172.064975023,0,-10,-142,-17,-42,11,-14,-42,13,-111,-131,21,-15,15,205,2,5,0,189,167,138,200,1,15211
172.07869792,0,-13,-141,-14,-47,12,-14,-42,13,-133,1,193,-51,24,205,2,5,0,189,167,138,200,1,15212
172.08701086,0,-13,-141,-14,-47,12,-14,-42,13,-133,1,193,-51,24,205,2,5,0,186,170,134,203,1,15213
172.097861051,0,-12,-141,-14,-41,11,-13,-42,14,-133,1,193,-51,24,205,2,5,0,186,170,134,203,1,15214
172.117959022,0,-12,-141,-10,-47,12,-13,-42,14,-32,-11,100,-82,30,207,2,5,0,184,173,136,201,1,15215
172.127876997,-3,-13,-141,-6,-41,18,-13,-42,14,-48,-159,175,-106,31,212,2,5,0,184,173,136,201,1,15216
172.139047861,-3,-13,-141,-6,-41,18,-13,-42,14,-48,-159,175,-106,31,212,2,5,0,183,179,142,190,1,15217
172.151489973,-3,-12,-141,-12,-42,13,-13,-42,14,-48,-159,175,-106,31,212,2,5,0,183,179,142,190,1,15218
172.168931961,-6,-13,-141,-13,-43,14,-13,-42,13,-100,-24,33,-122,25,218,2,5,0,191,168,137,198,1,15219
172.179959058,-7,-15,-140,-24,-43,12,-13,-42,13,-169,-120,213,-128,12,227,2,5,0,191,168,137,198,1,15220
172.190976858,-7,-15,-140,-24,-43,12,-13,-42,13,-169,-120,213,-128,12,227,2,5,0,200,157,139,198,1,15221
172.20360589,-7,-14,-140,-16,-36,15,-13,-43,13,-169,-120,213,-128,12,227,2,5,0,200,157,139,198,1,15222
172.220877885,-10,-11,-140,-18,-42,15,-12,-43,13,118,-151,56,-127,-8,236,2,5,0,189,170,139,195,1,15223
172.232101917,-11,-15,-140,-11,-44,15,-12,-43,13,-169,-90,68,-119,-35,244,2,5,0,189,170,139,195,1,15224
172.242961883,-11,-15,-140,-11,-44,15,-12,-43,13,-169,-90,68,-119,-35,244,2,5,0,184,176,136,199,1,15225
172.253912925,-10,-14,-140,-7,-42,12,-13,-43,13,-169,-90,68,-119,-35,244,2,5,0,182,175,141,196,1,15226
172.272209882,-10,-17,-140,-7,-42,12,-13,-43,13,-96,27,88,-107,-68,248,2,5,0,184,173,140,197,1,15227
172.282886028,-9,-17,-139,-16,-42,12,-14,-43,14,-21,39,26,-93,-100,244,2,5,0,184,173,140,197,1,15228
172.293963909,-8,-16,-139,-12,-41,13,-15,-42,14,-21,39,26,-93,-100,244,2,5,0,193,164,140,197,1,15229
172.304879903,-8,-16,-139,-12,-41,13,-15,-42,14,-21,39,26,-93,-100,244,2,5,0,185,173,141,195,1,15230
172.324320078,-11,-14,-139,-12,-44,13,-15,-42,14,91,-195,184,-80,-126,231,2,5,0,187,171,136,200,1,15231
172.334923982,-11,-12,-139,-14,-44,13,-15,-41,14,62,-18,104,-68,-141,210,2,5,0,187,171,136,200,1,15232
172.345978975,-11,-12,-139,-14,-44,13,-15,-41,14,62,-18,104,-68,-141,210,2,5,0,189,169,138,198,1,15233
172.357120037,-10,-11,-139,-19,-48,13,-15,-41,14,62,-18,104,-68,-141,210,2,5,0,194,163,134,203,1,15234
172.375856876,-8,-12,-139,-20,-39,15,-14,-42,14,-124,92,17,-59,-142,185,2,5,0,194,166,145,190,1,15235
172.387119054,-10,-12,-139,-15,-44,15,-13,-42,13,13,-208,29,-50,-130,163,2,5,0,194,166,145,190,1,15236
172.398616075,-10,-12,-139,-15,-44,15,-13,-42,13,13,-208,29,-50,-130,163,2,5,0,187,172,135,200,1,15237
172.414582014,-10,-11,-138,-17,-38,18,-13,-43,13,13,-208,29,-50,-130,163,2,5,0,193,169,143,189,1,15238
172.427999019,-9,-12,-138,-6,-41,13,-13,-43,13,-109,2,11,-40,-108,147,2,5,0,178,180,139,198,1,15239
172.439008951,-6,-11,-138,-11,-40,13,-14,-44,13,87,227,217,-30,-82,141,2,5,0,178,180,139,198,1,15240
172.450075864,-6,-11,-138,-11,-40,13,-14,-44,13,87,227,217,-30,-82,141,2,5,0,189,169,142,194,1,15241
172.460875034,-5,-11,-138,-14,-46,12,-15,-44,13,87,227,217,-30,-82,141,2,5,0,189,169,142,194,1,15242
172.47897005,-6,-9,-138,-14,-46,12,-15,-44,13,163,-65,17,-21,-56,148,2,5,0,189,167,135,203,1,15243
172.489866972,-8,-9,-138,-14,-43,13,-15,-43,14,14,-142,38,-13,-33,165,2,5,0,189,167,135,203,1,15244
172.506583929,-8,-9,-138,-14,-43,13,-15,-43,14,14,-142,38,-13,-33,165,2,5,0,188,170,140,196,1,15245
172.512147903,-7,-8,-137,-16,-40,13,-15,-43,14,14,-142,38,-13,-33,165,2,5,0,188,170,140,196,1,15246
172.529903888,-8,-6,-137,-16,-40,13,-15,-43,14,238,-77,32,-7,-15,189,2,5,0,190,168,143,193,1,15247
172.54102087,-10,-4,-137,-13,-37,16,-15,-42,15,183,-146,216,0,-3,217,2,5,0,190,168,143,193,1,15248
172.55183196,-10,-4,-137,-13,-37,16,-15,-42,15,183,-146,216,0,-3,217,2,5,0,188,173,143,191,1,15249
172.56289196,-9,-4,-137,-13,-45,16,-14,-42,15,183,-146,216,0,-3,217,2,5,0,188,173,143,191,1,15250
172.581844091,-9,-1,-137,-13,-45,16,-14,-42,15,171,11,202,13,2,243,2,5,0,189,171,133,201,1,15251
172.592871904,-7,0,-137,-14,-45,13,-13,-41,14,176,202,72,31,0,8,2,5,0,189,171,133,201,1,15252
172.604064941,-7,0,-137,-14,-45,13,-13,-41,14,176,202,72,31,0,8,2,5,0,189,169,138,198,1,15253
172.614959001,-6,0,-137,-11,-39,12,-13,-41,14,176,202,72,31,0,8,2,5,0,185,172,146,192,1,15254
172.633192062,-4,2,-137,-11,-39,12,-13,-41,14,249,203,191,57,-10,22,2,5,0,186,171,142,195,1,15255
172.643923998,-4,4,-136,-13,-35,16,-13,-41,14,79,-33,69,87,-22,27,2,5,0,186,171,142,195,1,15256
172.65597701,-4,4,-136,-14,-42,10,-13,-41,14,79,-33,69,87,-22,27,2,5,0,189,171,145,189,1,15257
172.665870905,-4,4,-136,-14,-42,10,-13,-41,14,79,-33,69,87,-22,27,2,5,0,187,168,137,202,1,15258
172.690716982,-1,6,-136,-19,-46,14,-13,-41,14,114,129,105,120,-30,25,2,5,0,195,164,135,201,1,15259
172.696104049,1,3,-136,-19,-45,15,-13,-41,14,-22,70,87,154,-27,18,2,5,0,195,164,135,201,1,15260
172.70687294,1,3,-136,-19,-45,15,-13,-41,14,-22,70,87,154,-27,18,2,5,0,193,167,137,197,1,15261
172.718184948,0,3,-136,-9,-39,15,-14,-41,14,-22,70,87,154,-27,18,2,5,0,193,167,137,197,1,15262
172.73593688,2,3,-136,-9,-39,15,-14,-41,14,39,139,39,184,-13,7,2,5,0,181,179,144,190,1,15263
172.746893882,3,3,-135,-9,-39,13,-14,-41,14,45,103,128,205,11,249,2,5,0,181,179,144,190,1,15264
172.758140087,3,2,-135,-12,-46,12,-14,-41,14,45,103,128,205,11,249,2,5,0,185,173,142,194,1,15265
172.768923998,3,2,-135,-12,-46,12,-14,-41,14,45,103,128,205,11,249,2,5,0,188,169,134,203,1,15266
172.788018942,0,4,-135,-19,-43,12,-15,-41,14,145,-219,117,214,40,235,2,5,0,194,163,140,197,1,15267
172.798882961,-5,4,-135,-16,-50,16,-15,-42,14,63,-151,58,206,69,221,2,5,0,194,163,140,197,1,15268
172.810559988,-5,4,-135,-16,-50,16,-15,-42,14,63,-151,58,206,69,221,2,5,0,190,170,130,204,1,15269
172.820891857,-4,4,-135,-18,-38,12,-14,-42,14,63,-151,58,206,69,221,2,5,0,192,166,148,189,1,15270
172.83897686,-2,6,-135,-18,-38,12,-14,-42,14,136,146,149,184,90,211,2,5,0,191,166,142,194,1,15271
172.84998393,0,8,-135,-14,-35,15,-14,-42,14,58,225,220,153,98,205,2,5,0,191,166,142,194,1,15272
172.86151886,0,8,-135,-14,-35,15,-14,-42,14,58,225,220,153,98,205,2,5,0,187,173,145,190,1,15273
172.871897936,0,7,-134,-12,-40,16,-14,-43,14,58,225,220,153,98,205,2,5,0,188,172,137,197,1,15274
172.889958858,0,12,-134,-12,-40,16,-14,-43,14,208,-8,101,120,90,199,2,5,0,189,172,139,194,1,15275
172.901885032,-1,10,-134,-11,-45,14,-14,-43,13,3,-19,19,93,71,194,2,5,0,189,172,139,194,1,15276
172.912054062,-1,9,-134,-12,-50,14,-14,-43,14,3,-19,19,93,71,194,2,5,0,186,173,135,201,1,15277
172.922947883,-1,9,-134,-12,-50,14,-14,-43,14,3,-19,19,93,71,194,2,5,0,188,171,132,204,1,15278
172.942112922,2,8,-134,-16,-45,11,-14,-43,14,-27,195,193,79,48,188,2,5,0,191,165,141,197,1,15279
172.952903986,0,9,-134,-14,-37,12,-15,-43,14,122,-37,186,80,27,181,2,5,0,191,165,141,197,1,15280
172.963876009,0,9,-134,-14,-37,12,-15,-43,14,122,-37,186,80,27,181,2,5,0,187,170,147,190,1,15281
172.974935054,0,8,-134,-17,-40,15,-15,-42,14,122,-37,186,80,27,181,2,5,0,187,170,147,190,1,15282
172.992985963,1,9,-134,-17,-40,15,-15,-42,14,98,78,42,91,15,175,2,5,0,192,168,139,196,1,15283
173.003978014,1,9,-133,-18,-46,12,-14,-42,14,107,35,193,106,13,172,2,5,0,192,168,139,196,1,15284
173.014877081,1,9,-133,-9,-41,17,-14,-43,14,107,35,193,106,13,172,2,5,0,191,166,134,203,1,15285
173.025930881,1,9,-133,-9,-41,17,-14,-43,14,107,35,193,106,13,172,2,5,0,182,178,141,192,1,15286
173.045235872,-1,8,-133,-15,-49,11,-14,-43,14,-3,-141,168,118,19,173,2,5,0,192,165,132,206,1,15287
173.05638504,-1,5,-133,-10,-39,14,-14,-43,14,-47,-21,159,124,31,179,2,5,0,192,165,132,206,1,15288
173.067188024,-1,5,-133,-10,-39,14,-14,-43,14,-47,-21,159,124,31,179,2,5,0,184,175,147,189,1,15289
173.077926874,-1,4,-133,-11,-45,11,-14,-43,13,-47,-21,159,124,31,179,2,5,0,184,175,147,189,1,15290
173.096888065,-2,7,-133,-11,-45,11,-14,-43,13,160,-34,229,121,41,188,2,5,0,186,170,135,202,1,15291
173.108075857,-3,7,-133,-18,-44,14,-14,-43,13,87,-31,243,111,46,198,2,5,0,186,170,135,202,1,15292
173.119189024,-2,6,-132,-18,-40,11,-14,-43,13,87,-31,243,111,46,198,2,5,0,195,164,138,197,1,15293
173.13132596,-2,6,-132,-18,-40,11,-14,-43,13,87,-31,243,111,46,198,2,5,0,190,167,144,194,1,15294
173.149189949,-2,8,-132,-15,-35,16,-14,-43,13,178,-18,4,94,43,207,2,5,0,189,171,146,189,1,15295
173.159965038,-2,10,-132,-9,-36,14,-14,-43,13,23,36,1,76,31,213,2,5,0,189,171,146,189,1,15296
173.170841932,-2,10,-132,-9,-36,14,-14,-43,13,23,36,1,76,31,213,2,5,0,183,176,143,192,1,15297
173.181942939,-2,9,-132,-11,-41,17,-14,-43,13,23,36,1,76,31,213,2,5,0,189,172,136,198,1,15298
173.199874878,-1,11,-132,-13,-45,16,-14,-42,13,28,88,39,63,13,216,2,5,0,190,170,135,200,1,15299
173.211538076,0,10,-131,-7,-44,16,-14,-42,13,28,57,241,58,-6,219,2,5,0,190,170,135,200,1,15300
173.221987962,0,10,-131,-7,-44,16,-14,-42,13,28,57,241,58,-6,219,2,5,0,183,178,137,196,1,15301
173.233829975,0,9,-131,-16,-42,12,-14,-41,14,28,57,241,58,-6,219,2,5,0,183,178,137,196,1,15302
173.252048969,2,10,-131,-16,-42,12,-14,-41,14,123,185,182,67,-21,222,2,5,0,193,164,141,196,1,15303
173.270884037,3,9,-131,-21,-39,12,-14,-40,14,31,198,21,87,-27,227,2,5,0,193,164,141,196,1,15304
173.273874044,3,9,-131,-21,-39,12,-14,-40,14,31,198,21,87,-27,227,2,5,0,195,162,144,193,1,15305
173.284916877,3,8,-131,-17,-44,12,-13,-40,14,31,198,21,87,-27,227,2,5,0,195,162,144,193,1,15306
173.302980899,4,9,-131,-17,-44,12,-13,-40,14,103,56,115,115,-22,233,2,5,0,188,169,136,201,1,15307
173.315867901,0,10,-131,-12,-47,15,-13,-40,15,106,-125,20,141,-4,240,2,5,0,187,176,137,202,1,15308
173.330924034,0,10,-131,-12,-47,15,-13,-40,15,106,-125,20,141,-4,240,2,5,0,187,176,137,202,1,15309
173.338072061,0,9,-131,-15,-43,14,-13,-41,15,106,-125,20,141,-4,240,2,5,0,193,169,143,196,1,15310
173.356014013,-2,11,-131,-15,-43,14,-13,-41,15,99,-120,177,160,23,247,2,5,0,192,171,141,198,1,15311
173.367002964,-2,9,-130,-8,-44,14,-13,-41,15,-9,-4,70,167,53,251,2,5,0,192,171,141,198,1,15312
173.377888918,-2,9,-130,-8,-44,14,-13,-41,15,-9,-4,70,167,53,251,2,5,0,183,179,139,201,1,15313
173.390594005,-2,8,-130,-12,-45,14,-14,-42,14,-9,-4,70,167,53,251,2,5,0,192,171,139,200,1,15314
173.407971859,-4,8,-130,-12,-45,14,-14,-42,14,-34,-136,202,162,77,252,2,5,0,190,173,139,200,1,15315
173.422766924,-4,4,-130,-20,-40,14,-14,-43,14,-106,-23,194,145,87,247,2,5,0,190,173,139,200,1,15316
173.429858923,-4,4,-130,-13,-41,12,-15,-44,14,-106,-23,194,145,87,247,2,5,0,199,164,145,194,1,15317
173.441020012,-4,4,-130,-13,-41,12,-15,-44,14,-106,-23,194,145,87,247,2,5,0,186,175,142,199,1,15318
173.45896101,-1,1,-130,-20,-44,12,-15,-44,13,-220,214,191,119,80,240,2,5,0,197,164,140,201,1,15319
173.470001936,0,0,-129,-13,-42,12,-15,-44,13,-104,98,80,88,56,230,2,5,0,197,164,140,201,1,15320
173.482620954,0,0,-129,-13,-42,12,-15,-44,13,-104,98,80,88,56,230,2,5,0,187,175,143,198,1,15321
173.491950035,-1,-1,-129,-17,-49,14,-15,-44,13,-104,98,80,88,56,230,2,5,0,187,175,143,198,1,15322
173.512445926,-1,-3,-129,-17,-49,14,-15,-44,13,-158,0,2,51,25,221,2,5,0,195,168,132,207,1,15323
173.522161007,0,-6,-129,-14,-43,13,-14,-43,13,-238,148,40,11,-4,214,2,5,0,195,168,132,207,1,15324
173.532912016,0,-6,-129,-15,-42,13,-15,-43,13,-238,148,40,11,-4,214,2,5,0,188,174,145,195,1,15325
173.543855905,0,-6,-129,-15,-42,13,-15,-43,13,-238,148,40,11,-4,214,2,5,0,192,170,142,198,1,15326
173.562920093,1,-7,-129,-12,-39,14,-15,-43,13,-103,120,35,-30,-23,212,2,5,0,188,175,144,195,1,15327
173.578599929,0,-10,-129,-11,-37,13,-15,-43,13,-229,-71,213,-72,-26,216,2,5,0,188,175,144,195,1,15328
173.584915876,0,-10,-129,-11,-37,13,-15,-43,13,-229,-71,213,-72,-26,216,2,5,0,188,174,146,194,1,15329
173.595877885,0,-10,-129,-13,-48,13,-15,-43,13,-229,-71,213,-72,-26,216,2,5,0,191,171,133,208,1,15330
173.61423397,0,-8,-129,-13,-48,13,-15,-43,13,80,32,212,-110,-14,225,2,5,0,190,172,138,202,1,15331
173.624855041,1,-10,-128,-11,-46,14,-15,-43,13,-126,105,76,-141,9,238,2,5,0,190,172,138,202,1,15332
173.639045953,1,-10,-128,-11,-46,14,-15,-43,13,-126,105,76,-141,9,238,2,5,0,188,175,139,201,1,15333
173.646868944,1,-9,-128,-17,-46,17,-15,-43,13,-126,105,76,-141,9,238,2,5,0,197,168,138,199,1,15334
173.667207002,0,-12,-128,-17,-46,17,-15,-43,13,-172,-124,176,-163,37,252,2,5,0,194,171,137,200,1,15335
173.675206899,0,-14,-128,-15,-33,14,-14,-43,13,-127,102,213,-173,61,7,2,5,0,194,171,137,200,1,15336
173.685903072,0,-13,-128,-11,-40,15,-14,-43,13,-127,102,213,-173,61,7,2,5,0,190,172,153,186,1,15337
173.696870088,0,-13,-128,-11,-40,15,-14,-43,13,-127,102,213,-173,61,7,2,5,0,187,176,139,199,1,15338
173.71589899,0,-13,-128,-14,-42,14,-13,-43,14,-64,-90,108,-170,76,14,2,5,0,193,170,140,200,1,15339
173.72699809,-1,-12,-127,-14,-47,13,-13,-43,14,56,-92,38,-159,79,16,2,5,0,193,170,140,200,1,15340
173.737988948,-1,-12,-127,-14,-47,13,-13,-43,14,56,-92,38,-159,79,16,2,5,0,190,172,136,204,1,15341
173.748914003,-1,-12,-127,-15,-44,12,-13,-42,14,56,-92,38,-159,79,16,2,5,0,190,172,136,204,1,15342
173.767184972,-4,-13,-127,-15,-44,12,-13,-42,14,-133,-224,54,-141,70,13,2,5,0,191,170,142,199,1,15343
173.777951002,-2,-14,-127,-20,-34,17,-13,-42,15,-94,120,218,-121,50,8,2,5,0,191,170,142,199,1,15344
173.79085207,-2,-13,-127,-11,-44,14,-13,-42,15,-94,120,218,-121,50,8,2,5,0,198,167,150,187,1,15345
173.80005598,-2,-13,-127,-11,-44,14,-13,-42,15,-94,120,218,-121,50,8,2,5,0,184,178,136,204,1,15346
173.818938017,-2,-13,-127,-14,-40,16,-14,-42,15,-17,1,39,-101,23,5,2,5,0,193,172,143,194,1,15347
173.82989192,-5,-10,-126,-14,-40,14,-14,-41,14,88,-87,45,-83,-7,4,2,5,0,193,172,143,194,1,15348
173.841008901,-5,-10,-126,-14,-40,14,-14,-41,14,88,-87,45,-83,-7,4,2,5,0,191,172,143,196,1,15349
173.852148056,-4,-9,-126,-10,-39,15,-15,-41,14,88,-87,45,-83,-7,4,2,5,0,187,176,144,195,1,15350
173.870903015,-5,-10,-126,-10,-39,15,-15,-41,14,-34,-34,36,-69,-36,5,2,5,0,189,175,143,196,1,15351
173.882375002,-3,-10,-126,-13,-41,14,-15,-41,14,-10,98,206,-57,-58,7,2,5,0,189,175,143,196,1,15352
173.893128872,-3,-9,-126,-12,-42,11,-15,-41,14,-10,98,206,-57,-58,7,2,5,0,191,172,141,198,1,15353
173.904023885,-3,-9,-126,-12,-42,11,-15,-41,14,-10,98,206,-57,-58,7,2,5,0,188,173,141,200,1,15354
173.923300981,-2,-8,-126,-13,-39,11,-14,-41,14,32,5,192,-48,-70,6,2,5,0,190,170,146,196,1,15355
173.933897018,-3,-10,-126,-18,-46,9,-14,-40,14,-53,-29,166,-38,-70,1,2,5,0,190,170,146,196,1,15356
173.946711063,-3,-10,-126,-18,-46,9,-14,-40,14,-53,-29,166,-38,-70,1,2,5,0,193,165,138,206,1,15357
173.955960989,-3,-9,-126,-14,-38,15,-13,-40,14,-53,-29,166,-38,-70,1,2,5,0,189,175,147,191,1,15358
173.973948955,-1,-12,-126,-14,-38,15,-13,-40,14,-93,84,84,-28,-61,248,2,5,0,191,172,143,195,1,15359
173.984893083,-2,-14,-125,-10,-39,17,-13,-40,14,-120,-113,240,-19,-44,235,2,5,0,191,172,143,195,1,15360
173.995970964,-2,-14,-125,-10,-39,17,-13,-40,14,-120,-113,240,-19,-44,235,2,5,0,188,177,142,195,1,15361
174.006958007,-2,-13,-125,-14,-47,12,-12,-40,14,-120,-113,240,-19,-44,235,2,5,0,188,177,142,195,1,15362
174.024854898,-3,-14,-125,-14,-47,12,-12,-40,14,-72,-60,19,-12,-23,220,2,5,0,192,169,135,206,1,15363
174.036053896,-6,-15,-125,-11,-43,13,-13,-41,13,-84,-126,166,-10,-4,204,2,5,0,192,169,135,206,1,15364
174.047024965,-5,-14,-125,-18,-40,13,-13,-41,12,-84,-126,166,-10,-4,204,2,5,0,187,175,143,197,1,15365
174.060494899,-5,-14,-125,-18,-40,13,-13,-41,12,-84,-126,166,-10,-4,204,2,5,0,197,165,145,196,1,15366
174.076974868,-9,-14,-125,-11,-36,13,-13,-41,12,-31,-204,111,-14,9,189,2,5,0,185,177,147,193,1,15367
174.087936878,-9,-18,-124,-18,-39,14,-14,-42,12,-146,4,100,-24,13,179,2,5,0,185,177,147,193,1,15368
174.098896026,-9,-18,-124,-18,-39,14,-14,-42,12,-146,4,100,-24,13,179,2,5,0,196,166,142,197,1,15369
174.109863043,-8,-17,-124,-14,-41,14,-14,-42,12,-146,4,100,-24,13,179,2,5,0,196,166,142,197,1,15370
174.127938032,-10,-12,-124,-14,-41,14,-14,-42,12,175,-94,-1,-39,5,173,2,5,0,189,174,140,199,1,15371
174.13892889,-14,-12,-124,-13,-46,15,-14,-42,13,15,-130,86,-54,-12,170,2,5,0,189,174,140,199,1,15372
174.149899006,-14,-12,-124,-13,-46,15,-14,-42,13,15,-130,86,-54,-12,170,2,5,0,190,173,136,202,1,15373
174.161880016,-13,-11,-124,-14,-40,14,-14,-41,13,15,-130,86,-54,-12,170,2,5,0,190,173,136,202,1,15374
174.179916858,-11,-14,-124,-12,-43,13,-14,-41,13,-232,99,190,-67,-37,166,2,5,0,188,173,142,198,1,15375
174.191070079,-9,-14,-123,-14,-36,16,-14,-40,14,-9,69,237,-73,-64,159,2,5,0,188,173,142,198,1,15376
174.201861858,-9,-14,-123,-14,-36,16,-14,-40,14,-9,69,237,-73,-64,159,2,5,0,193,172,148,189,1,15377
174.21301794,-8,-13,-123,-10,-41,12,-14,-40,14,-9,69,237,-73,-64,159,2,5,0,185,176,140,201,1,15378
174.231921911,-11,-14,-123,-10,-41,12,-14,-40,14,-44,-208,206,-71,-86,149,2,5,0,187,174,143,198,1,15379
174.246537923,-10,-16,-123,-17,-49,13,-14,-40,14,-163,95,224,-64,-98,137,2,5,0,187,174,143,198,1,15380
174.25394392,-10,-16,-123,-17,-49,13,-14,-40,14,-163,95,224,-64,-98,137,2,5,0,196,167,133,207,1,15381
174.264957904,-9,-15,-123,-12,-44,16,-14,-41,14,-163,95,224,-64,-98,137,2,5,0,188,177,141,197,1,15382
174.282979965,-9,-19,-123,-12,-44,16,-14,-41,14,-50,49,246,-55,-97,127,2,5,0,190,174,139,199,1,15383
174.293926954,-10,-21,-123,-15,-45,15,-14,-41,14,-222,-174,0,-48,-86,125,2,5,0,190,174,139,199,1,15384
174.304960966,-9,-20,-122,-18,-42,11,-13,-41,14,-222,-174,0,-48,-86,125,2,5,0,194,170,138,200,1,15385
174.316150903,-9,-20,-122,-18,-42,11,-13,-41,14,-222,-174,0,-48,-86,125,2,5,0,194,167,144,198,1,15386
174.33485794,-9,-19,-122,-13,-43,13,-13,-42,14,-15,-12,10,-48,-66,132,2,5,0,187,175,141,199,1,15387
174.346070051,-9,-19,-122,-14,-39,11,-13,-43,14,-45,-16,61,-59,-43,148,2,5,0,187,175,141,199,1,15388
174.356988907,-9,-19,-122,-14,-39,11,-13,-43,14,-45,-16,61,-59,-43,148,2,5,0,190,170,146,195,1,15389
174.367903948,-8,-18,-122,-10,-36,15,-13,-43,14,-45,-16,61,-59,-43,148,2,5,0,187,177,146,192,1,15390
174.385859966,-10,-20,-122,-10,-36,15,-13,-43,14,-79,-49,112,-79,-23,172,2,5,0,189,175,145,193,1,15391
174.396945953,-7,-20,-122,-9,-41,14,-14,-44,14,-31,151,198,-104,-9,199,2,5,0,189,175,145,193,1,15392
174.408014059,-7,-20,-122,-9,-41,14,-14,-44,14,-31,151,198,-104,-9,199,2,5,0,188,175,139,200,1,15393
174.419123888,-6,-19,-122,-16,-50,12,-14,-44,14,-31,151,198,-104,-9,199,2,5,0,194,167,132,209,1,15394
174.437273025,-6,-19,-122,-16,-50,12,-14,-44,14,-64,-22,102,-126,-3,225,2,5,0,191,170,136,204,1,15395
174.447949886,-6,-18,-121,-13,-47,14,-14,-43,14,59,-6,57,-140,-3,247,2,5,0,191,170,136,204,1,15396
174.458930015,-6,-17,-121,-22,-48,17,-14,-42,13,59,-6,57,-140,-3,247,2,5,0,189,173,140,199,1,15397
174.469903946,-6,-17,-121,-22,-48,17,-14,-42,13,59,-6,57,-140,-3,247,2,5,0,201,163,136,201,1,15398
174.491291046,-5,-18,-121,-13,-36,15,-14,-42,13,-130,16,57,-142,-5,4,2,5,0,186,177,151,188,1,15399
174.499880075,-3,-17,-121,-16,-34,13,-13,-42,13,37,166,9,-131,-7,11,2,5,0,186,177,151,188,1,15400
174.511049032,-3,-17,-121,-16,-34,13,-13,-42,13,37,166,9,-131,-7,11,2,5,0,193,169,148,192,1,15401
174.521903991,-3,-16,-121,-8,-35,14,-13,-42,13,37,166,9,-131,-7,11,2,5,0,193,169,148,192,1,15402
174.540063858,-2,-15,-121,-8,-35,14,-13,-42,13,97,94,118,-110,-6,13,2,5,0,183,180,146,194,1,15403
174.553196907,-2,-14,-120,-13,-45,14,-14,-42,14,7,-27,208,-82,-1,14,2,5,0,183,180,146,194,1,15404
174.561990976,-2,-13,-120,-10,-48,13,-14,-43,14,7,-27,208,-82,-1,14,2,5,0,192,170,134,206,1,15405
174.572871923,-2,-13,-120,-10,-48,13,-14,-43,14,7,-27,208,-82,-1,14,2,5,0,186,175,137,204,1,15406
174.592021942,-1,-15,-120,-18,-46,11,-14,-42,14,-193,70,249,-53,7,16,2,5,0,196,164,141,201,1,15407
174.602941036,-1,-16,-120,-16,-39,13,-15,-42,14,-105,-1,21,-25,21,20,2,5,0,196,164,141,201,1,15408
174.613952875,-1,-16,-120,-16,-39,13,-15,-42,14,-105,-1,21,-25,21,20,2,5,0,190,172,146,194,1,15409
174.626532077,-1,-16,-120,-18,-46,13,-14,-41,14,-105,-1,21,-25,21,20,2,5,0,190,172,146,194,1,15410
174.646679878,-1,-15,-120,-18,-46,13,-14,-41,14,0,36,225,-4,36,25,2,5,0,194,167,136,204,1,15411
174.654999017,0,-19,-120,-13,-41,16,-14,-41,14,-225,69,136,7,49,29,2,5,0,194,167,136,204,1,15412
174.665874004,0,-19,-120,-13,-41,16,-14,-41,14,-225,69,136,7,49,29,2,5,0,188,176,144,195,1,15413
174.67692995,0,-18,-120,-13,-39,15,-14,-41,14,-225,69,136,7,49,29,2,5,0,188,176,144,195,1,15414
174.695842981,1,-18,-119,-13,-36,15,-14,-42,13,-87,111,241,6,59,30,2,5,0,190,173,147,192,1,15415
174.706956863,0,-19,-119,-7,-42,12,-14,-42,13,-52,-58,190,-5,62,26,2,5,0,190,173,147,192,1,15416
174.718469858,0,-19,-119,-7,-42,12,-14,-42,13,-52,-58,190,-5,62,26,2,5,0,182,178,140,202,1,15417
174.728885889,0,-18,-119,-18,-47,11,-14,-43,13,-52,-58,190,-5,62,26,2,5,0,198,162,136,206,1,15418
174.746891975,-2,-17,-119,-18,-47,11,-14,-43,13,75,-139,244,-27,61,17,2,5,0,192,168,139,203,1,15419
174.757891893,0,-17,-119,-15,-46,11,-14,-43,13,-22,223,33,-52,57,3,2,5,0,192,168,139,203,1,15420
174.769101858,0,-17,-119,-15,-46,11,-14,-43,13,-22,223,33,-52,57,3,2,5,0,189,172,140,201,1,15421
174.779963016,0,-16,-119,-13,-39,13,-14,-42,13,-22,223,33,-52,57,3,2,5,0,189,173,147,194,1,15422
174.79817295,0,-14,-119,-13,-39,13,-14,-42,13,145,-72,38,-76,49,243,2,5,0,190,172,144,197,1,15423
174.809164047,-3,-14,-118,-12,-35,14,-14,-42,14,-4,-201,255,-91,39,228,2,5,0,190,172,144,197,1,15424
174.82004404,-3,-14,-118,-12,-35,14,-14,-42,14,-4,-201,255,-91,39,228,2,5,0,189,174,148,191,1,15425
174.83099699,-3,-13,-118,-12,-41,16,-14,-42,14,-4,-201,255,-91,39,228,2,5,0,189,174,138,200,1,15426
174.848988056,-4,-14,-118,-12,-41,16,-14,-42,14,-112,-131,94,-93,27,218,2,5,0,190,174,141,197,1,15427
174.860053062,-6,-16,-118,-11,-47,14,-13,-41,13,-135,-85,228,-81,15,215,2,5,0,190,174,141,197,1,15428
174.870903968,-5,-15,-118,-16,-47,12,-13,-41,13,-135,-85,228,-81,15,215,2,5,0,189,174,135,204,1,15429
174.882153988,-5,-15,-118,-16,-47,12,-13,-41,13,-135,-85,228,-81,15,215,2,5,0,193,168,139,202,1,15430
174.900949955,-5,-17,-118,-13,-45,13,-13,-41,13,-151,-30,167,-59,0,220,2,5,0,189,173,140,200,1,15431
174.911936998,-3,-18,-118,-18,-40,11,-13,-41,13,-75,187,39,-33,-17,232,2,5,0,189,173,140,200,1,15432
174.924156904,-3,-18,-118,-18,-40,11,-13,-41,13,-75,187,39,-33,-17,232,2,5,0,195,165,146,196,1,15433
174.934068918,-3,-17,-118,-17,-42,16,-13,-42,13,-75,187,39,-33,-17,232,2,5,0,192,172,139,199,1,15434
174.952131986,-5,-17,-118,-17,-42,16,-13,-42,13,-19,-110,163,-13,-37,247,2,5,0,193,171,140,198,1,15435
174.962914943,-9,-17,-117,-11,-41,15,-13,-42,13,-32,-196,167,-5,-55,4,2,5,0,193,171,140,198,1,15436
174.973953962,-8,-16,-117,-13,-41,14,-13,-43,13,-32,-196,167,-5,-55,4,2,5,0,187,177,142,197,1,15437
174.984967947,-8,-16,-117,-13,-41,14,-13,-43,13,-32,-196,167,-5,-55,4,2,5,0,191,172,142,197,1,15438
175.004132986,-6,-17,-117,-16,-37,14,-14,-43,14,-118,104,23,-10,-66,13,2,5,0,193,170,146,193,1,15439
175.015169859,-6,-17,-117,-13,-36,14,-14,-43,14,-71,-12,74,-25,-70,14,2,5,0,193,170,146,193,1,15440
175.027106046,-6,-17,-117,-13,-36,14,-14,-43,14,-71,-12,74,-25,-70,14,2,5,0,188,174,146,193,1,15441
175.036922931,-6,-16,-117,-16,-44,14,-15,-43,14,-71,-12,74,-25,-70,14,2,5,0,188,174,146,193,1,15442
175.056025982,-6,-16,-117,-16,-44,14,-15,-43,14,0,13,26,-45,-67,7,2,5,0,194,169,135,204,1,15443
175.066921949,-5,-16,-116,-11,-49,13,-15,-42,14,20,65,96,-65,-58,253,2,5,0,194,169,135,204,1,15444
175.079011917,-4,-15,-116,-14,-45,15,-15,-42,14,20,65,96,-65,-58,253,2,5,0,186,176,135,206,1,15445
175.088969946,-4,-15,-116,-14,-45,15,-15,-42,14,20,65,96,-65,-58,253,2,5,0,193,170,142,197,1,15446
175.107941866,-4,-12,-116,-12,-39,14,-15,-41,14,138,20,93,-80,-45,243,2,5,0,188,175,145,194,1,15447
175.119061947,-6,-11,-116,-14,-34,15,-14,-40,14,37,-128,174,-86,-30,238,2,5,0,188,175,145,194,1,15448
175.129832029,-6,-11,-116,-14,-34,15,-14,-40,14,37,-128,174,-86,-30,238,2,5,0,193,171,149,190,1,15449
175.140908956,-6,-11,-116,-15,-41,13,-14,-40,14,37,-128,174,-86,-30,238,2,5,0,191,171,139,201,1,15450
175.158968925,-5,-12,-116,-15,-41,13,-14,-40,14,-118,67,45,-81,-15,240,2,5,0,191,171,143,198,1,15451
175.169852018,-3,-13,-115,-17,-44,10,-14,-41,14,-30,142,191,-66,-1,249,2,5,0,191,171,143,198,1,15452
175.180947065,-3,-13,-115,-17,-44,10,-14,-41,14,-30,142,191,-66,-1,249,2,5,0,192,167,140,202,1,15453
175.192591905,-2,-12,-115,-10,-42,13,-13,-41,14,-30,142,191,-66,-1,249,2,5,0,185,177,142,198,1,15454
175.210044861,-6,-14,-115,-10,-42,13,-13,-41,14,-65,-89,53,-43,9,7,2,5,0,188,174,141,199,1,15455
175.221276998,-2,-15,-115,-17,-44,11,-13,-42,14,-56,241,236,-17,16,20,2,5,0,188,174,141,199,1,15456
175.232452869,-2,-14,-115,-13,-39,15,-13,-42,14,-56,241,236,-17,16,20,2,5,0,195,166,141,201,1,15457
175.242954969,-2,-14,-115,-13,-39,15,-13,-42,14,-56,241,236,-17,16,20,2,5,0,189,175,145,193,1,15458
175.261940002,-2,-12,-115,-20,-43,13,-14,-42,13,98,-13,49,2,20,26,2,5,0,198,164,139,201,1,15459
175.273030042,-5,-9,-115,-11,-43,15,-14,-42,13,15,-207,231,14,24,24,2,5,0,198,164,139,201,1,15460
175.286638021,-5,-9,-115,-11,-43,15,-14,-42,13,15,-207,231,14,24,24,2,5,0,185,178,140,198,1,15461
175.295593023,-4,-9,-115,-17,-37,12,-14,-41,13,15,-207,231,14,24,24,2,5,0,185,178,140,198,1,15462
175.312934875,-5,-9,-115,-17,-37,12,-14,-41,13,-44,-54,246,17,27,12,2,5,0,195,167,148,192,1,15463
175.326668977,-4,-7,-114,-18,-43,12,-15,-41,13,177,62,241,15,30,251,2,5,0,195,167,148,192,1,15464
175.334927082,-4,-7,-114,-13,-38,16,-15,-41,13,177,62,241,15,30,251,2,5,0,193,168,138,203,1,15465
175.346572876,-4,-7,-114,-13,-38,16,-15,-41,13,177,62,241,15,30,251,2,5,0,188,176,146,192,1,15466
175.364970922,-5,-5,-114,-17,-47,12,-15,-41,13,84,-57,29,14,30,233,2,5,0,194,168,134,206,1,15467
175.376056909,-3,-6,-114,-9,-40,15,-16,-41,13,-19,86,18,17,24,218,2,5,0,194,168,134,206,1,15468
175.386923074,-3,-6,-114,-9,-40,15,-16,-41,13,-19,86,18,17,24,218,2,5,0,185,179,146,193,1,15469
175.397971868,-3,-6,-114,-16,-37,14,-16,-41,13,-19,86,18,17,24,218,2,5,0,195,167,146,194,1,15470
175.418814897,-6,-6,-114,-16,-37,14,-16,-41,13,-11,-197,219,27,13,211,2,5,0,192,170,145,195,1,15471
175.427018881,-9,-8,-113,-13,-41,12,-16,-41,14,-143,-35,236,42,0,212,2,5,0,192,170,145,195,1,15472
175.437927961,-9,-8,-113,-13,-41,12,-16,-41,14,-143,-35,236,42,0,212,2,5,0,188,173,141,200,1,15473
175.448952913,-8,-7,-113,-10,-45,14,-15,-41,14,-143,-35,236,42,0,212,2,5,0,187,175,138,202,1,15474
175.467905998,-10,-9,-113,-10,-45,14,-15,-41,14,-127,-125,3,57,-14,219,2,5,0,188,174,140,200,1,15475
175.479197025,-7,-11,-113,-12,-44,12,-15,-41,14,-98,155,218,66,-30,231,2,5,0,188,174,140,200,1,15476
175.49003601,-7,-10,-113,-15,-46,15,-14,-41,14,-98,155,218,66,-30,231,2,5,0,190,171,141,200,1,15477
175.502637863,-7,-10,-113,-15,-46,15,-14,-41,14,-98,155,218,66,-30,231,2,5,0,193,170,137,202,1,15478
175.519885063,-11,-10,-113,-12,-37,16,-14,-41,14,-22,-242,84,64,-48,243,2,5,0,189,176,148,189,1,15479
175.530055999,-14,-10,-113,-14,-37,15,-13,-41,14,-25,-144,158,48,-68,253,2,5,0,189,176,148,189,1,15480
175.541066885,-14,-10,-113,-14,-37,15,-13,-41,14,-25,-144,158,48,-68,253,2,5,0,192,172,144,194,1,15481
175.551928043,-13,-10,-113,-15,-35,13,-13,-42,13,-25,-144,158,48,-68,253,2,5,0,192,172,144,194,1,15482
175.570918083,-12,-9,-113,-15,-35,13,-13,-42,13,34,22,158,20,-86,0,2,5,0,192,170,147,193,1,15483
175.582072019,-12,-9,-112,-15,-44,11,-12,-42,13,32,-44,212,-13,-101,252,2,5,0,192,170,147,193,1,15484
175.592872858,-12,-8,-112,-14,-48,13,-12,-42,14,32,-44,212,-13,-101,252,2,5,0,191,170,137,204,1,15485
175.604163885,-12,-8,-112,-14,-48,13,-12,-42,14,32,-44,212,-13,-101,252,2,5,0,190,172,135,205,1,15486
175.622879982,-9,-9,-112,-11,-45,16,-13,-42,14,-103,140,242,-44,-110,239,2,5,0,188,176,141,198,1,15487
175.633924961,-8,-11,-112,-14,-43,18,-13,-41,14,-68,5,198,-67,-112,220,2,5,0,188,176,141,198,1,15488
175.645078897,-8,-11,-112,-14,-43,18,-13,-41,14,-68,5,198,-67,-112,220,2,5,0,194,173,140,196,1,15489
175.66170597,-8,-10,-112,-13,-45,13,-14,-41,14,-68,5,198,-67,-112,220,2,5,0,189,173,139,201,1,15490
175.673924923,-9,-10,-112,-13,-45,13,-14,-41,14,46,-106,246,-78,-105,200,2,5,0,190,173,140,200,1,15491
175.690572023,-13,-9,-111,-12,-38,15,-14,-41,14,84,-80,207,-76,-89,183,2,5,0,190,173,140,200,1,15492
175.69589591,-13,-9,-111,-12,-38,15,-14,-41,14,84,-80,207,-76,-89,183,2,5,0,189,174,146,192,1,15493
175.706896066,-12,-8,-111,-16,-38,14,-14,-41,14,84,-80,207,-76,-89,183,2,5,0,194,169,144,195,1,15494
175.725234985,-10,-8,-111,-16,-38,14,-14,-41,14,3,89,134,-65,-67,173,2,5,0,192,171,144,195,1,15495
175.735871076,-10,-6,-111,-19,-40,13,-14,-42,14,133,-21,176,-47,-46,170,2,5,0,192,171,144,195,1,15496
175.748164892,-9,-5,-111,-9,-33,13,-14,-43,15,133,-21,176,-47,-46,170,2,5,0,196,166,142,199,1,15497
175.757967949,-9,-5,-111,-9,-33,13,-14,-43,15,133,-21,176,-47,-46,170,2,5,0,182,180,151,189,1,15498
175.780802011,-10,-1,-111,-16,-46,10,-14,-43,15,20,-89,163,-26,-30,175,2,5,0,193,166,134,209,1,15499
175.787997961,-12,-1,-111,-9,-42,10,-13,-43,15,55,-209,177,-4,-24,183,2,5,0,193,166,134,209,1,15500
175.799090862,-12,-1,-111,-9,-42,10,-13,-43,15,55,-209,177,-4,-24,183,2,5,0,183,177,145,198,1,15501
175.810922861,-12,-2,-111,-19,-46,14,-13,-42,15,55,-209,177,-4,-24,183,2,5,0,183,177,145,198,1,15502
175.828131914,-15,0,-111,-19,-46,14,-13,-42,15,250,-27,60,19,-27,192,2,5,0,199,164,136,203,1,15503
175.839037895,-15,3,-110,-16,-45,14,-14,-41,14,154,-11,122,45,-38,197,2,5,0,199,164,136,203,1,15504
175.849986076,-14,3,-110,-18,-39,16,-14,-40,13,154,-11,122,45,-38,197,2,5,0,190,173,140,199,1,15505
175.860944986,-14,3,-110,-18,-39,16,-14,-40,13,154,-11,122,45,-38,197,2,5,0,195,169,145,192,1,15506
175.880071878,-11,3,-110,-19,-43,15,-14,-40,13,73,88,34,73,-57,196,2,5,0,195,168,138,201,1,15507
175.890954017,-11,5,-110,-11,-42,12,-14,-40,12,172,-25,235,100,-79,190,2,5,0,195,168,138,201,1,15508
175.90397191,-11,5,-110,-11,-42,12,-14,-40,12,172,-25,235,100,-79,190,2,5,0,184,177,143,198,1,15509
175.912950992,-10,4,-110,-15,-44,15,-15,-41,12,172,-25,235,100,-79,190,2,5,0,194,170,138,200,1,15510
175.931930065,-11,5,-110,-15,-44,15,-15,-41,12,70,-77,95,126,-100,180,2,5,0,192,172,140,199,1,15511
175.942866087,-11,5,-109,-11,-44,15,-15,-42,13,197,-42,101,147,-114,170,2,5,0,192,172,140,199,1,15512
175.953896999,-11,5,-109,-11,-44,15,-15,-42,13,197,-42,101,147,-114,170,2,5,0,188,176,139,199,1,15513
175.965014934,-10,5,-109,-14,-37,12,-16,-43,13,197,-42,101,147,-114,170,2,5,0,192,169,149,192,1,15514
175.982912063,-10,6,-109,-14,-37,12,-16,-43,13,75,46,198,161,-117,165,2,5,0,190,171,145,195,1,15515
175.994159937,-8,7,-109,-18,-40,10,-16,-43,14,107,84,245,166,-109,170,2,5,0,190,171,145,195,1,15516
176.005115032,-7,6,-109,-13,-43,14,-16,-44,14,107,84,245,166,-109,170,2,5,0,194,166,142,200,1,15517
176.01593709,-7,6,-109,-13,-43,14,-16,-44,14,107,84,245,166,-109,170,2,5,0,187,175,139,201,1,15518
176.034887075,-4,7,-109,-14,-41,15,-15,-43,15,156,214,174,164,-91,186,2,5,0,192,171,143,196,1,15519
176.045876979,-6,6,-108,-13,-44,17,-15,-43,14,8,-168,248,156,-65,209,2,5,0,192,171,143,196,1,15520
176.056848049,-6,6,-108,-13,-44,17,-15,-43,14,8,-168,248,156,-65,209,2,5,0,190,175,137,200,1,15521
176.068233966,-6,5,-108,-8,-40,16,-14,-42,14,8,-168,248,156,-65,209,2,5,0,190,175,137,200,1,15522
176.086659908,-6,5,-108,-8,-40,16,-14,-42,14,-14,-23,190,144,-35,235,2,5,0,186,179,143,195,1,15523
176.096992016,-4,4,-108,-13,-37,12,-14,-41,14,0,106,219,130,-4,1,2,5,0,186,179,143,195,1,15524
176.107863903,-4,3,-108,-20,-42,15,-14,-41,14,0,106,219,130,-4,1,2,5,0,192,169,147,194,1,15525
176.118921995,-4,3,-108,-20,-42,15,-14,-41,14,0,106,219,130,-4,1,2,5,0,198,165,139,200,1,15526
176.137923956,-2,4,-108,-12,-35,13,-13,-41,14,68,160,244,115,22,14,2,5,0,185,177,149,191,1,15527
176.150122881,-1,0,-108,-21,-46,15,-13,-40,14,-185,36,178,98,42,17,2,5,0,185,177,149,191,1,15528
176.159991979,-1,0,-108,-21,-46,15,-13,-40,14,-185,36,178,98,42,17,2,5,0,200,163,133,206,1,15529
176.170811891,-1,0,-108,-11,-43,13,-13,-40,14,-185,36,178,98,42,17,2,5,0,183,179,143,197,1,15530
176.188888073,-1,-3,-108,-11,-43,13,-13,-40,14,-16,19,69,80,53,10,2,5,0,188,174,141,199,1,15531
176.199964046,0,-7,-107,-9,-38,14,-13,-40,14,-58,102,149,58,59,252,2,5,0,188,174,141,199,1,15532
176.210902929,0,-7,-107,-11,-46,12,-14,-40,15,-58,102,149,58,59,252,2,5,0,187,176,146,193,1,15533
176.221849918,0,-7,-107,-11,-46,12,-14,-40,15,-58,102,149,58,59,252,2,5,0,189,172,135,206,1,15534
176.240880966,0,-10,-107,-11,-35,14,-14,-41,15,-204,-1,224,31,60,237,2,5,0,189,174,151,188,1,15535
176.251941919,0,-11,-107,-16,-43,14,-14,-41,14,-78,24,252,-2,59,223,2,5,0,189,174,151,188,1,15536
176.262955904,0,-11,-107,-16,-43,14,-14,-41,14,-78,24,252,-2,59,223,2,5,0,195,167,137,203,1,15537
176.273941993,0,-10,-107,-15,-35,17,-14,-41,14,-78,24,252,-2,59,223,2,5,0,192,174,149,188,1,15538
176.291877031,2,-12,-107,-15,-35,17,-14,-41,14,-49,112,110,-45,57,213,2,5,0,193,173,145,192,1,15539
176.303025007,2,-11,-106,-12,-38,13,-14,-41,14,67,7,36,-92,55,207,2,5,0,193,173,145,192,1,15540
176.31399703,2,-11,-106,-12,-38,13,-14,-41,14,67,7,36,-92,55,207,2,5,0,188,174,142,198,1,15541
176.324862957,1,-10,-106,-12,-45,11,-13,-41,14,67,7,36,-92,55,207,2,5,0,188,174,142,198,1,15542
176.343920946,1,-9,-106,-12,-45,11,-13,-41,14,79,-19,250,-136,53,206,2,5,0,188,171,137,205,1,15543
176.354816913,2,-9,-106,-12,-46,14,-13,-41,14,33,88,128,-168,51,208,2,5,0,188,171,137,205,1,15544
176.366003036,1,-8,-106,-19,-43,12,-12,-41,14,33,88,128,-168,51,208,2,5,0,189,173,138,201,1,15545
176.396979093,3,-9,-106,-14,-46,16,-12,-40,14,-139,14,125,-180,48,212,2,5,0,193,177,139,205,1,15546
176.407837867,0,-10,-105,-17,-37,14,-13,-40,14,-80,-224,201,-168,46,219,2,5,0,193,177,139,205,1,15547
176.418880939,0,-10,-105,-17,-37,14,-13,-40,14,-80,-224,201,-168,46,219,2,5,0,197,171,152,193,1,15548
176.430202007,0,-10,-105,-11,-41,13,-13,-41,14,-80,-224,201,-168,46,219,2,5,0,197,171,152,193,1,15549
176.447862863,-2,-12,-105,-11,-41,13,-13,-41,14,-231,-228,66,-137,45,230,2,5,0,188,180,143,203,1,15550
176.458812952,-2,-15,-105,-13,-46,13,-14,-41,14,-81,-72,101,-95,44,245,2,5,0,188,180,143,203,1,15551
176.469843864,-2,-15,-105,-13,-46,13,-14,-41,14,-81,-72,101,-95,44,245,2,5,0,194,174,140,207,1,15552
176.483675956,-2,-14,-105,-12,-39,13,-14,-42,14,-81,-72,101,-95,44,245,2,5,0,192,176,149,196,1,15553
176.500001907,-3,-14,-105,-17,-43,14,-15,-43,14,-28,-70,6,-55,41,7,2,5,0,197,171,142,204,1,15554
176.518733978,-4,-14,-105,-14,-40,16,-15,-43,14,-50,-100,57,-30,31,25,2,5,0,197,171,142,204,1,15555
176.521940946,-4,-14,-105,-14,-40,16,-15,-43,14,-50,-100,57,-30,31,25,2,5,0,193,177,146,198,1,15556
176.532875061,-4,-14,-104,-12,-45,11,-15,-43,14,-50,-100,57,-30,31,25,2,5,0,190,176,141,207,1,15557
176.551006078,-3,-14,-104,-12,-45,11,-15,-43,14,-18,46,235,-25,12,42,2,5,0,191,175,143,205,1,15558
176.562010049,-2,-14,-104,-13,-44,13,-15,-43,14,16,79,8,-39,-12,54,2,5,0,191,175,143,205,1,15559
176.57455492,-2,-14,-104,-13,-44,13,-15,-43,14,16,79,8,-39,-12,54,2,5,0,193,175,144,202,1,15560
176.583920955,-2,-13,-104,-17,-35,15,-14,-43,14,16,79,8,-39,-12,54,2,5,0,197,172,153,192,1,15561
176.601938009,-3,-14,-104,-17,-35,15,-14,-43,14,-42,-65,218,-65,-40,61,2,5,0,196,173,149,196,1,15562
176.613300085,-3,-13,-104,-16,-39,15,-14,-42,14,31,32,253,-93,-63,61,2,5,0,196,173,149,196,1,15563
176.623960018,-3,-13,-104,-16,-39,15,-14,-42,14,31,32,253,-93,-63,61,2,5,0,195,175,144,200,1,15564
176.63509202,-3,-12,-104,-20,-46,10,-13,-42,14,31,32,253,-93,-63,61,2,5,0,198,168,140,209,1,15565
176.653924942,-3,-11,-104,-20,-46,10,-13,-42,14,51,-60,67,-112,-76,54,2,5,0,196,170,143,205,1,15566
176.665149927,-3,-13,-103,-9,-48,10,-13,-42,14,-113,34,101,-117,-77,43,2,5,0,196,170,143,205,1,15567
176.675905943,-3,-12,-103,-14,-52,11,-14,-41,14,-113,34,101,-117,-77,43,2,5,0,184,182,141,208,1,15568
176.68691802,-3,-12,-103,-14,-52,11,-14,-41,14,-113,34,101,-117,-77,43,2,5,0,195,172,137,211,1,15569
176.706068992,-3,-12,-103,-8,-44,13,-14,-41,13,-13,-5,4,-107,-67,29,2,5,0,187,181,147,199,1,15570
176.716840028,-4,-13,-103,-13,-39,17,-14,-42,13,-33,-52,106,-83,-49,16,2,5,0,187,181,147,199,1,15571
176.728142023,-4,-13,-103,-13,-39,17,-14,-42,13,-33,-52,106,-83,-49,16,2,5,0,196,174,148,196,1,15572
176.739677906,-4,-12,-103,-13,-43,13,-15,-42,13,-33,-52,106,-83,-49,16,2,5,0,193,174,143,204,1,15573
176.762590885,-5,-12,-103,-21,-38,14,-15,-43,12,-66,-101,20,-54,-28,7,2,5,0,202,167,149,197,1,15574
176.768956899,-6,-15,-103,-14,-40,12,-14,-44,12,-108,-20,152,-26,-10,3,2,5,0,202,167,149,197,1,15575
176.780072927,-5,-14,-102,-18,-44,12,-14,-45,12,-108,-20,152,-26,-10,3,2,5,0,190,177,146,201,1,15576
176.790812969,-5,-14,-102,-18,-44,12,-14,-45,12,-108,-20,152,-26,-10,3,2,5,0,197,170,141,205,1,15577
176.810821056,-5,-15,-102,-12,-43,14,-13,-45,13,-111,-18,246,-5,2,0,2,5,0,189,179,144,201,1,15578
176.821054935,-5,-17,-102,-17,-41,14,-13,-44,13,-126,32,192,3,6,254,2,5,0,189,179,144,201,1,15579
176.832077026,-4,-16,-102,-8,-45,10,-14,-43,13,-126,32,192,3,6,254,2,5,0,198,170,147,199,1,15580
176.842803955,-5,-19,-102,-8,-45,10,-14,-43,13,-150,-23,126,0,3,250,2,5,0,184,182,141,207,1,15581
176.861327886,-4,-18,-102,-12,-39,13,-14,-42,13,-150,-23,126,0,3,250,2,5,0,194,173,150,196,1,15582
176.871950864,-6,-18,-102,-14,-44,12,-15,-41,13,-19,-61,195,-14,-6,243,2,5,0,194,173,150,196,1,15583
176.883239984,-6,-18,-102,-14,-44,12,-15,-41,13,-19,-61,195,-14,-6,243,2,5,0,194,174,142,205,1,15584
176.893969059,-5,-17,-102,-20,-36,13,-15,-41,13,-19,-61,195,-14,-6,243,2,5,0,194,174,142,205,1,15585
176.913032055,-3,-16,-102,-20,-36,13,-15,-41,13,37,106,195,-37,-17,233,2,5,0,200,168,152,194,1,15586
176.924103021,-3,-15,-101,-14,-36,14,-15,-41,13,48,31,32,-63,-26,220,2,5,0,200,168,152,194,1,15587
176.934985876,-3,-15,-101,-14,-36,14,-15,-41,13,48,31,32,-63,-26,220,2,5,0,191,178,148,197,1,15588
176.945868015,-3,-14,-101,-19,-46,12,-15,-41,13,48,31,32,-63,-26,220,2,5,0,199,168,138,209,1,15589
176.963896036,-2,-15,-101,-19,-46,12,-15,-41,13,-25,45,126,-86,-31,207,2,5,0,196,171,143,204,1,15590
176.975005865,0,-15,-101,-10,-51,13,-14,-41,13,-28,200,53,-100,-30,195,2,5,0,196,171,143,204,1,15591
176.985962867,0,-14,-101,-11,-45,17,-14,-41,12,-28,200,53,-100,-30,195,2,5,0,186,181,136,210,1,15592
176.996989011,0,-15,-101,-11,-45,17,-14,-41,12,-47,34,12,-100,-21,187,2,5,0,193,178,144,199,1,15593
177.016073942,0,-14,-101,-7,-43,11,-14,-41,12,-47,34,12,-100,-21,187,2,5,0,186,180,145,203,1,15594
177.026921034,-1,-14,-100,-10,-34,15,-14,-41,13,0,-139,12,-88,-6,184,2,5,0,186,180,145,203,1,15595
177.038933038,-1,-14,-100,-10,-34,15,-14,-41,13,0,-139,12,-88,-6,184,2,5,0,193,176,155,190,1,15596
177.048863887,-1,-13,-100,-17,-39,9,-14,-42,13,0,-139,12,-88,-6,184,2,5,0,198,167,145,204,1,15597
177.066896915,-1,-17,-100,-17,-39,9,-14,-42,13,-15,31,145,-67,13,188,2,5,0,194,171,148,201,1,15598
177.078676939,-2,-20,-100,-24,-46,15,-14,-43,13,-31,-94,254,-44,33,198,2,5,0,194,171,148,201,1,15599
177.088937997,-2,-20,-100,-24,-46,15,-14,-43,13,-31,-94,254,-44,33,198,2,5,0,204,166,138,207,1,15600
177.099884033,-2,-19,-100,-12,-36,14,-13,-43,13,-31,-94,254,-44,33,198,2,5,0,186,182,153,193,1,15601
177.118916988,-2,-21,-100,-12,-36,14,-13,-43,13,-125,-28,78,-25,49,211,2,5,0,192,176,148,198,1,15602
177.129925966,-4,-20,-100,-10,-43,15,-13,-43,14,-22,-126,4,-19,56,225,2,5,0,192,176,148,198,1,15603
177.141337871,-4,-20,-100,-10,-43,15,-13,-43,14,-22,-126,4,-19,56,225,2,5,0,191,178,140,205,1,15604
177.158664941,-4,-19,-100,-9,-49,14,-13,-43,14,-22,-126,4,-19,56,225,2,5,0,190,178,137,208,1,15605
177.169928074,-6,-19,-100,-9,-49,14,-13,-43,14,24,-125,22,-28,51,238,2,5,0,191,178,140,205,1,15606
177.180904865,-9,-18,-99,-15,-45,15,-13,-42,14,17,-7,234,-50,34,249,2,5,0,191,178,140,205,1,15607
177.192045927,-8,-17,-99,-14,-46,14,-13,-41,13,17,-7,234,-50,34,249,2,5,0,197,172,144,201,1,15608
177.20285201,-8,-17,-99,-14,-46,14,-13,-41,13,17,-7,234,-50,34,249,2,5,0,193,175,141,205,1,15609
177.222163915,-7,-12,-99,-11,-38,15,-14,-41,13,246,16,122,-79,8,1,2,5,0,191,178,150,194,1,15610
177.233082056,-8,-9,-99,-17,-35,12,-14,-41,14,189,-30,254,-103,-24,6,2,5,0,191,178,150,194,1,15611
177.243856907,-8,-9,-99,-17,-35,12,-14,-41,14,189,-30,254,-103,-24,6,2,5,0,198,169,151,195,1,15612
177.255091905,-7,-8,-99,-19,-41,18,-14,-42,14,189,-30,254,-103,-24,6,2,5,0,200,172,141,201,1,15613
177.272919893,-5,-7,-99,-19,-41,18,-14,-42,14,98,171,94,-113,-59,8,2,5,0,199,173,143,199,1,15614
177.284101009,-3,-7,-98,-11,-47,13,-14,-43,14,51,214,61,-102,-90,6,2,5,0,199,173,143,199,1,15615
177.295266866,-3,-7,-98,-11,-45,14,-13,-43,14,51,214,61,-102,-90,6,2,5,0,187,181,138,208,1,15616
177.305899858,-2,-10,-98,-11,-45,14,-13,-43,14,-102,28,123,-69,-109,1,2,5,0,192,177,143,202,1,15617
177.324819088,-2,-9,-98,-12,-49,11,-14,-43,14,-102,28,123,-69,-109,1,2,5,0,192,175,139,209,1,15618
177.342658043,-2,-8,-98,-9,-34,13,-14,-43,15,36,8,197,-20,-109,251,2,5,0,192,175,139,209,1,15619
177.346945047,-2,-8,-98,-9,-34,13,-14,-43,15,36,8,197,-20,-109,251,2,5,0,188,180,157,189,1,15620
177.357851982,-2,-8,-98,-17,-45,15,-14,-42,15,36,8,197,-20,-109,251,2,5,0,200,169,137,208,1,15621
177.376183033,-3,-6,-98,-17,-45,15,-14,-42,15,124,-64,221,33,-90,247,2,5,0,196,173,142,203,1,15622
177.387021064,-4,-5,-98,-18,-46,13,-14,-42,14,162,-107,55,79,-54,243,2,5,0,196,173,142,203,1,15623
177.40279603,-4,-5,-98,-18,-46,13,-14,-42,14,162,-107,55,79,-54,243,2,5,0,196,172,141,205,1,15624
177.40910697,-4,-4,-98,-15,-44,12,-13,-42,14,162,-107,55,79,-54,243,2,5,0,192,175,145,201,1,15625
177.430583954,-5,-3,-98,-15,-44,12,-13,-42,14,119,-72,10,111,-10,240,2,5,0,194,174,144,203,1,15626
177.43916893,-5,0,-97,-14,-38,14,-13,-42,14,220,-3,183,124,28,238,2,5,0,194,174,144,203,1,15627
177.44993186,-4,0,-97,-14,-41,14,-13,-43,14,220,-3,183,124,28,238,2,5,0,193,175,149,196,1,15628
177.461998939,-4,0,-97,-14,-41,14,-13,-43,14,220,-3,183,124,28,238,2,5,0,194,175,143,202,1,15629
177.479876041,-5,2,-97,-16,-45,14,-13,-43,13,172,-68,162,123,54,236,2,5,0,196,172,141,205,1,15630
177.494984865,-7,3,-97,-18,-44,17,-13,-43,13,142,-137,60,115,61,235,2,5,0,196,172,141,205,1,15631
177.502915859,-7,3,-97,-18,-44,17,-13,-43,13,142,-137,60,115,61,235,2,5,0,198,173,142,201,1,15632
177.512892007,-6,2,-97,-10,-36,12,-14,-43,13,142,-137,60,115,61,235,2,5,0,198,173,142,201,1,15633
177.531924963,-4,3,-97,-12,-40,15,-15,-43,13,187,171,61,106,49,234,2,5,0,190,179,147,198,1,15634
177.543407917,-6,1,-96,-10,-37,13,-15,-43,14,-49,-66,161,103,23,234,2,5,0,190,179,147,198,1,15635
177.554804086,-5,1,-96,-11,-46,13,-15,-42,14,-49,-66,161,103,23,234,2,5,0,189,178,150,196,1,15636
177.564943075,-5,1,-96,-11,-46,13,-15,-42,14,-49,-66,161,103,23,234,2,5,0,192,175,137,209,1,15637
177.586849928,-2,0,-96,-17,-46,11,-15,-42,14,-62,212,250,107,-7,234,2,5,0,197,169,143,205,1,15638
177.593899011,0,0,-96,-14,-49,12,-14,-41,14,119,177,212,116,-35,236,2,5,0,197,169,143,205,1,15639
177.605135917,0,0,-96,-20,-43,13,-14,-41,14,119,177,212,116,-35,236,2,5,0,192,175,139,208,1,15640
177.616101026,2,2,-96,-20,-43,13,-14,-41,14,116,164,116,124,-51,238,2,5,0,200,168,148,199,1,15641
177.634953022,2,2,-96,-11,-41,16,-13,-41,14,116,164,116,124,-51,238,2,5,0,189,182,145,199,1,15642
177.650527,2,4,-95,-15,-40,12,-12,-41,13,183,-5,247,126,-50,239,2,5,0,189,182,145,199,1,15643
177.65695405,2,4,-95,-15,-40,12,-12,-41,13,183,-5,247,126,-50,239,2,5,0,195,172,147,200,1,15644
177.667994022,1,3,-95,-12,-40,15,-13,-42,13,183,-5,247,126,-50,239,2,5,0,195,172,147,200,1,15645
177.687062025,4,3,-95,-12,-40,15,-13,-42,13,-29,151,204,121,-30,238,2,5,0,191,178,145,200,1,15646
177.697822094,3,2,-95,-8,-47,12,-13,-43,12,27,-18,10,110,3,235,2,5,0,191,178,145,200,1,15647
177.70947504,3,2,-95,-8,-47,12,-13,-43,12,27,-18,10,110,3,235,2,5,0,187,180,138,209,1,15648
177.719995975,3,1,-95,-12,-42,12,-14,-44,12,27,-18,10,110,3,235,2,5,0,194,173,147,199,1,15649
177.738219022,2,2,-95,-12,-42,12,-14,-44,12,23,-50,18,96,45,229,2,5,0,192,175,145,202,1,15650
177.749006033,2,0,-95,-13,-38,14,-14,-44,13,-81,39,56,81,84,222,2,5,0,192,175,145,202,1,15651
177.75999093,2,0,-95,-13,-38,14,-14,-44,13,-81,39,56,81,84,222,2,5,0,193,176,149,196,1,15652
177.770870924,2,0,-95,-12,-45,12,-14,-44,13,-81,39,56,81,84,222,2,5,0,192,175,140,207,1,15653
177.78898406,0,0,-95,-12,-45,12,-14,-44,13,-51,-247,249,68,112,216,2,5,0,192,175,143,204,1,15654
177.800323009,0,-1,-94,-19,-42,13,-14,-43,13,5,3,174,55,123,214,2,5,0,192,175,143,204,1,15655
177.810893058,0,-1,-94,-14,-43,14,-13,-43,13,5,3,174,55,123,214,2,5,0,200,168,146,200,1,15656
177.821870088,0,0,-94,-14,-43,14,-13,-43,13,119,71,61,41,113,217,2,5,0,191,178,143,202,1,15657
177.840944051,0,0,-94,-16,-44,13,-13,-42,13,119,71,61,41,113,217,2,5,0,196,172,143,203,1,15658
177.851927995,1,0,-94,-11,-42,16,-12,-42,13,10,108,26,27,85,226,2,5,0,196,172,143,203,1,15659
177.863090992,1,0,-94,-11,-42,16,-12,-42,13,10,108,26,27,85,226,2,5,0,190,180,144,199,1,15660
177.873960018,0,0,-94,-9,-42,12,-12,-41,13,10,108,26,27,85,226,2,5,0,190,180,144,199,1,15661
177.893018007,-1,-2,-94,-9,-42,12,-12,-41,13,-79,-129,160,13,47,236,2,5,0,188,179,145,202,1,15662
177.903930902,-2,-5,-93,-14,-42,11,-13,-42,13,-162,-77,198,2,6,248,2,5,0,188,179,145,202,1,15663
177.914962053,-2,-5,-93,-14,-42,11,-13,-42,13,-162,-77,198,2,6,248,2,5,0,195,171,145,203,1,15664
177.926059007,-2,-5,-93,-17,-42,10,-13,-42,13,-162,-77,198,2,6,248,2,5,0,195,171,145,203,1,15665
177.943890094,-2,-8,-93,-17,-42,10,-13,-42,13,-110,32,108,-5,-27,1,2,5,0,196,169,146,202,1,15666
177.955187082,-1,-12,-93,-13,-39,15,-14,-42,13,-128,33,105,-10,-49,5,2,5,0,196,169,146,202,1,15667
177.965993881,-1,-11,-93,-13,-42,14,-14,-43,13,-128,33,105,-10,-49,5,2,5,0,191,178,147,198,1,15668
177.976922035,-1,-11,-93,-13,-42,14,-14,-43,13,-128,33,105,-10,-49,5,2,5,0,193,176,142,203,1,15669
177.995882988,-3,-14,-93,-16,-44,14,-14,-43,13,-112,-79,71,-17,-58,2,2,5,0,197,172,142,204,1,15670
178.007040977,-2,-16,-93,-9,-48,14,-14,-43,13,-139,34,203,-27,-56,247,2,5,0,197,172,142,204,1,15671
178.018035888,-2,-16,-93,-9,-48,14,-14,-43,13,-139,34,203,-27,-56,247,2,5,0,187,181,139,207,1,15672
178.029058933,-2,-15,-93,-16,-40,15,-14,-42,13,-139,34,203,-27,-56,247,2,5,0,187,181,139,207,1,15673
178.047923088,-2,-14,-92,-9,-42,12,-13,-42,13,38,-4,172,-42,-46,227,2,5,0,190,177,148,199,1,15674
178.059000969,-5,-12,-92,-19,-38,15,-13,-42,13,126,-200,217,-60,-32,201,2,5,0,190,177,148,199,1,15675
178.070534944,-5,-11,-92,-12,-42,11,-13,-42,13,126,-200,217,-60,-32,201,2,5,0,203,167,148,196,1,15676
178.080976009,-6,-11,-92,-12,-42,11,-13,-42,13,-12,-62,8,-79,-18,174,2,5,0,187,179,143,205,1,15677
178.099948883,-5,-11,-92,-14,-44,13,-13,-43,14,-12,-62,8,-79,-18,174,2,5,0,195,173,142,204,1,15678
178.110897064,-4,-10,-92,-14,-44,14,-13,-43,14,48,65,44,-92,-9,151,2,5,0,195,173,142,204,1,15679
178.122057914,-4,-10,-92,-14,-44,14,-13,-43,14,48,65,44,-92,-9,151,2,5,0,194,175,143,202,1,15680
178.138730049,-4,-10,-92,-13,-38,17,-13,-43,14,48,65,44,-92,-9,151,2,5,0,193,178,149,194,1,15681
178.151038885,-8,-11,-92,-13,-38,17,-13,-43,14,-99,-181,113,-95,-6,137,2,5,0,194,177,146,197,1,15682
178.161921978,-4,-10,-91,-12,-43,15,-14,-42,14,30,56,34,-86,-11,136,2,5,0,194,177,146,197,1,15683
178.173074007,-4,-10,-91,-12,-43,15,-14,-42,14,30,56,34,-86,-11,136,2,5,0,193,177,141,204,1,15684
178.18393898,-3,-9,-91,-12,-47,10,-14,-42,14,30,56,34,-86,-11,136,2,5,0,191,174,140,209,1,15685
178.202876091,-3,-13,-91,-12,-47,10,-14,-42,14,-174,23,103,-66,-21,145,2,5,0,191,174,142,207,1,15686
178.213098049,-4,-16,-91,-17,-42,10,-14,-42,14,-227,-57,196,-41,-34,161,2,5,0,191,174,142,207,1,15687
178.230787992,-4,-15,-91,-15,-45,13,-14,-42,14,-227,-57,196,-41,-34,161,2,5,0,197,169,149,200,1,15688
178.235450029,-4,-15,-91,-15,-45,13,-14,-42,14,-227,-57,196,-41,-34,161,2,5,0,193,175,141,206,1,15689
178.254873037,-4,-18,-91,-13,-41,12,-14,-42,14,-238,-19,163,-18,-46,177,2,5,0,191,176,148,199,1,15690
178.270645857,-5,-18,-90,-12,-38,18,-14,-42,13,-22,-61,253,-5,-53,188,2,5,0,191,176,148,199,1,15691
178.277028083,-5,-18,-90,-12,-38,18,-14,-42,13,-22,-61,253,-5,-53,188,2,5,0,194,178,146,196,1,15692
178.287904977,-4,-17,-90,-21,-46,12,-14,-43,13,-22,-61,253,-5,-53,188,2,5,0,194,178,146,196,1,15693
178.305893898,-4,-18,-90,-17,-44,14,-14,-43,13,-70,-11,163,-8,-54,190,2,5,0,198,171,140,206,1,15694
178.316943884,-6,-16,-90,-14,-44,11,-14,-43,13,110,-113,247,-25,-50,185,2,5,0,198,171,140,206,1,15695
178.328270912,-6,-15,-90,-16,-46,11,-14,-43,13,110,-113,247,-25,-50,185,2,5,0,192,175,144,204,1,15696
178.33901,-5,-11,-90,-16,-46,11,-14,-43,13,213,57,146,-53,-43,177,2,5,0,194,172,141,206,1,15697
178.358877897,-4,-11,-90,-10,-41,11,-15,-43,13,213,57,146,-53,-43,177,2,5,0,188,179,148,199,1,15698
178.36986804,-6,-10,-90,-9,-41,13,-15,-43,13,57,-153,27,-82,-35,170,2,5,0,188,179,148,199,1,15699
178.380939006,-6,-10,-90,-9,-41,13,-15,-43,13,57,-153,27,-82,-35,170,2,5,0,189,179,145,201,1,15700
178.391836881,-6,-9,-89,-13,-42,14,-16,-43,13,57,-153,27,-82,-35,170,2,5,0,195,173,144,201,1,15701
178.410691976,-7,-9,-89,-13,-42,14,-16,-43,13,4,-120,25,-101,-30,167,2,5,0,193,175,144,201,1,15702
178.420953989,-6,-9,-89,-16,-43,15,-16,-43,13,38,57,253,-102,-27,169,2,5,0,193,175,144,201,1,15703
178.431879043,-6,-9,-89,-16,-43,15,-16,-43,13,38,57,253,-102,-27,169,2,5,0,197,173,142,202,1,15704
178.443275928,-6,-9,-89,-18,-40,13,-15,-43,13,38,57,253,-102,-27,169,2,5,0,197,171,148,198,1,15705
178.460857868,-5,-10,-89,-18,-40,13,-15,-43,13,-80,41,242,-83,-29,177,2,5,0,196,172,146,200,1,15706
178.473527908,-5,-10,-89,-16,-37,13,-14,-43,13,0,0,74,-48,-35,191,2,5,0,196,172,146,200,1,15707
178.48330307,-5,-9,-89,-10,-43,9,-14,-43,13,0,0,74,-48,-35,191,2,5,0,194,175,150,196,1,15708
178.493957996,-5,-9,-89,-10,-43,9,-14,-43,13,0,0,74,-48,-35,191,2,5,0,186,179,142,207,1,15709
178.513033867,-6,-11,-89,-16,-48,13,-13,-43,13,-112,-45,128,-7,-41,208,2,5,0,197,171,138,208,1,15710
178.52392888,-1,-12,-88,-11,-48,16,-13,-42,13,-2,68,27,29,-45,227,2,5,0,197,171,138,208,1,15711
178.534960985,-1,-12,-88,-11,-48,16,-13,-42,13,-2,68,27,29,-45,227,2,5,0,191,179,139,205,1,15712
178.545902967,-1,-11,-88,-13,-44,15,-13,-42,13,-2,68,27,29,-45,227,2,5,0,191,179,139,205,1,15713
178.564898014,0,-11,-88,-17,-39,15,-14,-41,13,0,15,229,53,-44,243,2,5,0,198,171,151,194,1,15714
178.576040029,0,-9,-88,-15,-35,13,-14,-42,13,165,37,85,60,-39,253,2,5,0,198,171,151,194,1,15715
178.587224006,0,-8,-88,-19,-40,13,-14,-42,13,165,37,85,60,-39,253,2,5,0,193,175,151,195,1,15716
178.59790802,-3,-7,-88,-19,-40,13,-14,-42,13,128,-250,228,51,-28,254,2,5,0,198,169,144,203,1,15717
178.620414018,-3,-6,-88,-15,-43,16,-14,-43,14,128,-250,228,51,-28,254,2,5,0,193,177,141,203,1,15718
178.629143953,-4,-6,-87,-14,-46,15,-14,-43,14,52,-68,41,33,-15,246,2,5,0,193,177,141,203,1,15719
178.639179945,-4,-6,-87,-14,-46,15,-14,-43,14,52,-68,41,33,-15,246,2,5,0,194,176,140,205,1,15720
178.64991498,-4,-6,-87,-11,-40,15,-15,-43,14,52,-68,41,33,-15,246,2,5,0,191,179,148,196,1,15721
178.668932914,0,-6,-87,-11,-40,15,-15,-43,14,21,178,109,15,-3,233,2,5,0,192,178,145,199,1,15722
178.679898977,0,-6,-87,-9,-46,15,-15,-42,14,24,9,194,2,2,220,2,5,0,192,178,145,199,1,15723
178.690913915,0,-6,-87,-9,-46,15,-15,-42,14,24,9,194,2,2,220,2,5,0,190,179,138,206,1,15724
178.701997041,0,-5,-87,-18,-49,12,-15,-42,14,24,9,194,2,2,220,2,5,0,199,167,139,209,1,15725
178.720253944,1,-3,-87,-18,-49,12,-15,-42,14,69,47,111,1,2,211,2,5,0,195,172,140,207,1,15726
178.730918884,2,-2,-87,-14,-40,12,-15,-41,15,145,102,249,9,-1,205,2,5,0,195,172,140,207,1,15727
178.741864919,1,-2,-87,-22,-42,15,-15,-41,15,145,102,249,9,-1,205,2,5,0,191,176,150,197,1,15728
178.755857944,1,-2,-87,-22,-42,15,-15,-41,15,145,102,249,9,-1,205,2,5,0,203,166,143,202,1,15729
178.771996975,3,-6,-86,-13,-36,15,-14,-42,15,-113,42,27,24,-5,203,2,5,0,189,181,151,194,1,15730
178.783037901,2,-7,-86,-10,-38,14,-14,-42,14,-10,-20,235,42,-6,201,2,5,0,189,181,151,194,1,15731
178.793850898,2,-7,-86,-10,-38,14,-14,-42,14,-10,-20,235,42,-6,201,2,5,0,190,178,146,199,1,15732
178.807234049,2,-7,-86,-9,-45,15,-14,-43,14,-10,-20,235,42,-6,201,2,5,0,190,180,139,206,1,15733
178.82385993,1,-8,-86,-16,-44,11,-14,-43,14,-59,-12,164,57,-2,198,2,5,0,197,169,145,203,1,15734
178.83892703,-2,-8,-86,-15,-45,15,-14,-43,14,28,-193,161,66,6,192,2,5,0,197,169,145,203,1,15735
178.846199035,-2,-8,-86,-15,-45,15,-14,-43,14,28,-193,161,66,6,192,2,5,0,195,174,141,204,1,15736
178.856828928,-2,-8,-86,-19,-40,10,-14,-43,14,28,-193,161,66,6,192,2,5,0,195,174,141,204,1,15737
178.875139951,-5,-8,-86,-19,-40,10,-14,-43,14,-69,-211,213,65,17,184,2,5,0,197,168,150,199,1,15738
178.885870933,-9,-10,-85,-19,-36,13,-14,-42,14,-58,-139,91,54,25,174,2,5,0,197,168,150,199,1,15739
178.896878957,-9,-10,-85,-19,-36,13,-14,-42,14,-58,-139,91,54,25,174,2,5,0,197,170,151,195,1,15740
178.907871961,-8,-9,-85,-14,-43,16,-14,-41,13,-58,-139,91,54,25,174,2,5,0,197,170,151,195,1,15741
178.925925016,-13,-11,-85,-14,-43,16,-14,-41,13,-82,-222,71,36,23,166,2,5,0,192,179,139,204,1,15742
178.937084913,-13,-12,-85,-9,-48,15,-14,-41,13,-53,-47,185,13,7,160,2,5,0,192,179,139,204,1,15743
178.947854042,-13,-12,-85,-9,-48,15,-14,-41,13,-53,-47,185,13,7,160,2,5,0,188,181,137,207,1,15744
178.962821006,-12,-11,-85,-7,-46,14,-14,-41,13,-53,-47,185,13,7,160,2,5,0,189,180,142,203,1,15745
178.976981878,-11,-10,-85,-7,-46,14,-14,-41,13,115,77,81,-10,-20,155,2,5,0,189,179,141,204,1,15746
178.990015983,-12,-11,-84,-13,-37,15,-15,-41,13,-30,-154,42,-32,-57,152,2,5,0,189,179,141,204,1,15747
178.99922204,-12,-10,-84,-19,-41,16,-15,-41,13,-30,-154,42,-32,-57,152,2,5,0,197,173,152,193,1,15748
179.010046005,-12,-10,-84,-19,-41,16,-15,-41,13,-30,-154,42,-32,-57,152,2,5,0,201,169,142,201,1,15749
179.028892994,-11,-12,-84,-14,-44,13,-15,-42,14,-200,-40,24,-48,-94,151,2,5,0,191,177,141,205,1,15750
179.039871931,-11,-11,-84,-17,-40,11,-14,-42,14,56,8,74,-57,-124,156,2,5,0,191,177,141,205,1,15751
179.052845955,-11,-11,-84,-17,-40,11,-14,-42,14,56,8,74,-57,-124,156,2,5,0,196,170,149,199,1,15752
179.062100887,-10,-11,-84,-14,-41,10,-14,-43,14,56,8,74,-57,-124,156,2,5,0,191,174,146,203,1,15753
179.082782983,-12,-8,-84,-11,-40,13,-14,-43,15,119,-159,156,-58,-140,167,2,5,0,189,178,146,200,1,15754
179.091934919,-13,-9,-83,-11,-41,16,-13,-43,15,-28,-120,234,-53,-141,186,2,5,0,189,178,146,200,1,15755
179.102900982,-13,-9,-83,-11,-41,16,-13,-43,15,-28,-120,234,-53,-141,186,2,5,0,193,178,144,200,1,15756
179.11570096,-12,-8,-83,-8,-47,12,-14,-42,14,-28,-120,234,-53,-141,186,2,5,0,193,178,144,200,1,15757
179.13282299,-13,-9,-83,-8,-47,12,-14,-42,14,-45,-48,253,-43,-128,210,2,5,0,187,180,139,208,1,15758
179.143950939,-13,-11,-83,-11,-43,12,-14,-42,14,-74,-12,204,-31,-108,234,2,5,0,187,180,139,208,1,15759
179.15486598,-13,-11,-83,-11,-43,12,-14,-42,14,-74,-12,204,-31,-108,234,2,5,0,193,175,146,201,1,15760
179.165881872,-12,-10,-83,-18,-36,13,-14,-41,13,-74,-12,204,-31,-108,234,2,5,0,193,175,146,201,1,15761
179.184057951,-13,-10,-83,-18,-36,13,-14,-41,13,47,-76,87,-19,-86,255,2,5,0,199,168,153,194,1,15762
179.194910049,-13,-10,-83,-24,-43,13,-14,-41,13,-6,-44,101,-8,-68,13,2,5,0,199,168,153,194,1,15763
179.210701942,-13,-10,-83,-24,-43,13,-14,-41,13,-6,-44,101,-8,-68,13,2,5,0,203,165,141,206,1,15764
179.217027902,-12,-10,-83,-13,-44,15,-13,-41,12,-6,-44,101,-8,-68,13,2,5,0,188,181,142,203,1,15765
179.234972,-13,-9,-83,-13,-44,15,-13,-41,12,55,-142,119,0,-55,19,2,5,0,193,176,142,202,1,15766
179.246161937,-14,-10,-82,-7,-43,15,-13,-41,12,-26,-86,243,2,-49,20,2,5,0,193,176,142,202,1,15767
179.257132053,-13,-9,-82,-7,-47,12,-13,-42,12,-26,-86,243,2,-49,20,2,5,0,187,183,144,201,1,15768
179.270740032,-13,-9,-82,-7,-47,12,-13,-42,12,-26,-86,243,2,-49,20,2,5,0,188,179,140,208,1,15769
179.287055969,-11,-9,-82,-7,-40,14,-13,-42,13,-20,54,201,3,-48,19,2,5,0,189,179,149,196,1,15770
179.297841072,-10,-10,-82,-18,-41,11,-13,-42,13,-67,69,83,1,-52,20,2,5,0,189,179,149,196,1,15771
179.308868885,-10,-10,-82,-18,-41,11,-13,-42,13,-67,69,83,1,-52,20,2,5,0,201,166,146,202,1,15772
179.319967031,-9,-9,-82,-16,-38,14,-14,-43,13,-67,69,83,1,-52,20,2,5,0,194,174,148,198,1,15773
179.339169025,-9,-11,-82,-18,-41,13,-13,-43,14,-119,1,5,0,-58,23,2,5,0,196,171,144,203,1,15774
179.350635051,-9,-12,-81,-13,-44,13,-13,-43,14,-47,-33,27,-3,-62,28,2,5,0,196,171,144,203,1,15775
179.360569954,-9,-12,-81,-13,-44,13,-13,-43,14,-47,-33,27,-3,-62,28,2,5,0,190,178,142,204,1,15776
179.371933937,-8,-11,-81,-11,-44,15,-12,-43,14,-47,-33,27,-3,-62,28,2,5,0,190,178,142,204,1,15777
179.390588998,-10,-13,-81,-13,-44,14,-12,-42,13,-173,-172,146,-7,-61,32,2,5,0,194,175,143,203,1,15778
179.400947094,-8,-14,-81,-9,-43,16,-12,-42,13,-71,129,2,-15,-54,35,2,5,0,194,175,143,203,1,15779
179.411834001,-8,-14,-81,-9,-43,16,-12,-42,13,-71,129,2,-15,-54,35,2,5,0,189,181,144,200,1,15780
179.422975063,-7,-13,-81,-11,-43,15,-13,-42,13,-71,129,2,-15,-54,35,2,5,0,189,181,144,200,1,15781
179.440937042,-6,-15,-81,-11,-43,15,-13,-42,13,-124,107,57,-27,-42,34,2,5,0,194,176,143,202,1,15782
179.453696966,-5,-10,-80,-19,-43,9,-13,-42,13,81,15,41,-42,-29,29,2,5,0,194,176,143,202,1,15783
179.462925911,-5,-10,-80,-19,-43,11,-14,-42,13,81,15,41,-42,-29,29,2,5,0,199,166,145,204,1,15784
179.473913908,-5,-10,-80,-19,-43,11,-14,-42,13,81,15,41,-42,-29,29,2,5,0,196,170,144,203,1,15785
179.49306488,-7,-5,-80,-18,-36,15,-14,-42,14,192,-144,26,-59,-16,20,2,5,0,196,173,151,194,1,15786
179.503892898,-5,-9,-80,-13,-40,17,-14,-43,14,-155,112,127,-74,-3,6,2,5,0,196,173,151,194,1,15787
179.515022993,-5,-9,-80,-13,-40,17,-14,-43,14,-155,112,127,-74,-3,6,2,5,0,191,180,143,200,1,15788
179.52600789,-5,-8,-80,-10,-39,14,-14,-43,14,-155,112,127,-74,-3,6,2,5,0,191,180,143,200,1,15789
179.545180082,-4,-9,-80,-15,-45,13,-14,-43,14,-97,20,48,-82,6,244,2,5,0,195,173,140,206,1,15790
179.556324005,-3,-11,-79,-12,-43,13,-15,-43,14,-113,65,43,-81,14,222,2,5,0,195,173,140,206,1,15791
179.566936969,-3,-10,-79,-12,-48,14,-15,-42,14,-113,65,43,-81,14,222,2,5,0,191,177,145,201,1,15792
179.577919006,-3,-10,-79,-12,-48,14,-15,-42,14,-113,65,43,-81,14,222,2,5,0,192,176,138,207,1,15793
179.596993923,-3,-12,-79,-10,-38,16,-15,-41,14,-137,-20,58,-71,19,197,2,5,0,191,179,151,193,1,15794
179.607970953,-5,-13,-79,-12,-36,15,-15,-41,14,-117,-131,37,-57,21,176,2,5,0,191,179,151,193,1,15795
179.618999004,-5,-13,-79,-12,-36,15,-15,-41,14,-117,-131,37,-57,21,176,2,5,0,193,176,149,196,1,15796
179.629929065,-4,-12,-79,-14,-38,12,-14,-41,14,-117,-131,37,-57,21,176,2,5,0,193,176,149,196,1,15797
179.647983074,-7,-13,-79,-14,-38,12,-14,-41,14,-75,-229,251,-44,21,164,2,5,0,194,173,147,200,1,15798
179.658914089,-9,-12,-79,-10,-42,11,-14,-41,14,69,-151,207,-39,18,164,2,5,0,194,173,147,200,1,15799
179.669995069,-9,-11,-79,-18,-50,14,-13,-41,14,69,-151,207,-39,18,164,2,5,0,188,179,143,205,1,15800
179.680927992,-9,-11,-79,-18,-50,14,-13,-41,14,69,-151,207,-39,18,164,2,5,0,201,168,135,210,1,15801
179.69984293,-8,-8,-78,-10,-41,14,-12,-41,14,174,-9,241,-41,10,178,2,5,0,187,182,150,196,1,15802
179.710854053,-7,-5,-78,-13,-51,15,-12,-41,14,214,44,193,-49,-4,202,2,5,0,187,182,150,196,1,15803
179.722084999,-7,-5,-78,-13,-51,15,-12,-41,14,214,44,193,-49,-4,202,2,5,0,196,174,132,213,1,15804
179.732950925,-7,-5,-78,-7,-40,15,-11,-41,14,214,44,193,-49,-4,202,2,5,0,187,183,151,194,1,15805
179.751945018,-10,-3,-78,-7,-40,15,-11,-41,14,124,-195,112,-56,-26,229,2,5,0,190,180,145,199,1,15806
179.762789964,-11,-6,-78,-10,-36,14,-12,-42,14,-78,-40,81,-55,-51,252,2,5,0,190,180,145,199,1,15807
179.773823976,-11,-6,-78,-10,-36,14,-12,-42,14,-78,-40,81,-55,-51,252,2,5,0,192,176,151,195,1,15808
179.786478996,-10,-6,-78,-16,-41,13,-12,-42,13,-78,-40,81,-55,-51,252,2,5,0,198,170,143,203,1,15809
179.802838087,-10,-4,-78,-16,-41,13,-12,-42,13,117,33,232,-41,-75,10,2,5,0,195,173,145,201,1,15810
179.814447879,-8,-3,-77,-17,-48,13,-12,-43,13,203,101,71,-14,-92,10,2,5,0,195,173,145,201,1,15811
179.824923992,-8,-3,-77,-18,-40,11,-12,-43,14,203,101,71,-14,-92,10,2,5,0,196,172,137,210,1,15812
179.836281061,-8,-3,-77,-18,-40,11,-12,-43,14,203,101,71,-14,-92,10,2,5,0,196,171,150,197,1,15813
179.854958057,-7,0,-77,-16,-49,16,-12,-43,14,24,63,220,20,-100,254,2,5,0,194,176,135,209,1,15814
179.865951061,-10,0,-77,-15,-46,11,-12,-43,14,4,-67,51,58,-97,232,2,5,0,194,176,135,209,1,15815
179.878602028,-10,0,-77,-15,-46,11,-12,-43,14,4,-67,51,58,-97,232,2,5,0,193,173,144,204,1,15816
179.888113022,-10,0,-77,-7,-39,16,-13,-43,14,4,-67,51,58,-97,232,2,5,0,193,173,144,204,1,15817
179.90587902,-6,1,-77,-7,-39,16,-13,-43,14,141,173,104,93,-82,209,2,5,0,186,184,149,195,1,15818
179.917073965,-5,3,-77,-11,-40,15,-14,-43,14,146,60,137,123,-57,189,2,5,0,186,184,149,195,1,15819
179.927825927,-5,3,-76,-12,-29,14,-14,-43,14,146,60,137,123,-57,189,2,5,0,194,175,146,199,1,15820
179.939679861,-5,3,-76,-12,-29,14,-14,-43,14,146,60,137,123,-57,189,2,5,0,193,176,158,188,1,15821
179.957851886,-5,4,-76,-18,-42,12,-15,-43,13,55,-30,150,144,-26,173,2,5,0,199,168,138,209,1,15822
179.969079971,-5,5,-76,-16,-41,11,-15,-43,13,152,-29,248,156,5,163,2,5,0,199,168,138,209,1,15823
179.979882002,-5,5,-76,-16,-41,11,-15,-43,13,152,-29,248,156,5,163,2,5,0,192,174,147,201,1,15824
179.990989923,-5,4,-76,-16,-51,13,-15,-43,13,152,-29,248,156,5,163,2,5,0,195,173,133,213,1,15825
180.00888586,-6,6,-76,-16,-51,13,-15,-43,13,99,-90,40,158,33,156,2,5,0,195,173,138,208,1,15826
180.020019054,-7,5,-76,-9,-47,13,-14,-42,13,62,-71,37,153,54,152,2,5,0,195,173,138,208,1,15827
180.034960031,-6,4,-76,-14,-38,16,-14,-41,13,62,-71,37,153,54,152,2,5,0,187,181,144,202,1,15828
180.041989088,-6,4,-76,-14,-38,16,-14,-41,13,62,-71,37,153,54,152,2,5,0,197,174,151,193,1,15829
180.065106868,-9,5,-76,-15,-39,16,-13,-40,13,94,-213,188,142,62,154,2,5,0,196,174,144,200,1,15830
180.072057962,-8,6,-75,-16,-38,15,-13,-40,13,148,98,0,129,57,161,2,5,0,196,174,144,200,1,15831
180.082863092,-8,6,-75,-16,-38,15,-13,-40,13,148,98,0,129,57,161,2,5,0,196,173,148,197,1,15832
180.095848083,-7,5,-75,-22,-39,12,-14,-41,13,148,98,0,129,57,161,2,5,0,201,166,147,201,1,15833
180.112142086,-5,7,-75,-22,-39,12,-14,-41,13,130,254,54,116,38,174,2,5,0,198,169,147,200,1,15834
180.126848936,-4,7,-75,-15,-48,11,-14,-42,13,99,60,253,104,11,192,2,5,0,198,169,147,200,1,15835
180.133996009,-4,7,-75,-15,-48,11,-14,-42,13,99,60,253,104,11,192,2,5,0,190,176,137,211,1,15836
180.144897937,-3,6,-75,-10,-44,18,-14,-42,14,99,60,253,104,11,192,2,5,0,190,176,137,211,1,15837
180.164083957,-5,4,-75,-10,-44,18,-14,-42,14,-137,-102,207,97,-16,213,2,5,0,190,182,143,199,1,15838
180.174880981,-4,0,-74,-9,-35,16,-15,-42,14,-212,65,59,93,-35,234,2,5,0,190,182,143,199,1,15839
180.186919927,-4,0,-74,-11,-42,16,-15,-42,14,-212,65,59,93,-35,234,2,5,0,190,179,153,191,1,15840
180.195992946,-4,0,-74,-11,-42,16,-15,-42,14,-212,65,59,93,-35,234,2,5,0,193,177,140,203,1,15841
180.217297077,-5,0,-74,-22,-33,13,-16,-42,14,18,-143,43,90,-41,252,2,5,0,204,164,155,191,1,15842
180.227120876,-8,-3,-74,-19,-43,13,-15,-41,14,-164,-160,98,83,-34,9,2,5,0,204,164,155,191,1,15843
180.23784399,-8,-3,-74,-19,-43,13,-15,-41,14,-164,-160,98,83,-34,9,2,5,0,195,172,139,207,1,15844
180.248868942,-8,-3,-74,-20,-41,16,-15,-41,15,-164,-160,98,83,-34,9,2,5,0,199,171,145,199,1,15845
180.266948938,-11,-4,-74,-20,-41,16,-15,-41,15,-115,-232,210,68,-19,17,2,5,0,198,172,144,200,1,15846
180.27860403,-11,-4,-74,-15,-44,16,-14,-40,15,23,-7,124,44,-5,19,2,5,0,198,172,144,200,1,15847
180.289051056,-11,-4,-74,-15,-44,16,-14,-40,15,23,-7,124,44,-5,19,2,5,0,193,177,140,204,1,15848
180.299947023,-10,-4,-74,-10,-50,12,-14,-40,15,23,-7,124,44,-5,19,2,5,0,188,180,137,210,1,15849
180.317995071,-14,-4,-74,-10,-50,12,-14,-40,15,-34,-177,82,11,0,14,2,5,0,190,177,140,207,1,15850
180.328932047,-14,-6,-73,-11,-44,13,-14,-40,15,-63,-13,211,-25,-6,3,2,5,0,190,177,140,207,1,15851
180.34009695,-13,-6,-73,-12,-38,15,-15,-40,15,-63,-13,211,-25,-6,3,2,5,0,191,176,146,200,1,15852
180.351096868,-13,-6,-73,-12,-38,15,-15,-40,15,-63,-13,211,-25,-6,3,2,5,0,194,176,149,195,1,15853
180.370121956,-12,-9,-73,-15,-43,13,-15,-40,15,-193,-8,211,-59,-25,241,2,5,0,196,172,141,205,1,15854
180.381023883,-14,-10,-73,-15,-39,17,-16,-41,14,-94,-214,255,-85,-53,218,2,5,0,196,172,141,205,1,15855
180.391877889,-14,-10,-73,-15,-39,17,-16,-41,14,-94,-214,255,-85,-53,218,2,5,0,195,176,147,196,1,15856
180.402843952,-13,-10,-73,-18,-44,11,-15,-42,14,-94,-214,255,-85,-53,218,2,5,0,195,176,147,196,1,15857
180.420922041,-11,-12,-73,-18,-44,11,-15,-42,14,-178,145,184,-101,-81,195,2,5,0,197,169,142,206,1,15858
180.435178995,-10,-14,-72,-13,-47,11,-15,-43,14,-110,77,49,-107,-104,175,2,5,0,197,169,142,206,1,15859
180.443722963,-9,-13,-72,-11,-37,18,-14,-44,14,-110,77,49,-107,-104,175,2,5,0,189,178,140,208,1,15860
180.454022884,-9,-13,-72,-11,-37,18,-14,-44,14,-110,77,49,-107,-104,175,2,5,0,192,179,151,191,1,15861
180.472858905,-9,-11,-72,-8,-42,11,-14,-44,14,96,-60,38,-107,-116,163,2,5,0,187,179,142,205,1,15862
180.483929872,-11,-12,-72,-12,-40,16,-13,-43,14,-88,-176,99,-105,-114,161,2,5,0,187,179,142,205,1,15863
180.495074033,-11,-12,-72,-12,-40,16,-13,-43,14,-88,-176,99,-105,-114,161,2,5,0,195,175,146,198,1,15864
180.505948066,-10,-11,-72,-16,-43,10,-13,-43,13,-88,-176,99,-105,-114,161,2,5,0,196,170,144,205,1,15865
180.523995876,-8,-10,-72,-16,-43,10,-13,-43,13,61,84,121,-101,-99,170,2,5,0,194,172,145,203,1,15866
180.535573005,-9,-14,-72,-22,-46,11,-13,-42,13,-175,-55,95,-95,-75,188,2,5,0,194,172,145,203,1,15867
180.545942068,-9,-14,-72,-22,-46,11,-13,-42,13,-175,-55,95,-95,-75,188,2,5,0,201,166,141,206,1,15868
180.557291031,-8,-13,-72,-9,-39,17,-13,-42,14,-175,-55,95,-95,-75,188,2,5,0,185,186,149,195,1,15869
180.575867891,-9,-14,-72,-9,-39,17,-13,-42,14,-53,-76,226,-88,-48,212,2,5,0,192,179,145,198,1,15870
180.587071895,-9,-14,-71,-15,-40,15,-13,-41,13,-33,-9,160,-78,-24,235,2,5,0,192,179,145,198,1,15871
180.597919941,-9,-14,-71,-12,-42,13,-13,-41,13,-33,-9,160,-78,-24,235,2,5,0,198,172,145,199,1,15872
180.608870029,-9,-14,-71,-12,-42,13,-13,-41,13,-33,-9,160,-78,-24,235,2,5,0,191,177,143,203,1,15873
180.627042055,-9,-13,-71,-22,-43,13,-13,-41,13,-34,-47,230,-67,-8,251,2,5,0,203,165,144,202,1,15874
180.637834072,-9,-15,-71,-12,-46,12,-14,-41,13,-126,-43,26,-57,-1,0,2,5,0,203,165,144,202,1,15875
180.649016857,-9,-15,-71,-12,-46,12,-14,-41,13,-126,-43,26,-57,-1,0,2,5,0,187,180,141,206,1,15876
180.659868002,-8,-14,-71,-15,-39,13,-14,-42,13,-126,-43,26,-57,-1,0,2,5,0,187,180,141,206,1,15877
180.678996086,-5,-17,-71,-15,-39,13,-14,-42,13,-71,101,1,-50,-3,250,2,5,0,196,172,150,196,1,15878
180.690437078,-5,-19,-70,-16,-40,15,-15,-42,14,-130,-6,181,-46,-10,236,2,5,0,196,172,150,196,1,15879
180.700877905,-4,-18,-70,-11,-38,12,-15,-42,14,-130,-6,181,-46,-10,236,2,5,0,196,174,145,199,1,15880
180.7120049,-4,-18,-70,-11,-38,12,-15,-42,14,-130,-6,181,-46,-10,236,2,5,0,188,179,148,199,1,15881
180.730858087,-5,-16,-70,-14,-40,14,-15,-42,14,3,-59,250,-46,-20,217,2,5,0,196,173,144,201,1,15882
180.741935968,-5,-19,-70,-13,-41,13,-15,-42,14,-223,22,43,-51,-28,198,2,5,0,196,173,144,201,1,15883
180.75296688,-5,-19,-70,-13,-41,13,-15,-42,14,-223,22,43,-51,-28,198,2,5,0,192,176,144,202,1,15884
180.766581058,-4,-18,-70,-17,-39,15,-15,-42,13,-223,22,43,-51,-28,198,2,5,0,198,171,147,198,1,15885
180.782026052,-7,-21,-70,-17,-39,15,-15,-42,13,-162,-144,100,-58,-31,181,2,5,0,196,173,146,199,1,15886
180.792948007,-6,-23,-69,-12,-46,14,-15,-41,13,-175,22,161,-69,-30,169,2,5,0,196,173,146,199,1,15887
180.804395914,-6,-22,-69,-14,-49,11,-14,-41,13,-175,22,161,-69,-30,169,2,5,0,190,179,138,207,1,15888
180.815536022,-6,-22,-69,-14,-49,11,-14,-41,13,-175,22,161,-69,-30,169,2,5,0,194,173,139,208,1,15889
180.834097862,-4,-21,-69,-6,-42,13,-14,-40,13,-45,79,6,-81,-25,164,2,5,0,184,184,148,198,1,15890
180.844937086,-4,-16,-69,-11,-43,11,-14,-40,13,167,-4,72,-94,-20,166,2,5,0,184,184,148,198,1,15891
180.858658075,-4,-16,-69,-11,-43,11,-14,-40,13,167,-4,72,-94,-20,166,2,5,0,193,173,144,203,1,15892
180.867197036,-4,-15,-69,-15,-34,15,-13,-41,14,167,-4,72,-94,-20,166,2,5,0,197,172,153,191,1,15893
180.88499999,-7,-15,-69,-15,-34,15,-13,-41,14,-13,-173,161,-108,-16,173,2,5,0,195,174,149,195,1,15894
180.895911932,-5,-15,-69,-15,-35,12,-13,-42,13,-12,97,133,-116,-13,181,2,5,0,195,174,149,195,1,15895
180.906965971,-5,-15,-69,-15,-35,12,-13,-42,13,-12,97,133,-116,-13,181,2,5,0,193,174,149,198,1,15896
180.922585964,-4,-14,-69,-16,-47,10,-13,-42,13,-12,97,133,-116,-13,181,2,5,0,193,174,149,198,1,15897
180.935843944,-2,-11,-69,-16,-47,10,-13,-42,13,180,130,125,-116,-11,186,2,5,0,195,171,136,212,1,15898
180.946937084,-1,-11,-68,-21,-51,15,-12,-43,13,66,157,35,-104,-10,188,2,5,0,195,171,136,212,1,15899
180.958177089,-1,-10,-68,-11,-44,15,-12,-43,13,66,157,35,-104,-10,188,2,5,0,201,168,136,209,1,15900
180.968940973,-1,-10,-68,-11,-44,15,-12,-43,13,66,157,35,-104,-10,188,2,5,0,187,183,146,199,1,15901
180.987927913,-2,-9,-68,-13,-37,17,-13,-42,13,0,-112,209,-81,-8,185,2,5,0,195,176,150,193,1,15902
180.999021053,-5,-9,-68,-10,-33,16,-13,-42,13,46,-211,103,-47,-4,178,2,5,0,195,176,150,193,1,15903
181.010540008,-5,-9,-68,-10,-33,16,-13,-42,13,46,-211,103,-47,-4,178,2,5,0,191,180,152,192,1,15904
181.020941019,-4,-8,-68,-13,-36,14,-14,-42,13,46,-211,103,-47,-4,178,2,5,0,195,174,147,199,1,15905
181.04164505,-5,-8,-68,-13,-36,14,-14,-42,13,25,-81,90,-9,2,172,2,5,0,193,175,148,197,1,15906
181.051002025,-9,-6,-68,-14,-40,10,-15,-42,13,107,-179,87,27,10,170,2,5,0,193,175,148,197,1,15907
181.061850071,-9,-6,-68,-14,-40,10,-15,-42,13,107,-179,87,27,10,170,2,5,0,193,173,145,203,1,15908
181.073019981,-8,-6,-67,-17,-43,9,-15,-42,14,107,-179,87,27,10,170,2,5,0,195,170,144,205,1,15909
181.091046095,-6,-7,-67,-17,-43,9,-15,-42,14,-32,152,205,56,13,176,2,5,0,193,171,146,204,1,15910
181.103864908,-3,-9,-67,-9,-41,14,-15,-41,14,-62,77,98,76,7,190,2,5,0,188,182,147,200,1,15911
181.115010976,-3,-8,-67,-13,-47,16,-14,-40,15,-62,77,98,76,7,190,2,5,0,196,176,139,207,1,15912
181.143065929,-9,-9,-67,-13,-47,16,-14,-40,15,-30,-29,20,83,-6,208,2,5,0,195,177,141,205,1,15913
181.153939008,-11,-9,-67,-9,-42,16,-14,-40,15,5,-181,227,79,-24,224,2,5,0,195,177,141,205,1,15914
181.165231943,-11,-9,-67,-9,-42,16,-14,-40,15,5,-181,227,79,-24,224,2,5,0,190,182,147,199,1,15915
181.175971985,-10,-9,-67,-15,-33,14,-13,-39,14,5,-181,227,79,-24,224,2,5,0,190,182,147,199,1,15916
181.198414087,-11,-9,-67,-15,-33,14,-13,-39,14,-11,-30,197,65,-42,232,2,5,0,198,172,155,192,1,15917
181.206340074,-10,-9,-66,-15,-38,11,-13,-39,14,15,-3,200,44,-58,229,2,5,0,198,172,155,192,1,15918
181.218080043,-10,-9,-66,-15,-38,11,-13,-39,14,15,-3,200,44,-58,229,2,5,0,195,174,147,203,1,15919
181.227869033,-10,-8,-66,-14,-45,12,-12,-40,13,15,-3,200,44,-58,229,2,5,0,195,174,147,203,1,15920
181.245915889,-7,-10,-66,-14,-45,12,-12,-40,13,-136,18,224,20,-72,215,2,5,0,194,175,141,208,1,15921
181.256959915,-3,-11,-66,-15,-47,13,-12,-40,13,-66,250,209,-1,-81,195,2,5,0,194,175,141,208,1,15922
181.267953872,-3,-11,-66,-15,-47,13,-12,-40,13,-66,250,209,-1,-81,195,2,5,0,195,175,141,207,1,15923
181.279006004,-3,-10,-66,-10,-43,11,-12,-41,13,-66,250,209,-1,-81,195,2,5,0,195,175,141,207,1,15924
181.297132015,-4,-12,-66,-10,-43,11,-12,-41,13,-64,-73,152,-19,-82,175,2,5,0,189,179,147,202,1,15925
181.30794096,-9,-12,-66,-11,-40,13,-12,-41,13,-26,-162,83,-33,-71,161,2,5,0,189,179,147,202,1,15926
181.322761058,-8,-12,-65,-15,-41,15,-13,-41,13,-26,-162,83,-33,-71,161,2,5,0,193,177,148,200,1,15927
181.330116987,-8,-12,-65,-15,-41,15,-13,-41,13,-26,-162,83,-33,-71,161,2,5,0,198,173,146,201,1,15928
181.348874092,-6,-11,-65,-15,-45,14,-13,-42,13,15,107,14,-43,-47,154,2,5,0,196,175,141,207,1,15929
181.359901905,-7,-8,-65,-22,-42,14,-14,-42,13,192,-74,221,-49,-14,155,2,5,0,196,175,141,207,1,15930
181.37095499,-7,-8,-65,-22,-42,14,-14,-42,13,192,-74,221,-49,-14,155,2,5,0,203,168,147,200,1,15931
181.382711887,-7,-8,-65,-16,-42,13,-14,-42,13,192,-74,221,-49,-14,155,2,5,0,193,177,145,202,1,15932
181.399910926,-10,-6,-65,-16,-42,13,-14,-42,13,86,-181,159,-51,19,161,2,5,0,196,174,145,202,1,15933
181.415328025,-10,-6,-65,-8,-39,13,-14,-43,13,20,-60,33,-48,44,170,2,5,0,196,174,145,202,1,15934
181.422039032,-10,-6,-65,-8,-39,13,-14,-43,13,20,-60,33,-48,44,170,2,5,0,187,183,148,199,1,15935
181.433021068,-9,-6,-65,-11,-39,14,-14,-43,13,20,-60,33,-48,44,170,2,5,0,187,183,148,199,1,15936
181.451834917,-11,-5,-65,-11,-39,14,-14,-43,13,52,-73,204,-37,55,180,2,5,0,194,177,147,200,1,15937
181.46279788,-10,-4,-64,-13,-45,13,-15,-43,13,70,6,211,-19,49,190,2,5,0,194,177,147,200,1,15938
181.474204063,-9,-4,-64,-18,-48,10,-15,-43,14,70,6,211,-19,49,190,2,5,0,195,175,140,208,1,15939
181.484863996,-9,-4,-64,-18,-48,10,-15,-43,14,70,6,211,-19,49,190,2,5,0,198,169,141,210,1,15940
181.503166914,-6,-3,-64,-14,-39,15,-15,-42,14,130,198,26,3,28,199,2,5,0,194,178,152,194,1,15941
181.513966083,-9,-2,-64,-20,-43,15,-15,-42,14,42,-92,147,29,-1,207,2,5,0,194,178,152,194,1,15942
181.52493,-9,-2,-64,-20,-43,15,-15,-42,14,42,-92,147,29,-1,207,2,5,0,202,169,142,205,1,15943
181.536006927,-8,-2,-64,-14,-40,18,-14,-42,14,42,-92,147,29,-1,207,2,5,0,194,180,147,197,1,15944
181.554965019,-6,-1,-64,-14,-40,18,-14,-42,14,50,58,105,53,-31,214,2,5,0,197,177,145,199,1,15945
181.566017866,-3,-1,-63,-9,-41,17,-14,-42,14,35,201,194,72,-52,220,2,5,0,197,177,145,199,1,15946
181.577058077,-2,-1,-63,-7,-46,12,-14,-42,14,35,201,194,72,-52,220,2,5,0,190,182,144,201,1,15947
181.587879896,-2,-1,-63,-7,-46,12,-14,-42,14,35,201,194,72,-52,220,2,5,0,188,181,140,208,1,15948
181.606842994,-3,1,-63,-9,-42,12,-14,-42,14,5,-35,16,85,-60,222,2,5,0,191,177,148,201,1,15949
181.619777918,-4,2,-63,-13,-50,12,-14,-43,14,207,-132,103,91,-52,220,2,5,0,191,177,148,201,1,15950
181.628897905,-4,2,-63,-13,-50,12,-14,-43,14,207,-132,103,91,-52,220,2,5,0,195,174,136,213,1,15951
181.639925956,-4,1,-63,-13,-42,14,-14,-43,14,207,-132,103,91,-52,220,2,5,0,195,176,149,199,1,15952
181.658874988,-4,2,-63,-13,-42,14,-14,-43,14,67,-25,83,92,-31,215,2,5,0,194,176,145,203,1,15953
181.669177055,-5,5,-63,-17,-36,15,-14,-43,15,203,-50,136,93,-4,210,2,5,0,194,176,145,203,1,15954
181.679872989,-5,5,-63,-17,-36,15,-14,-43,15,203,-50,136,93,-4,210,2,5,0,199,173,152,194,1,15955
181.690996885,-5,4,-63,-13,-37,14,-13,-43,15,203,-50,136,93,-4,210,2,5,0,199,173,152,194,1,15956
181.708920002,-5,8,-63,-13,-37,14,-13,-43,15,53,-55,186,95,20,209,2,5,0,193,178,147,200,1,15957
181.719966888,-3,10,-62,-12,-45,13,-12,-43,14,19,168,204,103,36,213,2,5,0,193,178,147,200,1,15958
181.731019973,-3,9,-62,-13,-40,16,-11,-43,14,19,168,204,103,36,213,2,5,0,193,177,140,208,1,15959
181.741909027,-3,9,-62,-13,-40,16,-11,-43,14,19,168,204,103,36,213,2,5,0,195,177,148,198,1,15960
181.760842085,-2,11,-62,-11,-50,14,-11,-43,14,220,58,55,116,39,221,2,5,0,191,179,135,212,1,15961
181.771933078,-5,11,-62,-18,-47,12,-12,-43,13,160,-191,251,136,31,231,2,5,0,191,179,135,212,1,15962
181.783001899,-5,11,-62,-18,-47,12,-12,-43,13,160,-191,251,136,31,231,2,5,0,200,169,144,205,1,15963
181.793931961,-4,10,-62,-12,-49,13,-12,-42,13,160,-191,251,136,31,231,2,5,0,189,180,140,208,1,15964
181.81200695,-2,11,-62,-12,-49,13,-12,-42,13,119,170,53,161,18,240,2,5,0,193,177,141,207,1,15965
181.822870016,-2,10,-61,-16,-42,13,-13,-42,13,73,95,139,187,4,246,2,5,0,193,177,141,207,1,15966
181.833858966,-2,9,-61,-15,-32,17,-13,-42,14,73,95,139,187,4,246,2,5,0,197,173,149,199,1,15967
181.845073938,-2,9,-61,-15,-32,17,-13,-42,14,73,95,139,187,4,246,2,5,0,197,176,156,189,1,15968
181.86410594,0,10,-61,-18,-41,11,-14,-43,14,126,101,237,209,-5,251,2,5,0,197,171,143,207,1,15969
181.87511301,-1,8,-61,-13,-38,13,-14,-44,14,-56,-34,118,222,-9,255,2,5,0,197,171,143,207,1,15970
181.886323929,-1,8,-61,-13,-38,13,-14,-44,14,-56,-34,118,222,-9,255,2,5,0,191,179,150,198,1,15971
181.896878957,-1,7,-61,-19,-46,13,-14,-44,14,-56,-34,118,222,-9,255,2,5,0,201,169,139,209,1,15972
181.91488409,-3,8,-61,-19,-46,13,-14,-44,14,37,-141,188,223,-4,5,2,5,0,198,172,143,205,1,15973
181.930831909,-5,9,-61,-12,-48,13,-15,-44,14,172,-153,211,209,6,14,2,5,0,198,172,143,205,1,15974
181.936918974,-5,9,-61,-12,-48,13,-15,-44,14,172,-153,211,209,6,14,2,5,0,190,180,141,207,1,15975
181.94788599,-5,8,-60,-8,-40,18,-15,-43,14,172,-153,211,209,6,14,2,5,0,190,180,141,207,1,15976
181.967063903,-5,9,-60,-8,-40,18,-15,-43,14,49,-10,249,182,19,24,2,5,0,190,183,149,196,1,15977
181.977918863,-5,7,-60,-9,-38,16,-15,-42,14,-10,-12,171,146,27,32,2,5,0,190,183,149,196,1,15978
181.988929033,-5,6,-60,-15,-39,14,-15,-41,13,-10,-12,171,146,27,32,2,5,0,193,180,148,198,1,15979
182.001153946,-5,6,-60,-15,-39,14,-15,-41,13,-10,-12,171,146,27,32,2,5,0,199,172,146,201,1,15980
182.018938064,-4,9,-60,-23,-40,13,-15,-41,14,250,36,196,109,27,36,2,5,0,204,166,147,201,1,15981
182.030011892,-2,8,-60,-16,-48,11,-14,-41,14,47,196,79,76,17,33,2,5,0,204,166,147,201,1,15982
182.040942907,-2,8,-60,-16,-48,11,-14,-41,14,47,196,79,76,17,33,2,5,0,191,177,138,212,1,15983
182.051874876,-2,7,-60,-8,-41,14,-14,-41,14,47,196,79,76,17,33,2,5,0,187,184,149,199,1,15984
182.069982052,-2,11,-60,-8,-41,14,-14,-41,14,158,-5,109,52,0,23,2,5,0,191,180,146,202,1,15985
182.082196951,-1,10,-59,-11,-39,15,-13,-41,14,35,121,53,41,-15,8,2,5,0,191,180,146,202,1,15986
182.091945886,-1,9,-59,-6,-38,13,-13,-41,15,35,121,53,41,-15,8,2,5,0,195,177,148,198,1,15987
182.102954864,-1,9,-59,-6,-38,13,-13,-41,15,35,121,53,41,-15,8,2,5,0,187,183,149,199,1,15988
182.122015953,0,9,-59,-20,-35,13,-13,-41,14,50,136,13,42,-24,247,2,5,0,205,165,151,197,1,15989
182.132914066,0,11,-59,-17,-40,13,-13,-41,14,207,-48,122,54,-23,231,2,5,0,205,165,151,197,1,15990
182.143890857,0,11,-59,-17,-40,13,-13,-41,14,207,-48,122,54,-23,231,2,5,0,195,174,144,204,1,15991
182.154855013,0,10,-59,-17,-39,12,-13,-41,14,207,-48,122,54,-23,231,2,5,0,195,173,149,200,1,15992
182.17288804,0,11,-59,-17,-39,12,-13,-41,14,47,12,10,71,-9,219,2,5,0,196,173,148,201,1,15993
182.183959961,4,9,-59,-12,-38,12,-13,-41,14,-21,231,82,88,12,212,2,5,0,196,173,148,201,1,15994
182.194828033,4,9,-59,-12,-38,12,-13,-41,14,-21,231,82,88,12,212,2,5,0,191,178,149,200,1,15995
182.206136942,3,8,-58,-9,-45,11,-13,-40,13,-21,231,82,88,12,212,2,5,0,191,178,149,200,1,15996
182.223871946,2,11,-58,-9,-45,11,-13,-40,13,152,-87,163,102,37,210,2,5,0,188,180,141,209,1,15997
182.23568201,0,12,-58,-10,-47,15,-13,-39,13,98,-51,104,111,61,210,2,5,0,188,180,141,209,1,15998
182.246347904,0,11,-58,-15,-39,19,-14,-39,13,98,-51,104,111,61,210,2,5,0,193,179,141,206,1,15999
182.256874084,0,11,-58,-15,-39,19,-14,-39,13,98,-51,104,111,61,210,2,5,0,200,175,150,194,1,16000
182.276165962,0,11,-58,-13,-41,14,-14,-39,13,137,-19,85,112,78,210,2,5,0,194,177,145,202,1,16001
182.287003994,-1,9,-58,-15,-33,15,-14,-39,13,-73,-110,246,108,84,206,2,5,0,194,177,145,202,1,16002
182.298738956,-1,9,-58,-15,-33,15,-14,-39,13,-73,-110,246,108,84,206,2,5,0,197,174,154,192,1,16003
182.30907607,-1,8,-58,-17,-47,9,-13,-40,13,-73,-110,246,108,84,206,2,5,0,196,171,138,214,1,16004
182.327008962,0,7,-58,-17,-47,9,-13,-40,13,-11,29,89,100,80,200,2,5,0,195,172,144,207,1,16005
182.337876081,0,6,-57,-17,-51,12,-13,-41,13,16,105,34,90,64,193,2,5,0,195,172,144,207,1,16006
182.348937988,0,5,-57,-9,-42,16,-13,-41,14,16,105,34,90,64,193,2,5,0,195,174,138,211,1,16007
182.359992027,0,5,-57,-9,-42,16,-13,-41,14,16,105,34,90,64,193,2,5,0,189,183,149,197,1,16008
182.378849029,0,8,-57,-8,-41,15,-13,-42,14,172,-35,203,79,40,188,2,5,0,190,181,146,200,1,16009
182.39013195,-3,8,-57,-11,-33,14,-13,-42,14,82,-200,212,67,14,185,2,5,0,190,181,146,200,1,16010
182.400846004,-3,8,-57,-11,-33,14,-13,-42,14,82,-200,212,67,14,185,2,5,0,195,176,155,192,1,16011
182.411946058,-2,7,-57,-11,-38,11,-14,-43,14,82,-200,212,67,14,185,2,5,0,192,176,146,203,1,16012
182.430890083,-3,5,-57,-11,-38,11,-14,-43,14,-114,-31,249,56,-9,187,2,5,0,192,177,149,201,1,16013
182.441869974,-5,2,-57,-17,-43,11,-14,-43,14,-39,-61,84,46,-27,192,2,5,0,192,177,149,201,1,16014
182.454912901,-5,2,-57,-17,-43,11,-14,-43,14,-39,-61,84,46,-27,192,2,5,0,198,170,143,207,1,16015
182.464072942,-5,2,-56,-17,-41,12,-14,-43,14,-39,-61,84,46,-27,192,2,5,0,198,170,143,207,1,16016
182.481981039,-4,1,-56,-17,-41,12,-14,-43,14,-89,86,37,39,-39,199,2,5,0,196,173,147,202,1,16017
182.492918968,-2,2,-56,-17,-42,15,-13,-42,14,155,144,241,33,-46,206,2,5,0,196,173,147,202,1,16018
182.507876873,-2,1,-56,-9,-42,13,-13,-41,13,155,144,241,33,-46,206,2,5,0,197,175,144,202,1,16019
182.514935016,-2,1,-56,-9,-42,13,-13,-41,13,155,144,241,33,-46,206,2,5,0,187,183,145,203,1,16020
182.533858061,-8,2,-56,-13,-46,16,-12,-40,13,36,-225,-2,27,-49,212,2,5,0,197,175,140,206,1,16021
182.545049905,-11,0,-56,-8,-44,15,-13,-40,13,-137,-9,107,20,-46,215,2,5,0,197,175,140,206,1,16022
182.556027889,-11,0,-56,-8,-44,15,-13,-40,13,-137,-9,107,20,-46,215,2,5,0,189,182,145,202,1,16023
182.567154884,-10,0,-56,-17,-39,15,-13,-40,13,-137,-9,107,20,-46,215,2,5,0,201,170,149,197,1,16024
182.58526206,-8,0,-56,-17,-39,15,-13,-40,13,-1,45,65,12,-40,214,2,5,0,197,174,147,200,1,16025
182.598742962,-8,0,-55,-14,-38,12,-13,-41,13,104,-19,184,5,-34,207,2,5,0,197,174,147,200,1,16026
182.606966972,-7,0,-55,-20,-40,12,-14,-41,13,104,-19,184,5,-34,207,2,5,0,193,176,149,200,1,16027
182.617940902,-7,0,-55,-20,-40,12,-14,-41,13,104,-19,184,5,-34,207,2,5,0,200,169,147,202,1,16028
182.636987924,-6,1,-55,-14,-43,13,-14,-42,14,93,40,43,0,-32,194,2,5,0,191,179,143,205,1,16029
182.654819011,-4,0,-55,-10,-48,11,-14,-43,14,-19,157,251,-4,-34,177,2,5,0,191,179,143,205,1,16030
182.658968925,-4,0,-55,-10,-48,11,-14,-43,14,-19,157,251,-4,-34,177,2,5,0,189,179,141,209,1,16031
182.669945001,-4,0,-55,-10,-44,11,-14,-43,14,-19,157,251,-4,-34,177,2,5,0,191,177,146,203,1,16032
182.688047886,-5,-2,-55,-10,-44,11,-14,-43,14,-218,-96,94,-5,-39,158,2,5,0,191,177,145,205,1,16033
182.698961019,-5,-1,-54,-14,-41,15,-14,-43,14,100,-53,12,-2,-43,145,2,5,0,191,177,145,205,1,16034
182.709892988,-5,-1,-54,-14,-41,15,-14,-43,14,100,-53,12,-2,-43,145,2,5,0,198,174,147,199,1,16035
182.720906019,-5,-1,-54,-16,-43,12,-14,-42,14,100,-53,12,-2,-43,145,2,5,0,198,174,147,199,1,16036
182.739985943,-1,-1,-54,-16,-43,12,-14,-42,14,27,191,153,1,-42,142,2,5,0,196,173,144,205,1,16037
182.751594066,0,-3,-54,-24,-44,12,-14,-42,13,-109,126,14,5,-35,152,2,5,0,196,173,144,205,1,16038
182.761992931,0,-3,-54,-12,-42,15,-14,-42,13,-109,126,14,5,-35,152,2,5,0,204,165,144,205,1,16039
182.77303195,0,-3,-54,-12,-42,15,-14,-42,13,-109,126,14,5,-35,152,2,5,0,188,184,146,200,1,16040
182.791908025,-1,-3,-54,-14,-34,16,-14,-43,12,-24,-60,60,6,-22,174,2,5,0,196,176,153,192,1,16041
182.803406953,-3,-6,-54,-5,-34,13,-14,-43,12,-19,-181,77,3,-5,203,2,5,0,196,176,153,192,1,16042
182.813879013,-3,-6,-54,-5,-34,13,-14,-43,12,-19,-181,77,3,-5,203,2,5,0,184,186,151,198,1,16043
182.824912071,-2,-6,-54,-9,-42,14,-14,-43,12,-19,-181,77,3,-5,203,2,5,0,194,177,142,206,1,16044
182.846190929,-3,-8,-54,-9,-42,14,-14,-43,12,-216,-16,161,-2,13,232,2,5,0,191,179,146,202,1,16045
182.854207039,-2,-11,-53,-14,-50,14,-15,-43,13,-227,85,228,-14,29,3,2,5,0,191,179,146,202,1,16046
182.86489892,-2,-11,-53,-14,-50,14,-15,-43,13,-227,85,228,-14,29,3,2,5,0,197,174,136,211,1,16047
182.875855922,-1,-11,-53,-21,-45,11,-15,-42,13,-227,85,228,-14,29,3,2,5,0,201,167,146,203,1,16048
182.894767046,-5,-13,-53,-21,-45,11,-15,-42,13,-117,-178,122,-32,38,26,2,5,0,198,171,144,205,1,16049
182.905313968,-5,-14,-53,-18,-40,16,-14,-41,14,-113,-4,242,-58,37,42,2,5,0,198,171,144,205,1,16050
182.915868997,-4,-13,-53,-14,-33,17,-13,-40,14,-113,-4,242,-58,37,42,2,5,0,197,175,148,198,1,16051
182.92700386,-4,-13,-53,-14,-33,17,-13,-40,14,-113,-4,242,-58,37,42,2,5,0,193,179,154,191,1,16052
182.946152925,-3,-12,-53,-9,-40,16,-13,-40,14,63,97,103,-90,27,51,2,5,0,190,182,142,204,1,16053
182.95699501,-6,-11,-52,-6,-39,14,-13,-40,14,49,-125,158,-122,10,52,2,5,0,190,182,142,204,1,16054
182.968010902,-6,-11,-52,-6,-39,14,-13,-40,14,49,-125,158,-122,10,52,2,5,0,188,183,148,199,1,16055
182.979249,-5,-11,-52,-13,-47,11,-13,-41,14,49,-125,158,-122,10,52,2,5,0,188,183,148,199,1,16056
182.998869896,-3,-12,-52,-13,-47,11,-13,-41,14,-78,141,20,-148,-9,46,2,5,0,197,172,139,211,1,16057
183.008012056,-1,-14,-52,-16,-53,12,-13,-41,14,-184,235,43,-161,-26,33,2,5,0,197,172,139,211,1,16058
183.019006014,-1,-13,-52,-20,-43,11,-13,-41,15,-184,235,43,-161,-26,33,2,5,0,196,173,135,213,1,16059
183.029886961,-1,-13,-52,-20,-43,11,-13,-41,15,-184,235,43,-161,-26,33,2,5,0,199,169,151,199,1,16060
183.048851013,-1,-10,-52,-17,-47,15,-13,-41,14,127,-11,179,-158,-37,18,2,5,0,195,176,139,207,1,16061
183.060019016,-3,-11,-52,-18,-38,15,-13,-42,14,-69,-62,153,-139,-36,3,2,5,0,195,176,139,207,1,16062
183.071019888,-3,-11,-52,-18,-38,15,-13,-42,14,-69,-62,153,-139,-36,3,2,5,0,199,173,152,194,1,16063
183.081909895,-3,-11,-51,-12,-43,13,-13,-42,14,-69,-62,153,-139,-36,3,2,5,0,190,180,142,206,1,16064
183.101038932,0,-11,-51,-12,-43,13,-13,-42,14,-47,202,201,-110,-24,246,2,5,0,193,177,145,203,1,16065
183.111404895,0,-14,-51,-11,-41,15,-13,-43,14,-160,97,245,-78,-3,236,2,5,0,193,177,145,203,1,16066
183.125307083,0,-14,-51,-11,-41,15,-13,-43,14,-160,97,245,-78,-3,236,2,5,0,192,179,147,200,1,16067
183.133041858,0,-13,-51,-16,-43,13,-14,-44,13,-160,97,245,-78,-3,236,2,5,0,198,172,144,204,1,16068
183.151943922,1,-15,-51,-16,-43,13,-14,-44,13,-83,14,139,-47,23,229,2,5,0,196,174,145,203,1,16069
183.162906885,1,-16,-51,-18,-39,15,-15,-45,13,-55,24,182,-25,49,223,2,5,0,196,174,145,203,1,16070
183.173901081,1,-15,-51,-15,-47,10,-15,-45,13,-55,24,182,-25,49,223,2,5,0,199,173,148,198,1,16071
183.18512392,1,-15,-51,-15,-47,10,-15,-45,13,-55,24,182,-25,49,223,2,5,0,192,176,140,211,1,16072
183.203954935,0,-16,-51,-17,-40,13,-16,-44,13,-183,-26,91,-14,71,217,2,5,0,197,173,150,197,1,16073
183.215023994,0,-18,-50,-11,-45,14,-16,-43,14,-198,4,69,-16,86,212,2,5,0,197,173,150,197,1,16074
183.225872039,0,-18,-50,-11,-45,14,-16,-43,14,-198,4,69,-16,86,212,2,5,0,189,181,141,207,1,16075
183.237394094,0,-17,-50,-12,-33,18,-16,-42,14,-198,4,69,-16,86,212,2,5,0,189,181,141,207,1,16076
183.25491786,1,-15,-50,-12,-33,18,-16,-42,14,221,96,101,-30,91,208,2,5,0,196,178,156,188,1,16077
183.265878915,2,-14,-50,-12,-40,15,-15,-42,14,50,202,114,-50,86,207,2,5,0,196,178,156,188,1,16078
183.277086019,2,-13,-50,-18,-47,12,-15,-41,14,50,202,114,-50,86,207,2,5,0,193,178,143,204,1,16079
183.288066864,2,-13,-50,-18,-47,12,-15,-41,14,50,202,114,-50,86,207,2,5,0,200,169,139,210,1,16080
183.307241916,5,-12,-50,-13,-48,10,-15,-41,14,12,187,159,-73,74,213,2,5,0,190,177,143,208,1,16081
183.317910909,3,-11,-50,-19,-50,9,-14,-41,14,79,-72,230,-88,60,226,2,5,0,190,177,143,208,1,16082
183.330451011,3,-11,-50,-19,-50,9,-14,-41,14,79,-72,230,-88,60,226,2,5,0,199,168,141,210,1,16083
183.339923858,3,-10,-49,-11,-40,15,-14,-41,14,79,-72,230,-88,60,226,2,5,0,189,183,150,196,1,16084
183.360929966,3,-8,-49,-11,-40,15,-14,-41,14,119,6,193,-92,49,246,2,5,0,193,179,146,201,1,16085
183.36896801,5,-7,-49,-14,-35,15,-13,-41,14,159,235,8,-80,45,11,2,5,0,193,179,146,201,1,16086
183.379925966,5,-6,-49,-11,-38,15,-14,-42,13,159,235,8,-80,45,11,2,5,0,196,175,152,195,1,16087
183.391522884,5,-6,-49,-11,-38,15,-14,-42,13,159,235,8,-80,45,11,2,5,0,192,180,146,200,1,16088
183.410033941,5,-7,-49,-20,-40,14,-14,-43,13,-87,112,123,-54,49,27,2,5,0,204,167,145,202,1,16089
183.421196937,6,-8,-49,-12,-48,15,-14,-44,13,-37,51,195,-18,57,37,2,5,0,204,167,145,202,1,16090
183.432045936,6,-8,-49,-12,-48,15,-14,-44,13,-37,51,195,-18,57,37,2,5,0,189,182,138,209,1,16091
183.442919016,5,-8,-49,-13,-40,15,-14,-44,13,-37,51,195,-18,57,37,2,5,0,196,176,150,197,1,16092
183.460984945,7,-6,-49,-13,-40,15,-14,-44,13,106,119,221,21,69,37,2,5,0,195,177,146,200,1,16093
183.471937894,5,-4,-48,-19,-40,15,-14,-43,13,108,-60,179,55,82,31,2,5,0,195,177,146,200,1,16094
183.490596056,5,-4,-48,-19,-40,15,-14,-43,13,108,-60,179,55,82,31,2,5,0,201,170,147,200,1,16095
183.494020939,5,-4,-48,-16,-45,12,-14,-42,13,108,-60,179,55,82,31,2,5,0,201,170,147,200,1,16096
183.516851902,2,-1,-48,-16,-45,12,-14,-42,13,205,-155,137,79,93,20,2,5,0,194,175,141,208,1,16097
183.523160934,3,0,-48,-8,-41,11,-14,-41,14,212,129,238,91,99,7,2,5,0,194,175,141,208,1,16098
183.53450799,3,0,-48,-14,-44,13,-15,-41,14,212,129,238,91,99,7,2,5,0,185,183,149,201,1,16099
183.544936895,3,0,-48,-14,-44,13,-15,-41,14,212,129,238,91,99,7,2,5,0,198,172,143,205,1,16100
183.56406188,5,2,-48,-7,-40,13,-15,-41,15,95,249,118,93,98,249,2,5,0,187,183,149,198,1,16101
183.578715086,6,4,-47,-8,-40,16,-15,-41,15,119,210,15,92,88,234,2,5,0,187,183,149,198,1,16102
183.586080074,6,4,-47,-8,-40,16,-15,-41,15,119,210,15,92,88,234,2,5,0,192,181,145,200,1,16103
183.596968889,5,4,-47,-16,-42,18,-14,-41,14,119,210,15,92,88,234,2,5,0,201,172,143,202,1,16104
183.614938974,4,8,-47,-16,-42,18,-14,-41,14,116,-35,41,95,73,223,2,5,0,197,176,144,201,1,16105
183.625899076,6,10,-47,-19,-45,12,-14,-42,14,141,110,138,109,59,215,2,5,0,197,176,144,201,1,16106
183.638657093,5,9,-47,-17,-43,15,-13,-42,14,141,110,138,109,59,215,2,5,0,198,171,143,206,1,16107
183.647958994,5,9,-47,-17,-43,15,-13,-42,14,141,110,138,109,59,215,2,5,0,196,176,145,202,1,16108
183.668820858,7,9,-47,-14,-37,14,-12,-42,13,109,210,236,133,52,213,2,5,0,194,177,152,195,1,16109
183.678020954,7,10,-47,-11,-36,13,-12,-42,14,192,86,79,166,53,213,2,5,0,194,177,152,195,1,16110
183.688911914,7,10,-47,-11,-36,13,-12,-42,14,192,86,79,166,53,213,2,5,0,191,179,150,198,1,16111
183.702848911,7,9,-47,-14,-43,9,-12,-42,14,192,86,79,166,53,213,2,5,0,193,173,143,208,1,16112
183.71885395,5,8,-47,-14,-43,9,-12,-42,14,-30,-171,28,198,63,213,2,5,0,192,174,147,205,1,16113
183.73015809,2,7,-46,-17,-46,14,-13,-42,14,-32,-148,125,221,77,213,2,5,0,192,174,147,205,1,16114
183.741510868,2,7,-46,-17,-46,14,-13,-42,14,-32,-148,125,221,77,213,2,5,0,198,173,141,206,1,16115
183.751919031,2,6,-46,-11,-47,16,-13,-41,14,-32,-148,125,221,77,213,2,5,0,198,173,141,206,1,16116
183.76999402,-1,4,-46,-12,-37,18,-14,-41,14,-30,-131,81,230,91,214,2,5,0,192,181,152,192,1,16117
183.780883073,-5,4,-46,-17,-45,14,-15,-41,14,50,-222,194,220,96,218,2,5,0,192,181,152,192,1,16118
183.791923046,-5,4,-46,-17,-45,14,-15,-41,14,50,-222,194,220,96,218,2,5,0,199,172,138,209,1,16119
183.802965879,-4,3,-46,-14,-40,12,-15,-41,14,50,-222,194,220,96,218,2,5,0,193,176,150,199,1,16120
183.822746992,-3,4,-46,-14,-40,12,-15,-41,14,57,86,72,191,87,226,2,5,0,194,175,147,202,1,16121
183.832985878,-2,5,-45,-14,-39,12,-15,-41,14,174,111,71,149,61,235,2,5,0,194,175,147,202,1,16122
183.843860864,-2,4,-45,-15,-42,15,-14,-42,14,174,111,71,149,61,235,2,5,0,194,176,148,200,1,16123
183.859045028,-2,4,-45,-15,-42,15,-14,-42,14,174,111,71,149,61,235,2,5,0,197,174,143,204,1,16124
183.873911857,-3,7,-45,-10,-38,14,-14,-42,14,222,-51,254,100,22,244,2,5,0,190,181,150,198,1,16125
183.88481903,-1,5,-45,-16,-45,15,-14,-42,14,8,96,12,55,-21,251,2,5,0,190,181,150,198,1,16126
183.895824909,-1,5,-45,-16,-45,15,-14,-42,14,8,96,12,55,-21,251,2,5,0,199,172,140,207,1,16127
183.906919002,-1,5,-45,-10,-46,14,-14,-42,14,8,96,12,55,-21,251,2,5,0,189,182,142,206,1,16128
183.925117969,-2,5,-45,-10,-48,15,-13,-42,14,46,-63,196,24,-58,1,2,5,0,193,178,140,207,1,16129
183.936192989,-3,2,-44,-12,-42,13,-13,-42,14,-74,-7,2,10,-80,6,2,5,0,193,178,140,207,1,16130
183.950758934,-3,2,-44,-12,-42,13,-13,-42,14,-74,-7,2,10,-80,6,2,5,0,194,177,148,199,1,16131
183.958039999,-2,2,-44,-17,-39,12,-13,-42,14,-74,-7,2,10,-80,6,2,5,0,198,171,150,199,1,16132
183.978112936,-2,3,-44,-17,-39,12,-13,-42,14,66,64,33,15,-84,9,2,5,0,196,173,148,201,1,16133
183.987988948,-1,2,-44,-15,-43,12,-13,-42,14,15,35,217,31,-72,11,2,5,0,196,173,148,201,1,16134
183.998882055,-1,2,-44,-15,-43,12,-13,-42,14,15,35,217,31,-72,11,2,5,0,193,176,143,206,1,16135
184.010809898,-1,2,-44,-11,-44,12,-13,-43,14,15,35,217,31,-72,11,2,5,0,190,179,144,205,1,16136
184.028153896,-1,0,-44,-11,-44,12,-13,-43,14,-65,-15,158,50,-48,10,2,5,0,192,177,145,204,1,16137
184.038855076,-5,0,-44,-16,-48,13,-13,-43,14,17,-95,97,65,-20,7,2,5,0,192,177,145,204,1,16138
184.049906015,-5,0,-44,-16,-48,13,-13,-43,14,17,-95,97,65,-20,7,2,5,0,198,171,139,209,1,16139
184.060875892,-4,0,-44,-10,-46,13,-12,-44,14,17,-95,97,65,-20,7,2,5,0,188,181,144,205,1,16140
184.078907966,-8,0,-44,-10,-46,13,-12,-44,14,44,-159,133,71,6,1,2,5,0,191,178,143,206,1,16141
184.089886903,-10,0,-43,-14,-37,14,-12,-44,13,100,-224,35,66,25,248,2,5,0,191,178,143,206,1,16142
184.103044986,-9,0,-43,-13,-35,15,-13,-44,13,100,-224,35,66,25,248,2,5,0,197,174,154,194,1,16143
184.11206007,-9,0,-43,-13,-35,15,-13,-44,13,100,-224,35,66,25,248,2,5,0,195,177,150,197,1,16144
184.132982969,-11,0,-43,-19,-44,14,-13,-44,13,5,-167,39,53,32,235,2,5,0,200,170,140,208,1,16145
184.14210701,-8,0,-43,-18,-45,12,-13,-44,13,-21,134,159,36,23,219,2,5,0,200,170,140,208,1,16146
184.152966976,-8,0,-43,-18,-45,12,-13,-44,13,-21,134,159,36,23,219,2,5,0,196,173,144,205,1,16147
184.164064884,-3,-2,-43,-11,-41,13,-13,-43,13,-44,124,57,20,0,204,2,5,0,191,183,150,202,1,16148
184.183034897,-3,-2,-43,-11,-41,13,-13,-43,13,-44,124,57,20,0,204,2,5,0,194,180,148,204,1,16149
184.194715976,-2,-1,-42,-8,-44,13,-14,-43,13,119,100,14,8,-32,191,2,5,0,194,180,148,204,1,16150
184.204978943,-1,-1,-42,-12,-37,18,-14,-42,13,119,100,14,8,-32,191,2,5,0,191,183,145,208,1,16151
184.215967893,-1,0,-42,-16,-44,15,-14,-41,13,173,11,118,2,-63,184,2,5,0,199,179,153,196,1,16152
184.234998941,-1,0,-42,-16,-44,15,-14,-41,13,173,11,118,2,-63,184,2,5,0,200,175,142,209,1,16153
184.245962858,-5,0,-42,-17,-42,16,-14,-41,14,5,-230,155,1,-84,181,2,5,0,200,175,142,209,1,16154
184.257101059,-5,0,-42,-17,-42,16,-14,-41,14,5,-230,155,1,-84,181,2,5,0,200,176,147,203,1,16155
184.26808691,-5,0,-42,-21,-43,11,-14,-41,14,5,-230,155,1,-84,181,2,5,0,202,170,147,206,1,16156
184.286927938,-2,1,-42,-21,-43,11,-14,-41,14,130,164,101,6,-87,184,2,5,0,200,172,148,206,1,16157
184.297971964,0,1,-41,-15,-43,14,-14,-41,14,28,93,98,17,-73,190,2,5,0,200,172,148,206,1,16158
184.307951927,0,1,-41,-7,-40,17,-14,-42,14,28,93,98,17,-73,190,2,5,0,194,181,147,204,1,16159
184.318975925,0,1,-41,-7,-40,17,-14,-42,14,28,93,98,17,-73,190,2,5,0,190,187,149,200,1,16160
184.337933063,-1,5,-41,-6,-46,14,-14,-42,14,233,-90,68,32,-49,198,2,5,0,191,183,142,210,1,16161
184.34917593,-2,5,-41,-7,-37,15,-14,-42,15,112,-134,30,49,-19,204,2,5,0,191,183,142,210,1,16162
184.36009407,-2,5,-41,-7,-37,15,-14,-42,15,112,-134,30,49,-19,204,2,5,0,194,182,154,196,1,16163
184.370966911,-2,4,-41,-17,-44,11,-14,-42,15,112,-134,30,49,-19,204,2,5,0,194,182,154,196,1,16164
184.390027046,-3,5,-41,-17,-44,11,-14,-42,15,88,-62,65,66,7,205,2,5,0,202,170,144,210,1,16165
184.400904894,-2,7,-41,-19,-44,12,-14,-42,15,225,131,195,83,27,200,2,5,0,202,170,144,210,1,16166
184.412173032,-2,7,-41,-19,-44,12,-14,-42,15,225,131,195,83,27,200,2,5,0,200,173,146,207,1,16167
184.422966957,-1,6,-41,-15,-43,14,-13,-42,15,225,131,195,83,27,200,2,5,0,196,179,147,204,1,16168
184.441534996,0,9,-41,-15,-43,14,-13,-42,15,243,107,30,99,34,191,2,5,0,198,177,147,205,1,16169
184.451940059,2,8,-40,-16,-39,19,-13,-42,14,-3,139,107,113,31,183,2,5,0,198,177,147,205,1,16170
184.462826967,2,7,-40,-8,-46,14,-12,-42,14,-3,139,107,113,31,183,2,5,0,200,178,149,199,1,16171
184.474047899,0,9,-40,-8,-46,14,-12,-42,14,125,-138,226,126,20,180,2,5,0,189,185,141,211,1,16172
184.493006944,0,8,-40,-15,-39,16,-12,-42,14,125,-138,226,126,20,180,2,5,0,201,175,152,198,1,16173
184.5045259,-1,6,-40,-11,-40,14,-12,-42,14,-69,-113,44,137,9,182,2,5,0,201,175,152,198,1,16174
184.514873027,-1,6,-40,-11,-40,14,-12,-42,14,-69,-113,44,137,9,182,2,5,0,193,181,148,203,1,16175
184.526618004,-1,5,-40,-11,-40,10,-13,-42,14,-69,-113,44,137,9,182,2,5,0,194,178,150,205,1,16176
184.543899059,0,6,-40,-11,-40,10,-13,-42,14,63,49,18,145,2,190,2,5,0,194,178,150,205,1,16177
184.555088997,0,5,-39,-18,-43,12,-14,-42,14,26,10,203,146,0,201,2,5,0,194,178,150,205,1,16178
184.566132068,0,4,-39,-15,-48,11,-14,-42,15,26,10,203,146,0,201,2,5,0,201,171,146,207,1,16179
184.577023029,0,4,-39,-15,-48,11,-14,-42,15,26,10,203,146,0,201,2,5,0,195,177,142,211,1,16180
184.596036911,-1,3,-39,-15,-44,12,-14,-42,15,-71,-61,242,139,0,214,2,5,0,196,177,148,204,1,16181
184.606908083,-3,2,-39,-11,-48,15,-14,-42,14,47,-170,65,123,0,226,2,5,0,196,177,148,204,1,16182
