TiempoEjecucion,AnguloPitch,AnguloRoll,AnguloYaw,G_Pitch,G_Roll,G_Yaw,G_Pitch_filtrada,G_Roll_filtrada,G_Yaw_filtrada,Ax,Ay,Az,Ax_filtrada,Ay_filtrada,Az_filtrada,posZ,posZ_filtrada,velZ,motorDelantero,motorTrasero,motorDerecho,motorIzquierdo,EstadoEncendido,MensajesRecibidos
235.528004884,-8,-8,-31,-2,-9,-31,-3,0,2,-37,-134,252,75,33,216,6,6,0,113,106,111,107,1,21314
235.541877985,-7,-8,-31,-2,-8,-31,-5,-2,1,-37,-134,252,75,33,216,6,6,0,113,106,111,107,1,21315
235.558958053,-8,-9,-31,-4,-8,-31,-5,-2,1,-90,-41,178,5,-108,200,6,6,0,107,116,106,109,1,21316
235.569964885,-7,-10,-31,-7,-9,-31,-4,-1,1,-88,59,195,-83,-181,204,6,6,0,115,106,108,110,1,21317
235.581252098,-7,-10,-31,-7,-9,-31,-4,-1,1,-88,59,195,-83,-181,204,6,6,0,115,106,108,110,1,21318
235.594938039,-6,-10,-31,-6,-8,-31,-2,0,2,-88,59,195,-83,-181,204,6,6,0,108,118,112,100,1,21319
235.612392902,-4,-13,-31,-8,-10,-31,-2,0,2,-137,104,113,-115,-97,208,6,6,0,111,115,109,103,1,21320
235.627984046,-5,-11,-31,-6,-11,-31,0,0,4,60,-128,5,-94,47,187,6,6,0,111,115,109,103,1,21321
235.63394308,-5,-11,-31,-6,-11,-31,0,0,4,60,-128,5,-94,47,187,6,6,0,111,113,102,112,1,21322
235.6450181,-5,-10,-31,-6,-10,-31,1,0,6,60,-128,5,-94,47,187,6,6,0,111,113,102,112,1,21323
235.665217876,-5,-9,-31,-4,-12,-31,1,0,6,52,-26,49,-62,91,169,6,6,0,112,107,111,108,1,21324
235.67623806,-5,-9,-31,-4,-11,-31,1,0,5,-41,-21,80,-16,3,206,6,6,0,112,107,111,108,1,21325
235.690124034,-5,-9,-31,-4,-11,-31,1,0,5,-41,-21,80,-16,3,206,6,6,0,107,111,112,108,1,21326
235.698141098,-5,-9,-31,-3,-10,-31,0,0,2,-41,-21,80,-16,3,206,6,6,0,107,111,112,108,1,21327
235.718957901,-5,-7,-31,-4,-9,-31,0,0,-1,97,-16,16,34,-86,33,6,6,0,106,113,106,114,1,21328
235.730195045,-5,-6,-31,-5,-8,-31,0,0,-4,13,-18,149,50,-73,81,6,6,0,106,113,106,114,1,21329
235.74113202,-5,-6,-31,-5,-8,-31,0,0,-4,13,-18,149,50,-73,81,6,6,0,110,105,115,107,1,21330
235.758614063,-4,-5,-31,-4,-7,-31,1,0,-3,13,-18,149,50,-73,81,6,6,0,110,105,115,107,1,21331
235.772062063,-2,-5,-31,-4,-7,-31,1,0,-3,-4,150,251,34,-1,38,6,6,0,106,115,105,112,1,21332
235.787734031,0,-7,-31,-3,-6,-31,1,0,-1,-96,90,120,16,48,206,6,6,0,106,115,105,112,1,21333
235.793973922,0,-7,-31,-3,-6,-31,1,0,-1,-96,90,120,16,48,206,6,6,0,114,105,110,108,1,21334
235.804986953,0,-7,-31,-3,-5,-31,1,0,0,-96,90,120,16,48,206,6,6,0,114,105,110,108,1,21335
235.825118064,0,-12,-31,-1,-6,-31,1,0,0,-130,-14,6,-11,74,150,6,6,0,109,111,109,108,1,21336
235.836005926,0,-10,-31,0,-7,-31,0,0,1,57,11,188,-63,83,129,6,6,0,109,111,109,108,1,21337
235.847110986,0,-10,-31,0,-7,-31,0,0,1,57,11,188,-63,83,129,6,6,0,107,114,102,115,1,21338
235.858026027,0,-10,-31,0,-6,-31,0,0,1,57,11,188,-63,83,129,6,6,0,107,114,102,115,1,21339
235.883789062,0,-10,-31,2,-9,-31,0,0,1,-16,57,182,-91,53,106,6,6,0,113,103,115,107,1,21340
235.889038085,2,-9,-31,2,-10,-31,0,-1,1,9,148,228,-49,11,109,6,6,0,113,103,115,107,1,21341
235.903946876,2,-9,-31,2,-10,-31,0,-1,1,9,148,228,-49,11,109,6,6,0,110,107,113,108,1,21342
235.911350965,2,-8,-31,2,-9,-31,0,-1,0,9,148,228,-49,11,109,6,6,0,110,107,113,108,1,21343
235.932301044,0,-8,-31,2,-8,-31,-2,1,-2,-48,-120,13,18,22,172,6,6,0,109,110,108,111,1,21344
235.943001985,0,-8,-31,3,-7,-31,-3,4,-3,-27,-72,163,27,56,243,6,6,0,109,110,108,111,1,21345
235.95404005,0,-8,-31,3,-7,-31,-3,4,-3,-27,-72,163,27,56,243,6,6,0,112,103,116,107,1,21346
235.967320919,0,-8,-31,2,-7,-31,-2,3,-2,-27,-72,163,27,56,243,6,6,0,112,103,116,107,1,21347
235.985056877,-1,-4,-31,3,-6,-31,-1,0,-1,237,-19,180,-12,19,0,6,6,0,105,113,104,116,1,21348
235.995970964,-4,-4,-31,1,-6,-31,0,-1,0,-31,-157,150,-6,-72,209,6,6,0,114,106,108,109,1,21349
236.007025003,-4,-4,-31,1,-6,-31,0,-1,0,-31,-157,150,-6,-72,209,6,6,0,114,106,108,109,1,21350
236.017968893,-3,-4,-31,1,-6,-31,0,-3,0,-31,-157,150,-6,-72,209,6,6,0,111,108,106,112,1,21351
236.039015054,-2,0,-31,-1,-4,-31,0,-3,0,224,101,251,73,-113,161,6,6,0,115,102,117,104,1,21352
236.050009965,-3,-1,-31,-2,-1,-31,-3,-1,0,-9,-89,26,139,-69,164,6,6,0,115,102,117,104,1,21353
236.060973882,-3,-1,-31,-2,-1,-31,-3,-1,0,-9,-89,26,139,-69,164,6,6,0,105,112,103,117,1,21354
236.072957992,-3,-1,-31,-2,-1,-31,-4,0,-1,-9,-89,26,139,-69,164,6,6,0,105,112,103,117,1,21355
236.092006921,-1,0,-31,-2,0,-31,-4,0,-1,56,178,85,124,-2,221,6,6,0,108,111,117,102,1,21356
236.102979898,-2,-1,-31,-1,1,-31,-2,1,-1,-84,-97,46,60,36,36,6,6,0,108,111,117,102,1,21357
236.115220069,-2,-1,-31,-1,1,-31,-2,1,-1,-84,-97,46,60,36,36,6,6,0,107,111,110,109,1,21358
236.125173091,-2,-1,-31,-1,1,-31,0,1,-1,-84,-97,46,60,36,36,6,6,0,107,111,110,109,1,21359
236.146339893,-1,0,-31,0,1,-31,3,1,0,32,84,84,1,44,77,6,6,0,110,114,105,109,1,21360
236.156981945,-3,0,-31,0,1,-31,2,1,1,4,-179,54,-27,24,78,6,6,0,110,114,105,109,1,21361
236.168035984,-3,0,-31,0,1,-31,2,1,1,4,-179,54,-27,24,78,6,6,0,113,106,112,107,1,21362
236.179090023,-2,0,-31,0,1,-31,1,0,2,4,-179,54,-27,24,78,6,6,0,113,106,112,107,1,21363
236.19956398,-1,-2,-31,0,0,-31,1,0,2,-154,91,218,-25,-16,61,6,6,0,112,109,111,106,1,21364
236.20995903,-3,-4,-31,-1,0,-31,0,0,3,-120,-152,177,-26,-52,35,6,6,0,105,116,108,109,1,21365
236.221096038,-3,-4,-31,-1,0,-31,0,0,3,-120,-152,177,-26,-52,35,6,6,0,105,116,108,109,1,21366
236.23200798,-3,-4,-31,-1,0,-31,0,1,2,-120,-152,177,-26,-52,35,6,6,0,100,116,101,120,1,21367
236.252819061,-4,-5,-31,-1,0,-31,0,1,2,-120,-58,29,-72,-60,249,6,6,0,103,114,105,116,1,21368
236.262964963,-4,-3,-31,-2,-3,-31,1,0,0,97,-33,120,-128,-57,206,6,6,0,103,114,105,116,1,21369
236.274065017,-4,-3,-31,-2,-3,-31,1,0,0,97,-33,120,-128,-57,206,6,6,0,105,113,103,117,1,21370
236.284949064,-4,-2,-31,-2,-2,-31,6,-4,0,97,-33,120,-128,-57,206,6,6,0,105,113,103,117,1,21371
236.304990053,-3,0,-31,-3,-4,-31,6,-4,0,176,62,215,-104,-59,191,6,6,0,119,101,113,106,1,21372
236.319839954,-2,0,-31,-4,-4,-31,6,-8,-1,58,54,39,24,-38,199,6,6,0,119,101,113,106,1,21373
236.326948881,-2,0,-31,-4,-4,-31,6,-8,-1,58,54,39,24,-38,199,6,6,0,114,105,112,108,1,21374
236.338023901,-2,0,-31,-3,-3,-31,1,-5,-1,58,54,39,24,-38,199,6,6,0,114,105,112,108,1,21375
236.360092878,0,0,-31,-3,-1,-31,-5,1,0,-109,120,12,143,23,213,6,6,0,105,116,111,105,1,21376
236.370012044,-2,-1,-31,-1,0,-31,-4,4,0,-38,-120,228,119,81,245,6,6,0,105,116,111,105,1,21377
236.381187915,-2,-1,-31,-1,0,-31,-4,4,0,-38,-120,228,119,81,245,6,6,0,107,109,110,112,1,21378
236.391928911,-2,-1,-31,-1,0,-31,0,3,0,-38,-120,228,119,81,245,6,6,0,107,109,110,112,1,21379
236.412017107,0,0,-31,0,0,-31,0,3,0,45,84,168,-18,73,16,6,6,0,107,115,109,107,1,21380
236.422959089,-2,-2,-31,0,-1,-31,4,0,0,-84,-111,139,-101,8,250,6,6,0,107,115,108,108,1,21381
236.43397808,-2,-2,-31,0,-1,-31,4,0,0,-84,-111,139,-101,8,250,6,6,0,111,110,108,108,1,21382
236.445483922,-2,-1,-31,0,-1,-31,4,0,0,-84,-111,139,-101,8,250,6,6,0,111,110,104,113,1,21383
236.465060949,0,-2,-31,-1,-2,-31,4,0,0,-9,140,194,-57,-39,184,6,6,0,109,110,107,112,1,21384
236.476059913,0,-2,-31,-1,-1,-31,1,0,1,-44,-40,194,6,-22,140,6,6,0,109,110,107,112,1,21385
236.487103939,0,-2,-31,-1,-1,-31,1,0,1,-44,-40,194,6,-22,140,6,6,0,109,109,110,110,1,21386
236.498112916,0,-2,-31,-1,-1,-31,0,-1,1,-44,-40,194,6,-22,140,6,6,0,109,109,110,110,1,21387
236.518594026,0,-3,-31,0,-1,-31,0,-1,1,-17,53,133,-4,28,153,6,6,0,115,103,107,112,1,21388
236.529000997,-1,-4,-31,0,-2,-31,0,-2,0,-67,-125,220,-46,46,187,6,6,0,115,103,107,112,1,21389
236.544569969,-1,-4,-31,0,-2,-31,0,-2,0,-67,-125,220,-46,46,187,6,6,0,112,105,108,113,1,21390
236.550905942,-1,-3,-31,0,-2,-31,-2,-3,-2,-67,-125,220,-46,46,187,6,6,0,112,105,108,113,1,21391
236.572007894,0,-4,-31,0,-3,-31,-3,-2,-1,-43,86,44,-55,8,196,6,6,0,103,115,111,109,1,21392
236.582906007,-3,-3,-31,0,-4,-31,-1,-1,1,50,-221,197,-38,-41,203,6,6,0,103,115,111,109,1,21393
236.593941926,-3,-3,-31,0,-4,-31,-1,-1,1,50,-221,197,-38,-41,203,6,6,0,111,107,111,109,1,21394
236.60493803,-3,-2,-31,0,-3,-31,2,0,1,50,-221,197,-38,-41,203,6,6,0,111,107,111,109,1,21395
236.624942064,-4,-1,-31,-1,-4,-31,2,0,1,91,-59,249,-19,-66,234,6,6,0,107,112,110,109,1,21396
236.636013984,-5,0,-31,-2,-3,-31,3,0,0,134,-126,13,20,-85,5,6,6,0,113,110,108,107,1,21397
236.647049903,-5,0,-31,-2,-3,-31,3,0,0,134,-126,13,20,-85,5,6,6,0,113,110,107,109,1,21398
236.657942056,-5,0,-31,-2,-3,-31,1,0,0,134,-126,13,20,-85,5,6,6,0,112,104,110,112,1,21399
236.67804408,-6,1,-31,-4,-2,-31,1,0,0,116,-92,14,85,-113,255,6,6,0,110,106,104,118,1,21400
236.689271926,-4,0,-31,-5,0,-31,0,0,0,-43,63,165,130,-118,245,6,6,0,110,106,104,118,1,21401
236.700170993,-4,0,-31,-5,0,-31,0,0,0,-43,63,165,130,-118,245,6,6,0,102,118,116,102,1,21402
236.711034059,-4,0,-31,-5,0,-31,-1,-2,0,-43,63,165,130,-118,245,6,6,0,102,118,116,102,1,21403
236.736701965,0,0,-31,-6,1,-31,-1,-2,0,0,169,131,106,-66,239,6,6,0,112,107,113,106,1,21404
236.741887092,0,2,-31,-5,1,-31,0,0,0,63,22,138,29,30,206,6,6,0,112,107,113,106,1,21405
236.753311872,0,2,-31,-5,1,-31,0,0,0,63,22,138,29,30,206,6,6,0,111,104,105,118,1,21406
236.764225959,0,2,-31,-4,1,-31,1,1,-1,63,22,138,29,30,206,6,6,0,111,104,105,118,1,21407
236.784281969,0,0,-31,-2,1,-31,1,1,-1,-152,6,202,-28,112,149,6,6,0,107,114,112,106,1,21408
236.794939041,0,0,-31,0,0,-31,0,1,-1,123,-55,101,-28,104,130,6,6,0,107,114,112,106,1,21409
236.80618596,0,0,-31,0,0,-31,0,1,-1,123,-55,101,-28,104,130,6,6,0,115,103,108,111,1,21410
236.817841053,0,0,-31,0,0,-31,-1,0,0,123,-55,101,-28,104,130,6,6,0,115,103,108,111,1,21411
236.837121963,-2,0,-31,0,0,-31,-1,-1,0,-86,-134,9,-9,10,194,6,6,0,106,110,109,113,1,21412
236.850977897,-2,0,-31,0,0,-31,0,1,0,72,-55,223,-2,-83,34,6,6,0,106,110,109,113,1,21413
236.85900402,-2,0,-31,0,0,-31,0,1,0,72,-55,223,-2,-83,34,6,6,0,105,116,112,104,1,21414
236.87203288,-2,0,-31,0,0,-31,2,2,0,72,-55,223,-2,-83,34,6,6,0,105,116,112,104,1,21415
236.891045093,-3,2,-31,-1,0,-31,2,0,0,85,-34,203,6,-112,64,6,6,0,115,105,104,114,1,21416
236.901992082,-2,0,-31,-2,0,-31,0,0,0,-78,9,190,27,-82,2,6,6,0,115,105,104,114,1,21417
236.913013935,-2,0,-31,-2,0,-31,0,0,0,-78,9,190,27,-82,2,6,6,0,108,113,114,104,1,21418
236.923999071,-2,0,-31,-2,0,-31,-1,-1,0,-78,9,190,27,-82,2,6,6,0,108,113,114,104,1,21419
236.944972038,-4,0,-31,-3,1,-31,-2,-1,0,-86,-153,201,36,-36,184,6,6,0,110,110,109,109,1,21420
236.956156015,-4,0,-31,-3,1,-31,-2,-1,0,15,-10,195,-1,-22,169,6,6,0,110,110,109,109,1,21421
236.967003107,-4,0,-31,-3,1,-31,-2,-1,0,15,-10,195,-1,-22,169,6,6,0,113,104,102,119,1,21422
236.977993965,-4,0,-31,-3,0,-31,-2,-2,0,15,-10,195,-1,-22,169,6,6,0,113,104,102,119,1,21423
236.997941017,-4,0,-31,-4,0,-31,-2,-2,0,56,21,237,-56,-50,196,6,6,0,106,114,115,102,1,21424
237.009221077,-2,-1,-31,-5,0,-31,-1,-2,-1,-40,19,77,-51,-62,214,6,6,0,106,114,115,102,1,21425
237.025949001,-2,-1,-31,-5,0,-31,-1,-2,-1,-40,19,77,-51,-62,214,6,6,0,109,111,110,108,1,21426
237.030944109,-2,-1,-31,-4,0,-31,0,-1,0,-40,19,77,-51,-62,214,6,6,0,109,111,110,108,1,21427
237.05203104,-6,-1,-31,-4,0,-31,2,2,1,2,-107,87,11,-20,192,6,6,0,113,105,113,106,1,21428
237.064558029,-5,0,-31,-3,0,-31,3,3,2,34,8,16,39,15,141,6,6,0,113,105,113,106,1,21429
237.073941946,-5,0,-31,-3,0,-31,3,3,2,34,8,16,39,15,141,6,6,0,104,117,110,108,1,21430
237.084937095,-5,0,-31,-3,0,-31,2,3,1,34,8,16,39,15,141,6,6,0,104,117,110,108,1,21431
237.105202913,-7,1,-31,-4,1,-31,2,3,1,97,-145,162,13,-14,115,6,6,0,116,100,115,107,1,21432
237.116252899,-8,1,-31,-5,1,-31,0,3,0,3,-114,46,7,-76,158,6,6,0,108,110,113,106,1,21433
237.127229929,-8,1,-31,-5,1,-31,0,3,0,3,-114,46,7,-76,158,6,6,0,108,110,113,106,1,21434
237.138051033,-8,1,-31,-5,1,-31,-2,3,-1,3,-114,46,7,-76,158,6,6,0,112,104,103,119,1,21435
237.158145904,-6,3,-31,-6,1,-31,-2,3,-1,201,138,213,51,-104,235,6,6,0,111,105,108,114,1,21436
237.169183969,-4,5,-31,-7,3,-31,-3,2,-2,184,113,56,101,-66,17,6,6,0,111,105,108,114,1,21437
237.180387973,-4,5,-31,-7,3,-31,-3,2,-2,184,113,56,101,-66,17,6,6,0,110,108,108,113,1,21438
237.19097495,-4,5,-31,-6,2,-31,-3,0,-2,184,113,56,101,-66,17,6,6,0,110,108,108,113,1,21439
237.210916996,-4,8,-31,-6,4,-31,-3,0,-2,184,-18,190,140,29,9,6,6,0,108,113,106,111,1,21440
237.222135067,-4,11,-31,-4,6,-31,-2,-4,-1,99,3,86,178,107,243,6,6,0,108,113,106,111,1,21441
237.233045101,-4,11,-31,-4,6,-31,-2,-4,-1,99,3,86,178,107,243,6,6,0,108,110,108,111,1,21442
237.244133949,-3,10,-31,-4,6,-31,0,-5,0,99,3,86,178,107,243,6,6,0,108,110,108,111,1,21443
237.265778064,-4,11,-31,-2,8,-31,2,-2,1,97,-35,230,185,81,209,6,6,0,111,107,118,102,1,21444
237.278635978,-2,9,-31,-2,10,-31,2,2,1,-86,113,250,135,-8,165,6,6,0,111,107,118,102,1,21445
237.286105871,-2,9,-31,-2,10,-31,2,2,1,-86,113,250,135,-8,165,6,6,0,104,115,111,109,1,21446
237.296994924,-1,8,-31,-2,10,-31,1,5,0,-86,113,250,135,-8,165,6,6,0,104,115,111,109,1,21447
237.317061901,-3,7,-31,-3,11,-31,1,5,0,-58,-69,164,48,-39,160,6,6,0,111,106,113,107,1,21448
237.328192949,0,4,-31,-3,9,-31,0,5,-1,-127,114,114,-37,11,201,6,6,0,111,106,113,107,1,21449
237.340820074,0,4,-31,-3,9,-31,0,5,-1,-127,114,114,-37,11,201,6,6,0,107,112,111,109,1,21450
237.350257873,0,3,-31,-2,9,-31,0,3,-1,-127,114,114,-37,11,201,6,6,0,107,112,111,109,1,21451
237.369925022,-2,2,-31,-1,7,-31,0,3,-1,-71,-94,168,-94,53,213,6,6,0,115,103,108,112,1,21452
237.381402015,-1,4,-31,-1,4,-31,0,1,0,144,88,35,-103,34,168,6,6,0,115,103,108,112,1,21453
237.392038106,-1,4,-31,-1,4,-31,0,1,0,144,88,35,-103,34,168,6,6,0,114,105,109,109,1,21454
237.403979063,-1,3,-31,-1,4,-31,-1,0,0,144,88,35,-103,34,168,6,6,0,114,105,109,109,1,21455
237.423063993,-1,2,-31,-1,3,-31,-1,0,0,-76,-31,35,-54,-2,150,6,6,0,105,113,104,117,1,21456
237.43396902,1,2,-31,-1,3,-31,-3,-1,0,-17,138,166,18,-3,217,6,6,0,105,113,104,117,1,21457
237.446552038,1,2,-31,-1,3,-31,-3,-1,0,-17,138,166,18,-3,217,6,6,0,107,110,109,111,1,21458
237.456214904,0,1,-31,-1,2,-31,-2,-3,0,-17,138,166,18,-3,217,6,6,0,107,110,109,111,1,21459
237.477030992,-2,1,-31,0,3,-31,1,-3,0,-15,-116,114,39,29,27,6,6,0,106,113,118,102,1,21460
237.488020896,-2,2,-31,0,2,-31,3,-1,0,60,-5,148,-6,43,243,6,6,0,106,113,118,102,1,21461
237.499011039,-2,2,-31,0,2,-31,3,-1,0,60,-5,148,-6,43,243,6,6,0,110,111,103,114,1,21462
237.510020017,-1,2,-31,0,2,-31,3,1,1,60,-5,148,-6,43,243,6,6,0,110,111,103,114,1,21463
237.530292034,0,5,-31,0,1,-31,3,1,1,214,97,237,-27,9,140,6,6,0,104,115,116,103,1,21464
237.540987968,0,5,-31,0,3,-31,2,3,1,0,-1,208,40,-23,108,6,6,0,108,112,111,107,1,21465
237.554625988,0,5,-31,0,3,-31,2,3,1,0,-1,208,40,-23,108,6,6,0,108,112,111,107,1,21466
237.562963962,0,4,-31,0,3,-31,3,2,0,0,-1,208,40,-23,108,6,6,0,109,109,106,114,1,21467
237.582928895,0,6,-31,0,5,-31,3,2,0,192,-1,115,133,2,183,6,6,0,107,110,109,111,1,21468
237.594204902,-2,7,-31,0,7,-31,4,1,0,96,-109,34,153,40,23,6,6,0,107,110,109,111,1,21469
237.604942083,-2,7,-31,0,7,-31,4,1,0,96,-109,34,153,40,23,6,6,0,118,101,114,105,1,21470
237.61620593,-1,6,-31,0,6,-31,2,1,0,96,-109,34,153,40,23,6,6,0,118,101,114,105,1,21471
237.636329889,-1,7,-31,0,8,-31,2,1,0,42,18,188,114,12,65,6,6,0,105,113,106,115,1,21472
237.646976947,-2,6,-31,0,8,-31,-1,0,-1,-38,-46,202,80,-53,42,6,6,0,105,113,106,115,1,21473
237.658103942,-2,6,-31,0,8,-31,-1,0,-1,-38,-46,202,80,-53,42,6,6,0,101,117,111,109,1,21474
237.671875953,-2,6,-31,0,7,-31,-1,0,-1,-38,-46,202,80,-53,42,6,6,0,101,117,111,109,1,21475
237.690110921,0,6,-31,-1,8,-31,2,0,0,64,61,244,53,-67,237,6,6,0,122,98,111,107,1,21476
237.700974941,-1,7,-31,-1,7,-31,6,0,0,84,-51,30,19,-17,193,6,6,0,122,98,111,107,1,21477
237.712063074,-1,7,-31,-1,7,-31,6,0,0,84,-51,30,19,-17,193,6,6,0,105,113,103,116,1,21478
237.722979068,-1,6,-31,-1,7,-31,2,0,0,84,-51,30,19,-17,193,6,6,0,105,113,103,116,1,21479
237.743942976,0,4,-31,0,7,-31,2,0,0,-164,103,206,6,28,211,6,6,0,120,100,115,103,1,21480
237.754133939,0,5,-31,0,7,-31,-4,0,1,82,38,237,14,33,1,6,6,0,105,115,107,111,1,21481
237.764940023,0,5,-31,0,7,-31,-4,0,1,82,38,237,14,33,1,6,6,0,105,115,107,111,1,21482
237.776217937,0,4,-31,0,6,-31,-6,0,0,82,38,237,14,33,1,6,6,0,106,112,114,106,1,21483
237.796015977,2,4,-31,0,6,-31,-6,0,0,-77,171,20,-2,36,11,6,6,0,107,111,112,108,1,21484
237.807296037,2,5,-31,1,5,-31,-2,0,0,92,9,167,-32,71,238,6,6,0,107,111,112,108,1,21485
237.819247007,2,5,-31,1,5,-31,-2,0,0,92,9,167,-32,71,238,6,6,0,116,105,111,106,1,21486
237.829061985,2,5,-31,1,5,-31,1,2,0,92,9,167,-32,71,238,6,6,0,116,105,111,106,1,21487
237.84900093,3,6,-31,3,5,-31,1,2,0,47,45,238,-19,104,219,6,6,0,104,115,104,115,1,21488
237.86048603,3,5,-31,4,5,-31,1,2,0,17,25,44,33,87,222,6,6,0,104,115,104,115,1,21489
237.871218919,3,5,-31,4,5,-31,1,2,0,17,25,44,33,87,222,6,6,0,112,104,112,109,1,21490
237.882001876,3,5,-31,3,4,-31,0,0,0,17,25,44,33,87,222,6,6,0,112,104,112,109,1,21491
237.903049945,2,5,-31,4,5,-31,-1,-2,-1,58,-28,51,68,33,237,6,6,0,113,106,113,106,1,21492
237.913987875,0,5,-31,3,6,-31,-1,-2,-1,18,-117,49,55,-8,14,6,6,0,113,106,113,106,1,21493
237.925018072,0,5,-31,3,6,-31,-1,-2,-1,18,-117,49,55,-8,14,6,6,0,102,116,109,110,1,21494
237.936114072,0,5,-31,3,5,-31,0,0,0,18,-117,49,55,-8,14,6,6,0,102,116,109,110,1,21495
237.956219911,2,8,-31,3,6,-31,0,0,0,145,93,136,32,-28,48,6,6,0,114,107,111,105,1,21496
237.967005968,5,7,-31,2,6,-31,0,2,1,0,100,137,41,-32,30,6,6,0,106,114,112,106,1,21497
237.977993011,5,7,-31,2,6,-31,0,2,1,0,100,137,41,-32,30,6,6,0,106,114,102,117,1,21498
237.989114046,4,7,-31,2,5,-31,1,1,1,0,100,137,41,-32,30,6,6,0,117,102,102,117,1,21499
238.00899887,6,2,-31,2,6,-31,1,1,1,-60,143,123,59,9,203,6,6,0,113,106,117,103,1,21500
238.019965887,5,1,-31,4,6,-31,0,0,1,-96,-24,225,2,91,120,6,6,0,113,106,117,103,1,21501
238.031003952,5,1,-31,4,6,-31,0,0,1,-96,-24,225,2,91,120,6,6,0,112,109,106,111,1,21502
238.042062997,4,1,-31,4,6,-31,-1,-1,0,-96,-24,225,2,91,120,6,6,0,112,109,106,111,1,21503
238.061951875,6,-1,-31,7,3,-31,-1,-1,0,-142,131,212,-137,131,114,6,6,0,103,115,112,108,1,21504
238.073858976,8,0,-31,7,0,-31,-3,0,0,10,111,205,-223,93,179,6,6,0,103,115,112,108,1,21505
238.084218025,8,0,-31,7,0,-31,-3,0,0,10,111,205,-223,93,179,6,6,0,111,108,114,105,1,21506
238.095059871,7,0,-31,7,0,-31,-1,2,0,10,111,205,-223,93,179,6,6,0,111,108,114,105,1,21507
238.115999937,8,0,-31,7,-2,-31,2,2,0,18,46,141,-154,53,233,6,6,0,111,108,99,120,1,21508
238.126911878,9,0,-31,8,-2,-31,3,0,0,14,80,252,-12,71,221,6,6,0,111,108,99,120,1,21509
238.137953996,9,0,-31,8,-2,-31,3,0,0,14,80,252,-12,71,221,6,6,0,108,112,111,107,1,21510
238.149013996,8,0,-31,7,-2,-31,1,-4,0,14,80,252,-12,71,221,6,6,0,108,112,111,107,1,21511
238.169041872,8,-1,-31,9,-1,-31,1,-4,0,-119,35,40,54,96,186,6,6,0,116,104,102,116,1,21512
238.17997694,9,-1,-31,10,-1,-31,-1,-5,0,-4,157,106,12,80,204,6,6,0,116,104,102,116,1,21513
238.190960884,9,-1,-31,10,-1,-31,-1,-5,0,-4,157,106,12,80,204,6,6,0,107,111,107,113,1,21514
238.201910972,9,-1,-31,9,-1,-31,-2,-4,0,-4,157,106,12,80,204,6,6,0,107,111,107,113,1,21515
238.222040891,7,-1,-31,10,-1,-31,-2,-4,0,16,-139,4,-57,55,27,6,6,0,111,109,117,101,1,21516
238.233051061,7,0,-31,10,-2,-31,-2,-2,0,84,67,14,-63,42,87,6,6,0,111,109,117,101,1,21517
238.244087934,7,0,-31,10,-2,-31,-2,-2,0,84,67,14,-63,42,87,6,6,0,114,106,112,106,1,21518
238.254929065,7,0,-31,9,-2,-31,-1,1,0,84,67,14,-63,42,87,6,6,0,114,106,112,106,1,21519
238.274990081,6,1,-31,9,-2,-31,-1,1,0,65,-16,195,7,17,66,6,6,0,108,110,113,107,1,21520
238.285940885,6,0,-31,8,0,-31,-1,4,0,-26,5,186,77,-15,249,6,6,0,108,110,113,107,1,21521
238.297064065,6,0,-31,8,0,-31,-1,4,0,-26,5,186,77,-15,249,6,6,0,109,108,109,111,1,21522
238.308290004,5,0,-31,8,0,-31,-1,5,0,-26,5,186,77,-15,249,6,6,0,109,108,109,111,1,21523
238.327987909,6,1,-31,7,0,-31,-1,5,0,46,50,243,78,-15,195,6,6,0,104,117,104,113,1,21524
238.34418106,4,1,-31,7,1,-31,0,2,0,-19,-115,34,25,11,192,6,6,0,104,117,104,113,1,21525
238.350734949,4,1,-31,7,1,-31,0,2,0,-19,-115,34,25,11,192,6,6,0,105,115,109,110,1,21526
238.360927104,4,0,-31,7,1,-31,3,-2,0,-19,-115,34,25,11,192,6,6,0,105,115,109,110,1,21527
238.381222963,2,0,-31,6,0,-31,5,-3,0,-43,-83,236,-14,9,228,6,6,0,119,98,109,112,1,21528
238.392230033,1,0,-31,5,0,-31,3,-2,0,-60,-61,55,-19,-41,12,6,6,0,119,98,109,112,1,21529
238.40386796,1,0,-31,5,0,-31,3,-2,0,-60,-61,55,-19,-41,12,6,6,0,108,111,113,106,1,21530
238.414056062,1,0,-31,5,0,-31,-2,0,0,-60,-61,55,-19,-41,12,6,6,0,108,111,113,106,1,21531
238.434007883,2,-1,-31,3,0,-31,-2,0,0,-63,32,181,-26,-93,26,6,6,0,115,103,107,114,1,21532
238.445229053,4,0,-31,2,0,-31,-5,0,-1,51,90,141,-49,-76,4,6,6,0,108,110,105,116,1,21533
238.459945917,4,0,-31,2,0,-31,-5,0,-1,51,90,141,-49,-76,4,6,6,0,108,110,105,116,1,21534
238.473248004,4,0,-31,2,0,-31,-4,-1,-1,51,90,141,-49,-76,4,6,6,0,108,111,117,101,1,21535
238.487140893,7,0,-31,2,-1,-31,-4,-1,-1,10,186,203,-49,12,214,6,6,0,109,110,112,107,1,21536
238.500513076,8,-2,-31,4,-1,-31,-1,-2,-1,-112,128,145,-12,110,167,6,6,0,109,110,112,107,1,21537
238.509371042,8,-2,-31,4,-1,-31,-1,-2,-1,-112,128,145,-12,110,167,6,6,0,111,108,110,108,1,21538
238.520011901,8,-2,-31,4,-1,-31,0,0,0,-112,128,145,-12,110,167,6,6,0,111,108,110,108,1,21539
238.540941,7,-1,-31,7,-1,-31,0,0,0,43,-40,29,13,158,153,6,6,0,105,116,109,108,1,21540
238.550960063,6,-3,-31,9,-1,-31,0,2,0,-131,-100,32,-14,122,187,6,6,0,105,116,109,108,1,21541
238.563956022,6,-3,-31,9,-1,-31,0,2,0,-131,-100,32,-14,122,187,6,6,0,109,110,113,106,1,21542
238.573153018,5,-2,-31,8,-1,-31,1,4,1,-131,-100,32,-14,122,187,6,6,0,109,110,113,106,1,21543
238.593959093,5,0,-31,8,-2,-31,2,2,1,126,-3,146,-53,16,241,6,6,0,114,102,104,118,1,21544
238.605436086,4,2,-31,6,-2,-31,1,0,0,138,5,186,-37,-78,9,6,6,0,114,102,104,118,1,21545
238.615967989,4,2,-31,6,-2,-31,1,0,0,138,5,186,-37,-78,9,6,6,0,106,113,111,108,1,21546
238.628206968,4,2,-31,6,-2,-31,0,-2,-1,138,5,186,-37,-78,9,6,6,0,106,113,111,108,1,21547
238.647120952,4,5,-31,4,-1,-31,0,-2,-1,244,-31,224,48,-79,228,6,6,0,114,103,108,113,1,21548
238.658101081,1,7,-31,4,1,-31,-2,-2,-1,73,-62,96,155,-14,172,6,6,0,109,108,108,113,1,21549
238.670063018,1,7,-31,4,1,-31,-2,-2,-1,73,-62,96,155,-14,172,6,6,0,109,108,114,107,1,21550
238.679975986,1,7,-31,3,1,-31,-2,-1,-1,73,-62,96,155,-14,172,6,6,0,111,108,112,106,1,21551
238.700028896,1,5,-31,4,5,-31,-2,-1,-1,-58,-13,138,199,11,152,6,6,0,111,108,107,112,1,21552
238.710970878,0,1,-31,3,7,-31,-2,0,-1,-134,-19,85,124,-25,150,6,6,0,111,108,107,112,1,21553
238.722193002,0,1,-31,3,7,-31,-2,0,-1,-134,-19,85,124,-25,150,6,6,0,113,104,107,114,1,21554
238.733114004,0,1,-31,2,6,-31,-2,0,-1,-134,-19,85,124,-25,150,6,6,0,113,104,107,114,1,21555
238.753258943,0,-3,-31,1,5,-31,-2,0,-1,-178,-39,98,-30,-54,127,6,6,0,106,115,110,107,1,21556
238.764214992,0,-4,-31,0,1,-31,-2,-1,0,-79,-21,21,-157,-37,100,6,6,0,106,115,110,107,1,21557
238.775929927,0,-4,-31,0,1,-31,-2,-1,0,-79,-21,21,-157,-37,100,6,6,0,109,113,108,107,1,21558
238.785979032,0,-3,-31,0,1,-31,0,-1,1,-79,-21,21,-157,-37,100,6,6,0,109,113,108,107,1,21559
238.806885004,0,-6,-31,0,-2,-31,2,0,2,-243,6,215,-185,-13,120,6,6,0,114,103,106,114,1,21560
238.818171978,0,-4,-31,0,-4,-31,2,0,2,133,-12,214,-145,-11,193,6,6,0,114,103,106,114,1,21561
238.829175949,0,-4,-31,0,-4,-31,2,0,2,133,-12,214,-145,-11,193,6,6,0,107,113,115,103,1,21562
238.840097904,0,-3,-31,0,-4,-31,0,0,0,133,-12,214,-145,-11,193,6,6,0,107,113,115,103,1,21563
238.860302925,-1,-7,-31,0,-5,-31,0,0,0,-126,-61,103,-94,-16,249,6,6,0,115,100,108,115,1,21564
238.870905876,-1,-6,-31,0,-6,-31,-2,0,-2,21,-8,162,-44,-17,225,6,6,0,103,112,115,108,1,21565
238.882045984,-1,-6,-31,0,-6,-31,-2,0,-2,21,-8,162,-44,-17,225,6,6,0,103,112,115,108,1,21566
238.893074989,-1,-5,-31,0,-5,-31,-2,0,-3,21,-8,162,-44,-17,225,6,6,0,111,107,104,117,1,21567
238.913954973,0,-6,-31,-1,-5,-31,0,0,-3,-84,51,182,-10,-23,152,6,6,0,107,113,112,106,1,21568
238.924999952,0,-6,-31,-1,-5,-31,0,0,-2,-26,-30,254,-17,-19,122,6,6,0,107,113,112,106,1,21569
238.935951948,0,-6,-31,-1,-5,-31,0,0,-2,-26,-30,254,-17,-19,122,6,6,0,109,109,107,113,1,21570
238.947093963,0,-6,-31,-1,-5,-31,1,-1,0,-26,-30,254,-17,-19,122,6,6,0,109,109,107,113,1,21571
238.967003107,0,-3,-31,-1,-6,-31,1,-1,1,108,57,184,-42,4,168,6,6,0,108,111,113,105,1,21572
238.978175878,0,-4,-31,0,-6,-31,1,0,2,-88,51,89,-32,28,235,6,6,0,108,111,113,105,1,21573
238.988971948,0,-4,-31,0,-6,-31,1,0,2,-88,51,89,-32,28,235,6,6,0,109,111,107,110,1,21574
239.000191926,0,-4,-31,0,-5,-31,2,2,2,-88,51,89,-32,28,235,6,6,0,109,111,107,110,1,21575
239.021143913,2,-6,-31,0,-5,-31,2,2,1,-130,90,200,5,38,7,6,6,0,113,106,111,108,1,21576
239.032178878,0,-5,-31,0,-4,-31,1,1,0,-9,-94,103,-2,46,9,6,6,0,113,106,111,108,1,21577
239.042897939,0,-5,-31,0,-4,-31,1,1,0,-9,-94,103,-2,46,9,6,6,0,109,109,110,111,1,21578
239.054023981,0,-5,-31,0,-4,-31,0,1,0,-9,-94,103,-2,46,9,6,6,0,109,109,110,111,1,21579
239.074058055,-1,-6,-31,1,-5,-31,0,1,0,-99,-209,241,-69,35,16,6,6,0,113,103,111,112,1,21580
239.085036039,0,-5,-31,0,-6,-31,-2,0,-2,43,58,237,-105,-33,29,6,6,0,113,103,111,112,1,21581
239.096184968,0,-5,-31,0,-6,-31,-2,0,-2,43,58,237,-105,-33,29,6,6,0,110,106,109,112,1,21582
239.106940984,0,-5,-31,0,-6,-31,-4,0,-2,43,58,237,-105,-33,29,6,6,0,110,106,109,112,1,21583
239.12698102,0,-5,-31,0,-6,-31,-4,0,-2,-1,97,19,-61,-109,25,6,6,0,109,110,108,111,1,21584
239.139904022,1,-3,-31,-1,-6,-31,-4,-1,-2,121,73,19,10,-75,2,6,6,0,109,110,108,111,1,21585
239.149266958,1,-3,-31,-1,-6,-31,-4,-1,-2,121,73,19,10,-75,2,6,6,0,108,113,108,110,1,21586
239.160088062,1,-2,-31,-1,-5,-31,-1,-1,-1,121,73,19,10,-75,2,6,6,0,108,113,108,110,1,21587
239.180028915,2,-3,-31,0,-5,-31,-1,-1,-1,-18,44,230,51,58,247,6,6,0,112,111,106,109,1,21588
239.190953016,1,-1,-31,1,-3,-31,0,-1,1,38,-30,121,58,135,252,6,6,0,112,111,106,109,1,21589
239.204143047,1,-1,-31,1,-3,-31,0,-1,1,38,-30,121,58,135,252,6,6,0,112,109,109,108,1,21590
239.220010995,1,-1,-31,0,-3,-31,1,-1,3,38,-30,121,58,135,252,6,6,0,112,109,109,108,1,21591
239.233875036,0,0,-31,2,-2,-31,0,0,3,151,-20,219,46,75,236,6,6,0,115,103,113,107,1,21592
239.245208025,0,2,-31,1,-1,-31,0,1,0,125,-27,247,47,-26,190,6,6,0,115,103,113,107,1,21593
239.255975961,0,2,-31,1,-1,-31,0,1,0,125,-27,247,47,-26,190,6,6,0,102,116,110,110,1,21594
239.267185926,0,2,-31,1,-1,-31,0,2,-1,125,-27,247,47,-26,190,6,6,0,102,116,110,110,1,21595
239.287401914,0,1,-31,0,0,-31,0,2,-1,-75,13,15,82,-59,172,6,6,0,117,99,112,109,1,21596
239.300025939,0,4,-31,0,2,-31,-1,2,-2,165,-1,177,105,-25,216,6,6,0,110,108,112,109,1,21597
239.30892992,0,4,-31,0,2,-31,-1,2,-2,165,-1,177,105,-25,216,6,6,0,110,108,112,109,1,21598
239.320069074,0,4,-31,0,1,-31,-2,1,-2,165,-1,177,105,-25,216,6,6,0,105,114,111,108,1,21599
239.341013908,0,1,-31,0,3,-31,-2,1,-2,-150,-56,167,69,9,4,6,6,0,108,111,106,113,1,21600
239.350148916,0,1,-31,0,2,-31,-3,0,-1,-5,-3,246,3,3,236,6,6,0,108,111,106,113,1,21601
239.361026048,0,1,-31,0,2,-31,-3,0,-1,-5,-3,246,3,3,236,6,6,0,111,107,109,112,1,21602
239.372056007,0,0,-31,0,2,-31,-1,0,-1,-5,-3,246,3,3,236,6,6,0,111,107,109,112,1,21603
239.392083883,-2,0,-31,0,1,-31,-1,0,-1,-18,-147,26,-39,-28,186,6,6,0,108,112,110,108,1,21604
239.404068946,-1,2,-31,-1,0,-31,1,-1,0,146,75,5,-42,-56,194,6,6,0,108,112,110,108,1,21605
239.41395998,-1,2,-31,-1,0,-31,1,-1,0,146,75,5,-42,-56,194,6,6,0,110,112,108,108,1,21606
239.425069093,-1,2,-31,-1,0,-31,2,-1,0,146,75,5,-42,-56,194,6,6,0,110,112,108,108,1,21607
239.445921897,-2,5,-31,-2,0,-31,1,0,1,218,-99,177,6,-59,0,6,6,0,110,106,115,107,1,21608
239.457113981,0,5,-31,-2,2,-31,1,0,1,-10,93,249,99,-36,26,6,6,0,110,106,115,107,1,21609
239.468023061,0,5,-31,-2,2,-31,1,0,1,-10,93,249,99,-36,26,6,6,0,105,115,105,113,1,21610
239.480136871,0,4,-31,-2,1,-31,0,0,0,-10,93,249,99,-36,26,6,6,0,105,115,105,113,1,21611
239.499130964,-1,4,-31,-2,4,-31,0,0,0,0,-45,205,161,-2,240,6,6,0,113,104,113,108,1,21612
239.511928081,0,5,-31,-2,6,-31,0,0,-2,98,62,238,114,17,196,6,6,0,111,107,111,110,1,21613
239.521306991,0,5,-31,-2,6,-31,0,0,-2,98,62,238,114,17,196,6,6,0,111,107,111,110,1,21614
239.532092094,0,5,-31,-1,5,-31,0,0,-1,98,62,238,114,17,196,6,6,0,109,109,115,105,1,21615
239.553011894,0,3,-31,-1,5,-31,-1,1,0,-94,65,47,13,23,207,6,6,0,110,111,106,111,1,21616
239.563976049,0,4,-31,0,4,-31,-2,2,0,117,53,100,-26,31,253,6,6,0,110,111,106,111,1,21617
239.574954032,0,4,-31,0,4,-31,-2,2,0,117,53,100,-26,31,253,6,6,0,114,104,113,107,1,21618
239.586055994,0,4,-31,0,4,-31,-1,2,0,117,53,100,-26,31,253,6,6,0,114,104,113,107,1,21619
239.605989933,1,3,-31,0,4,-31,-1,2,0,-29,21,180,6,51,40,6,6,0,104,116,105,114,1,21620
239.617166996,2,4,-31,0,4,-31,0,0,0,30,54,175,38,61,48,6,6,0,104,116,105,114,1,21621
239.628243923,2,4,-31,0,4,-31,0,0,0,30,54,175,38,61,48,6,6,0,106,115,106,112,1,21622
239.639045,2,3,-31,0,4,-31,1,-1,0,30,54,175,38,61,48,6,6,0,106,115,106,112,1,21623
239.659085989,4,2,-31,1,4,-31,1,-1,0,-52,65,108,30,49,252,6,6,0,111,106,107,113,1,21624
239.670026063,5,0,-31,2,4,-31,2,-3,0,-143,155,228,-5,41,167,6,6,0,111,106,107,113,1,21625
239.681181907,5,0,-31,2,4,-31,2,-3,0,-143,155,228,-5,41,167,6,6,0,109,111,118,100,1,21626
239.695852041,5,0,-31,2,4,-31,2,-2,0,-143,155,228,-5,41,167,6,6,0,109,111,118,100,1,21627
239.712982893,3,-1,-31,3,2,-31,0,1,0,-73,-60,182,-53,63,124,6,6,0,111,109,105,113,1,21628
239.727885007,4,0,-31,5,0,-31,-3,5,0,32,44,6,-93,84,159,6,6,0,111,109,105,113,1,21629
239.733944892,4,0,-31,5,0,-31,-3,5,0,32,44,6,-93,84,159,6,6,0,109,107,103,119,1,21630
239.744971036,4,0,-31,4,0,-31,-4,3,0,32,44,6,-93,84,159,6,6,0,109,107,103,119,1,21631
239.76594901,2,0,-31,5,-1,-31,-4,3,0,5,-104,201,-89,52,221,6,6,0,108,113,107,110,1,21632
239.776973009,2,0,-31,5,-1,-31,-1,-3,0,43,25,35,-25,-17,249,6,6,0,108,113,107,110,1,21633
239.791852951,2,0,-31,5,-1,-31,-1,-3,0,43,25,35,-25,-17,249,6,6,0,113,105,110,109,1,21634
239.799055099,2,0,-31,4,-1,-31,1,-7,0,43,25,35,-25,-17,249,6,6,0,113,105,110,109,1,21635
239.819952964,3,1,-31,3,0,-31,1,-7,0,94,85,223,43,-53,243,6,6,0,105,118,114,102,1,21636
239.830000877,3,2,-31,3,0,-31,1,-3,1,72,15,22,69,-18,241,6,6,0,105,118,114,102,1,21637
239.841115951,3,2,-31,3,0,-31,1,-3,1,72,15,22,69,-18,241,6,6,0,111,108,113,106,1,21638
239.855958938,3,2,-31,3,0,-31,0,3,1,72,15,22,69,-18,241,6,6,0,111,108,113,106,1,21639
239.872432947,5,1,-31,3,1,-31,0,3,1,-45,150,201,65,51,251,6,6,0,109,106,108,114,1,21640
239.882946968,5,0,-31,5,1,-31,1,5,0,-152,-20,243,44,91,253,6,6,0,109,106,108,114,1,21641
239.894165992,5,0,-31,5,1,-31,1,5,0,-152,-20,243,44,91,253,6,6,0,105,115,109,109,1,21642
239.91089487,4,0,-31,4,1,-31,1,2,-1,-152,-20,243,44,91,253,6,6,0,105,115,109,109,1,21643
239.9250741,5,0,-31,5,1,-31,0,-2,-1,-15,79,244,-13,81,238,6,6,0,107,111,108,111,1,21644
239.936018943,3,-2,-31,6,0,-31,0,-5,-1,-128,-133,84,-89,45,229,6,6,0,107,111,108,111,1,21645
239.947163105,3,-2,-31,6,0,-31,0,-5,-1,-128,-133,84,-89,45,229,6,6,0,108,110,111,109,1,21646
239.957956075,3,-1,-31,5,0,-31,0,-3,0,-128,-133,84,-89,45,229,6,6,0,108,110,111,109,1,21647
239.978096008,3,-1,-31,5,-1,-31,0,-3,0,40,-12,91,-116,1,255,6,6,0,112,107,113,106,1,21648
239.989063978,1,-1,-31,4,-2,-31,0,0,0,-31,-84,244,-71,-44,50,6,6,0,116,101,108,113,1,21649
240.000159025,1,-1,-31,4,-2,-31,0,0,0,-31,-84,244,-71,-44,50,6,6,0,116,101,108,113,1,21650
240.011991024,1,-1,-31,4,-2,-31,0,2,-1,-31,-84,244,-71,-44,50,6,6,0,105,117,113,103,1,21651
240.031934022,3,0,-31,3,-2,-31,0,2,-1,93,123,83,-8,-67,81,6,6,0,110,112,111,105,1,21652
240.042038917,3,0,-31,2,-2,-31,-2,2,0,-6,66,229,28,-35,61,6,6,0,110,112,111,105,1,21653
240.053175926,3,0,-31,2,-2,-31,-2,2,0,-6,66,229,28,-35,61,6,6,0,108,111,104,115,1,21654
240.063992977,3,0,-31,2,-1,-31,-2,1,0,-6,66,229,28,-35,61,6,6,0,108,111,104,115,1,21655
240.084063053,3,0,-31,3,-1,-31,-2,1,0,65,-1,74,40,39,23,6,6,0,105,113,111,109,1,21656
240.094959974,1,0,-31,4,0,-31,1,0,1,-57,-146,235,37,81,10,6,6,0,105,113,111,109,1,21657
240.106479883,1,0,-31,4,0,-31,1,0,1,-57,-146,235,37,81,10,6,6,0,110,111,109,108,1,21658
240.117003917,1,0,-31,3,0,-31,4,0,0,-57,-146,235,37,81,10,6,6,0,110,111,109,108,1,21659
240.141350984,0,0,-31,3,0,-31,2,0,0,12,-60,47,21,26,22,6,6,0,113,105,110,110,1,21660
240.148963928,0,-3,-31,2,0,-31,-2,0,0,-155,39,131,-8,-78,25,6,6,0,113,105,110,110,1,21661
240.16003704,0,-3,-31,2,0,-31,-2,0,0,-155,39,131,-8,-78,25,6,6,0,113,104,110,111,1,21662
240.171055078,0,-3,-31,2,0,-31,-5,0,-1,-155,39,131,-8,-78,25,6,6,0,113,104,110,111,1,21663
240.191055059,0,-2,-31,0,-1,-31,-5,0,-1,79,-38,49,-43,-111,254,6,6,0,108,111,105,115,1,21664
240.202029943,-1,-3,-31,0,-2,-31,-4,-1,-1,-39,-57,144,-58,-42,218,6,6,0,107,111,102,117,1,21665
240.214653015,-1,-3,-31,0,-2,-31,-4,-1,-1,-39,-57,144,-58,-42,218,6,6,0,107,111,102,117,1,21666
240.224292039,0,-3,-31,0,-1,-31,0,-3,-1,-39,-57,144,-58,-42,218,6,6,0,105,116,113,104,1,21667
240.246851921,-1,-1,-31,0,-2,-31,0,-3,-1,132,-65,11,-30,15,203,6,6,0,107,114,109,108,1,21668
240.255126953,-1,0,-31,0,-1,-31,2,-4,0,48,10,52,30,-13,216,6,6,0,107,114,109,108,1,21669
240.265954971,-1,0,-31,0,-1,-31,2,-4,0,48,10,52,30,-13,216,6,6,0,111,110,113,104,1,21670
240.276899099,-1,0,-31,0,-1,-31,3,-3,1,48,10,52,30,-13,216,6,6,0,111,110,113,104,1,21671
240.297317981,0,0,-31,0,0,-31,3,-3,1,91,100,252,80,-60,245,6,6,0,110,110,110,107,1,21672
240.311157941,-1,0,-31,-1,0,-31,3,1,2,3,-106,183,91,-33,16,6,6,0,110,110,110,107,1,21673
240.319340944,-1,0,-31,-1,0,-31,3,1,2,3,-106,183,91,-33,16,6,6,0,103,116,110,109,1,21674
240.330209016,-1,0,-31,-1,0,-31,2,4,1,3,-106,183,91,-33,16,6,6,0,103,116,110,109,1,21675
240.351193904,-3,0,-31,0,1,-31,0,3,0,-62,-60,174,63,26,12,6,6,0,111,105,102,119,1,21676
240.36208105,-2,-1,-31,0,1,-31,0,0,-2,-32,40,237,13,17,220,6,6,0,111,105,102,119,1,21677
240.37294507,-2,-1,-31,0,1,-31,0,0,-2,-32,40,237,13,17,220,6,6,0,112,106,119,101,1,21678
240.384245872,-2,-1,-31,0,1,-31,-2,-2,-3,-32,40,237,13,17,220,6,6,0,112,106,119,101,1,21679
240.404057979,-2,-4,-31,-1,0,-31,-2,-2,-3,-240,-26,249,-43,-44,177,6,6,0,106,110,105,117,1,21680
240.415169,0,-3,-31,-2,-1,-31,-2,-1,-2,22,68,195,-94,-53,191,6,6,0,110,108,104,116,1,21681
240.42596507,0,-3,-31,-2,-1,-31,-2,-1,-2,22,68,195,-94,-53,191,6,6,0,110,108,110,110,1,21682
240.437184095,0,-3,-31,-2,0,-31,0,0,-1,22,68,195,-94,-53,191,6,6,0,113,108,109,108,1,21683
240.459871053,-1,-6,-31,-1,-2,-31,0,0,-1,-79,-10,81,-120,7,230,6,6,0,112,109,105,112,1,21684
240.470746994,-3,-4,-31,-1,-4,-31,0,-1,0,71,-141,186,-96,46,217,6,6,0,112,109,105,112,1,21685
240.479170084,-3,-4,-31,-1,-4,-31,0,-1,0,71,-141,186,-96,46,217,6,6,0,107,111,101,118,1,21686
240.495723962,-3,-4,-31,0,-4,-31,0,-4,0,71,-141,186,-96,46,217,6,6,0,107,111,101,118,1,21687
240.510078907,-3,-2,-31,0,-4,-31,0,-4,0,101,-42,225,-23,4,154,6,6,0,104,115,113,106,1,21688
240.520901918,-6,-1,-31,-2,-3,-31,0,-5,1,82,-210,203,53,-80,129,6,6,0,104,115,113,106,1,21689
240.532042026,-6,-1,-31,-2,-3,-31,0,-5,1,82,-210,203,53,-80,129,6,6,0,109,109,116,104,1,21690
240.542957067,-6,-1,-31,-2,-2,-31,2,-2,0,82,-210,203,53,-80,129,6,6,0,109,109,116,104,1,21691
240.564393997,-4,-1,-31,-4,0,-31,2,3,-1,-52,115,46,93,-131,184,6,6,0,111,107,113,107,1,21692
240.575138092,-4,-3,-31,-5,0,-31,0,8,-1,-129,-61,7,70,-105,0,6,6,0,111,107,113,107,1,21693
240.585999965,-4,-3,-31,-5,0,-31,0,8,-1,-129,-61,7,70,-105,0,6,6,0,114,105,112,107,1,21694
240.597049951,-4,-3,-31,-5,0,-31,-2,8,-1,-129,-61,7,70,-105,0,6,6,0,114,105,112,107,1,21695
240.617130994,-6,-4,-31,-6,0,-31,-2,8,-1,-60,-91,240,-13,-33,26,6,6,0,108,110,107,113,1,21696
240.628087997,-7,-3,-31,-5,-1,-31,-3,3,0,-13,-182,96,-99,0,18,6,6,0,111,109,107,111,1,21697
240.639121055,-7,-3,-31,-5,-1,-31,-3,3,0,-13,-182,96,-99,0,18,6,6,0,111,109,107,111,1,21698
240.650038957,-7,-3,-31,-5,-1,-31,-2,0,0,-13,-182,96,-99,0,18,6,6,0,111,111,103,114,1,21699
240.670968055,-7,-4,-31,-5,-2,-31,0,-3,0,-64,-64,29,-111,-58,15,6,6,0,105,115,107,111,1,21700
240.682013988,-6,-3,-31,-6,-3,-31,0,-4,1,26,24,232,-52,-138,33,6,6,0,105,115,107,111,1,21701
240.692964077,-6,-3,-31,-6,-3,-31,0,-4,1,26,24,232,-52,-138,33,6,6,0,111,109,110,108,1,21702
240.703953981,-5,-3,-31,-6,-3,-31,1,-3,2,26,24,232,-52,-138,33,6,6,0,111,109,110,108,1,21703
240.724186897,-11,-4,-31,-8,-3,-31,1,-3,2,-28,-112,12,-1,-130,36,6,6,0,112,106,117,104,1,21704
240.740051984,-10,-5,-31,-8,-2,-31,1,-1,1,-62,-24,194,0,-46,228,6,6,0,112,106,117,104,1,21705
240.745972871,-10,-5,-31,-8,-2,-31,1,-1,1,-62,-24,194,0,-46,228,6,6,0,102,115,106,115,1,21706
240.759841918,-10,-4,-31,-7,-2,-31,0,2,0,-62,-24,194,0,-46,228,6,6,0,102,115,106,115,1,21707
240.777139902,-8,-4,-31,-7,-3,-31,0,3,-2,-13,20,140,-24,-1,124,6,6,0,112,107,108,111,1,21708
240.789000988,-7,-4,-31,-7,-4,-31,0,1,-2,-13,40,184,-40,-20,83,6,6,0,112,107,108,111,1,21709
240.798896074,-7,-4,-31,-7,-4,-31,0,1,-2,-13,40,184,-40,-20,83,6,6,0,113,105,108,112,1,21710
240.810198068,-6,-4,-31,-7,-4,-31,-1,-1,-1,-13,40,184,-40,-20,83,6,6,0,113,105,108,112,1,21711
240.831974029,-7,-6,-31,-7,-5,-31,-1,-1,-1,-91,-44,151,-38,-24,135,6,6,0,109,111,108,110,1,21712
240.842022895,-5,-6,-31,-7,-5,-31,-2,-2,0,-26,110,238,-32,13,195,6,6,0,113,106,118,102,1,21713
240.852958917,-5,-6,-31,-7,-5,-31,-2,-2,0,-26,110,238,-32,13,195,6,6,0,113,106,118,102,1,21714
240.864017009,-5,-6,-31,-6,-5,-31,-2,0,0,-26,110,238,-32,13,195,6,6,0,100,119,105,113,1,21715
240.884001016,-6,-5,-31,-5,-6,-31,-2,0,0,46,-79,235,-37,38,204,6,6,0,105,114,109,110,1,21716
240.895941972,-5,-4,-31,-4,-6,-31,0,1,0,45,55,245,-33,25,200,6,6,0,105,114,109,110,1,21717
240.905998945,-5,-4,-31,-4,-6,-31,0,1,0,45,55,245,-33,25,200,6,6,0,113,106,109,110,1,21718
240.916943073,-4,-3,-31,-4,-5,-31,1,2,0,45,55,245,-33,25,200,6,6,0,113,106,109,110,1,21719
240.937249898,-4,-2,-31,-4,-5,-31,1,2,0,129,-6,253,8,3,225,6,6,0,114,105,103,116,1,21720
240.947958946,-5,-1,-31,-4,-4,-31,2,0,0,67,-113,70,71,-6,3,6,6,0,114,105,103,116,1,21721
240.95896697,-5,-1,-31,-4,-4,-31,2,0,0,67,-113,70,71,-6,3,6,6,0,104,114,110,110,1,21722
240.97005701,-5,-1,-31,-4,-4,-31,0,-4,0,67,-113,70,71,-6,3,6,6,0,104,114,110,110,1,21723
240.990012884,-3,0,-31,-4,-2,-31,0,-4,0,127,130,38,109,-11,21,6,6,0,116,103,116,103,1,21724
241.001157999,-5,0,-31,-4,0,-31,-2,-3,0,-53,-108,41,105,-17,35,6,6,0,116,103,116,103,1,21725
241.011912107,-5,0,-31,-4,0,-31,-2,-3,0,-53,-108,41,105,-17,35,6,6,0,108,111,106,113,1,21726
241.023008108,-4,0,-31,-3,0,-31,-2,0,0,-53,-108,41,105,-17,35,6,6,0,108,111,106,113,1,21727
241.042962074,-4,-2,-31,-3,0,-31,-1,3,0,-114,-10,205,65,-14,46,6,6,0,102,117,108,111,1,21728
241.054050922,-6,-1,-31,-3,0,-31,0,2,0,54,-146,182,-2,-15,30,6,6,0,102,117,108,111,1,21729
241.065171957,-6,-1,-31,-3,0,-31,0,2,0,54,-146,182,-2,-15,30,6,6,0,113,106,109,109,1,21730
241.0759449,-6,-1,-31,-3,0,-31,2,0,0,54,-146,182,-2,-15,30,6,6,0,113,106,109,109,1,21731
241.095891952,-4,0,-31,-4,0,-31,2,0,0,113,110,199,-56,-42,235,6,6,0,102,117,106,113,1,21732
241.107050895,-3,0,-31,-5,-1,-31,3,-1,0,-47,40,229,-30,-60,185,6,6,0,116,103,118,101,1,21733
241.118272066,-3,0,-31,-5,-1,-31,3,-1,0,-47,40,229,-30,-60,185,6,6,0,116,103,118,101,1,21734
241.129218101,-3,0,-31,-4,-1,-31,2,0,0,-47,40,229,-30,-60,185,6,6,0,110,108,106,113,1,21735
241.149190902,-4,0,-31,-5,0,-31,2,0,0,-67,-56,47,44,-15,182,6,6,0,111,108,109,110,1,21736
241.159980058,-5,-3,-31,-3,0,-31,0,1,0,-100,-59,83,49,42,222,6,6,0,111,108,109,110,1,21737
241.17208004,-5,-3,-31,-3,0,-31,0,1,0,-100,-59,83,49,42,222,6,6,0,104,116,108,110,1,21738
241.182354927,-5,-3,-31,-3,0,-31,-1,2,0,-100,-59,83,49,42,222,6,6,0,104,116,108,110,1,21739
241.202032089,-6,-4,-31,-3,0,-31,-1,2,0,-45,-46,138,-43,22,242,6,6,0,116,103,103,115,1,21740
241.213407993,-5,-7,-31,-3,-2,-31,0,0,0,-129,11,168,-121,-53,193,6,6,0,116,103,103,115,1,21741
241.224240064,-5,-7,-31,-3,-2,-31,0,0,0,-129,11,168,-121,-53,193,6,6,0,100,118,109,111,1,21742
241.239924907,-5,-6,-31,-3,-2,-31,1,-3,0,-129,11,168,-121,-53,193,6,6,0,100,118,109,111,1,21743
241.256061077,-5,-3,-31,-5,-4,-31,1,-3,0,175,-63,240,-104,-80,125,6,6,0,112,107,115,105,1,21744
241.267148017,-7,-3,-31,-6,-4,-31,0,0,-1,13,-143,13,-27,-42,133,6,6,0,112,107,115,105,1,21745
241.278384923,-7,-3,-31,-6,-4,-31,0,0,-1,13,-143,13,-27,-42,133,6,6,0,114,105,114,105,1,21746
241.28895092,-6,-3,-31,-5,-4,-31,-1,4,0,13,-143,13,-27,-42,133,6,6,0,114,105,114,105,1,21747
241.309006929,-6,-2,-31,-6,-3,-31,-1,4,0,37,27,17,50,-25,216,6,6,0,107,112,113,105,1,21748
241.323348045,-4,-4,-31,-6,-2,-31,-2,5,0,-119,58,200,77,-56,30,6,6,0,107,112,113,105,1,21749
241.330972909,-4,-4,-31,-6,-2,-31,-2,5,0,-119,58,200,77,-56,30,6,6,0,108,112,108,110,1,21750
241.34217,-4,-4,-31,-5,-2,-31,0,4,1,-119,58,200,77,-56,30,6,6,0,108,112,108,110,1,21751
241.362241983,-3,-4,-31,-6,-1,-31,0,4,1,-9,61,80,28,-52,29,6,6,0,100,121,105,113,1,21752
241.373028993,-2,-3,-31,-5,-2,-31,2,1,1,15,46,19,-50,25,252,6,6,0,100,121,105,113,1,21753
241.384104967,-2,-3,-31,-5,-2,-31,2,1,1,15,46,19,-50,25,252,6,6,0,111,109,106,112,1,21754
241.395298004,-2,-3,-31,-5,-2,-31,6,-1,1,15,46,19,-50,25,252,6,6,0,111,109,106,112,1,21755
241.415100097,-2,-2,-31,-3,-3,-31,6,-1,1,55,22,217,-69,91,254,6,6,0,111,105,110,112,1,21756
241.426156997,-3,-3,-31,-2,-3,-31,5,-3,0,-77,-61,231,-9,73,21,6,6,0,111,105,110,112,1,21757
241.437077999,-3,-3,-31,-2,-3,-31,5,-3,0,-77,-61,231,-9,73,21,6,6,0,110,107,116,106,1,21758
241.450701952,-2,-3,-31,-2,-2,-31,1,-2,-1,-77,-61,231,-9,73,21,6,6,0,110,107,116,106,1,21759
241.468910932,-2,-1,-31,-2,-2,-31,-4,0,-3,114,14,217,43,6,10,6,6,0,107,110,117,104,1,21760
241.479988098,-1,0,-31,-2,-1,-31,-6,2,-2,27,50,53,36,-33,225,6,6,0,107,110,117,104,1,21761
241.491240978,-1,0,-31,-2,-1,-31,-6,2,-2,27,50,53,36,-33,225,6,6,0,112,106,97,122,1,21762
241.501988887,-1,0,-31,-2,-1,-31,-3,1,0,27,50,53,36,-33,225,6,6,0,112,106,97,122,1,21763
241.524615049,-1,0,-31,-2,0,-31,-3,1,0,99,24,12,20,-16,218,6,6,0,104,117,115,103,1,21764
241.53293991,-2,1,-31,-2,0,-31,0,0,0,37,-97,232,47,25,3,6,6,0,109,112,111,106,1,21765
241.54432106,-2,1,-31,-2,0,-31,0,0,0,37,-97,232,47,25,3,6,6,0,109,112,111,106,1,21766
241.554913044,-2,1,-31,-2,0,-31,3,-1,0,37,-97,232,47,25,3,6,6,0,111,110,112,105,1,21767
241.575140953,0,2,-31,-1,1,-31,3,-1,0,61,93,217,81,31,32,6,6,0,110,111,112,106,1,21768
241.58595395,1,2,-31,-1,2,-31,3,1,1,6,117,190,75,1,5,6,6,0,110,111,112,106,1,21769
241.599972963,1,2,-31,-1,2,-31,3,1,1,6,117,190,75,1,5,6,6,0,112,109,115,102,1,21770
241.60811305,1,2,-31,-1,2,-31,1,5,2,6,117,190,75,1,5,6,6,0,112,109,115,102,1,21771
241.628123045,1,4,-31,-1,2,-31,1,5,2,57,12,105,42,7,206,6,6,0,105,112,109,112,1,21772
241.639106035,0,6,-31,0,3,-31,0,6,1,115,-95,77,25,60,161,6,6,0,105,112,109,112,1,21773
241.649940013,0,6,-31,0,3,-31,0,6,1,115,-95,77,25,60,161,6,6,0,104,113,102,118,1,21774
241.660963058,0,6,-31,0,2,-31,0,2,0,115,-95,77,25,60,161,6,6,0,104,113,102,118,1,21775
241.682167053,0,7,-31,2,3,-31,2,-3,-2,82,3,179,46,65,128,6,6,0,112,106,103,116,1,21776
241.693367004,1,8,-31,1,6,-31,1,-8,-2,142,139,24,89,-7,112,6,6,0,112,106,103,116,1,21777
241.704669952,1,8,-31,1,6,-31,1,-8,-2,142,139,24,89,-7,112,6,6,0,112,107,113,106,1,21778
241.714958906,1,8,-31,1,5,-31,-1,-7,0,142,139,24,89,-7,112,6,6,0,112,107,113,106,1,21779
241.735110998,1,7,-31,0,8,-31,-1,-7,0,-78,40,49,113,-40,150,6,6,0,111,106,109,112,1,21780
241.745929956,0,5,-31,1,9,-31,-3,-3,0,-96,-45,8,83,28,242,6,6,0,112,106,106,114,1,21781
241.757278919,0,5,-31,1,9,-31,-3,-3,0,-96,-45,8,83,28,242,6,6,0,112,106,106,114,1,21782
241.769366025,0,4,-31,0,8,-31,-3,0,0,-96,-45,8,83,28,242,6,6,0,108,112,117,101,1,21783
241.789232015,0,6,-31,2,8,-31,-3,0,0,87,-72,204,1,87,56,6,6,0,110,110,112,106,1,21784
241.799022913,0,7,-31,2,7,-31,-2,0,0,94,45,34,-58,30,43,6,6,0,110,110,112,106,1,21785
241.809958934,0,7,-31,2,7,-31,-2,0,0,94,45,34,-58,30,43,6,6,0,109,112,104,113,1,21786
241.821108102,0,6,-31,2,6,-31,0,0,0,94,45,34,-58,30,43,6,6,0,109,112,104,113,1,21787
241.841003894,0,8,-31,1,6,-31,0,0,0,199,68,42,-13,-57,244,6,6,0,104,116,107,111,1,21788
241.852355003,4,8,-31,0,7,-31,1,0,1,7,157,146,106,-37,229,6,6,0,104,116,107,111,1,21789
241.863001108,4,8,-31,0,7,-31,1,0,1,7,157,146,106,-37,229,6,6,0,109,112,115,102,1,21790
241.876260995,3,7,-31,0,7,-31,4,0,2,7,157,146,106,-37,229,6,6,0,109,112,115,102,1,21791
241.894946098,1,7,-31,1,8,-31,3,0,0,-23,-167,35,166,66,254,6,6,0,115,106,109,108,1,21792
241.908039093,1,7,-31,2,9,-31,0,1,0,30,-18,15,98,103,2,6,6,0,115,106,109,108,1,21793
241.916964054,1,7,-31,2,9,-31,0,1,0,30,-18,15,98,103,2,6,6,0,107,113,113,105,1,21794
241.928646087,1,6,-31,2,9,-31,-3,2,0,30,-18,15,98,103,2,6,6,0,107,113,113,105,1,21795
241.948029995,0,4,-31,2,8,-31,-3,2,0,-111,-100,222,-15,7,238,6,6,0,109,109,105,115,1,21796
241.958946943,2,4,-31,0,7,-31,-2,2,0,-2,140,160,-65,-102,238,6,6,0,111,106,105,115,1,21797
241.970031023,2,4,-31,0,7,-31,-2,2,0,-2,140,160,-65,-102,238,6,6,0,111,106,107,113,1,21798
241.980983018,2,4,-31,0,6,-31,1,0,0,-2,140,160,-65,-102,238,6,6,0,106,114,106,112,1,21799
242.000982046,0,7,-31,0,5,-31,1,0,0,106,-77,96,-43,-87,234,6,6,0,108,112,111,107,1,21800
242.012396097,0,6,-31,0,5,-31,1,-2,-1,-5,0,21,-1,13,188,6,6,0,108,112,111,107,1,21801
242.027941942,0,6,-31,0,5,-31,1,-2,-1,-5,0,21,-1,13,188,6,6,0,111,106,109,111,1,21802
242.036030054,0,6,-31,0,5,-31,0,-2,-1,-5,0,21,-1,13,188,6,6,0,111,106,109,111,1,21803
242.055860996,-1,6,-31,1,6,-31,0,-2,-1,16,-87,7,37,53,146,6,6,0,107,110,114,106,1,21804
242.065052032,-3,4,-31,0,6,-31,0,0,0,-60,-124,128,47,-14,176,6,6,0,107,110,114,106,1,21805
242.076020002,-3,4,-31,0,6,-31,0,0,0,-60,-124,128,47,-14,176,6,6,0,110,110,107,111,1,21806
242.087893009,-3,4,-31,0,6,-31,0,2,0,-60,-124,128,47,-14,176,6,6,0,110,110,107,111,1,21807
242.109200954,-2,3,-31,0,5,-31,0,1,0,5,31,245,12,-95,240,6,6,0,108,110,106,113,1,21808
242.11798501,-2,5,-31,-2,5,-31,0,0,0,145,4,232,-27,-100,244,6,6,0,108,110,106,113,1,21809
242.129081964,-2,5,-31,-2,5,-31,0,0,0,145,4,232,-27,-100,244,6,6,0,106,113,111,109,1,21810
242.140178918,-2,5,-31,-2,4,-31,0,-2,0,145,4,232,-27,-100,244,6,6,0,106,113,111,109,1,21811
242.160026073,-4,5,-31,-2,4,-31,0,-2,0,16,-147,217,-8,-40,204,6,6,0,110,109,108,110,1,21812
242.171109914,-5,3,-31,-2,5,-31,1,-2,0,-120,-81,214,54,-4,198,6,6,0,110,109,108,110,1,21813
242.183229923,-5,3,-31,-2,5,-31,1,-2,0,-120,-81,214,54,-4,198,6,6,0,114,106,113,105,1,21814
242.193099975,-5,3,-31,-2,5,-31,1,0,0,-120,-81,214,54,-4,198,6,6,0,114,106,113,105,1,21815
242.213331937,-4,2,-31,-3,6,-31,1,0,0,-40,14,139,61,-44,223,6,6,0,107,111,108,112,1,21816
242.22411108,-2,0,-31,-4,5,-31,0,1,0,-82,166,223,-25,-89,220,6,6,0,107,111,108,112,1,21817
242.23497796,-2,0,-31,-4,5,-31,0,1,0,-82,166,223,-25,-89,220,6,6,0,110,108,108,112,1,21818
242.24804306,-2,0,-31,-4,4,-31,-1,0,0,-82,166,223,-25,-89,220,6,6,0,110,108,108,112,1,21819
242.266036987,-1,1,-31,-5,2,-31,-1,0,0,77,29,236,-105,-32,187,6,6,0,109,111,105,112,1,21820
242.277178049,-1,1,-31,-2,1,-31,-1,-1,0,-28,18,251,-79,86,181,6,6,0,109,111,105,112,1,21821
242.288345098,-1,1,-31,-2,1,-31,-1,-1,0,-28,18,251,-79,86,181,6,6,0,109,111,114,104,1,21822
242.301636934,-1,1,-31,-2,1,-31,0,-2,0,-28,18,251,-79,86,181,6,6,0,109,111,114,104,1,21823
242.319339036,1,2,-31,0,1,-31,0,-2,0,67,152,230,10,130,221,6,6,0,109,109,113,107,1,21824
242.335756063,0,0,-31,0,1,-31,1,0,0,-86,-64,208,55,74,2,6,6,0,109,109,113,107,1,21825
242.34109807,0,0,-31,0,1,-31,1,0,0,-86,-64,208,55,74,2,6,6,0,108,112,103,114,1,21826
242.352094888,0,0,-31,0,1,-31,1,2,0,-86,-64,208,55,74,2,6,6,0,108,112,103,114,1,21827
242.373281955,0,0,-31,0,2,-31,0,1,0,-40,57,242,22,21,250,6,6,0,110,110,112,106,1,21828
242.383996009,0,-1,-31,0,1,-31,-1,0,0,-81,-17,236,-39,18,221,6,6,0,110,110,112,106,1,21829
242.395184993,0,-1,-31,0,1,-31,-1,0,0,-81,-17,236,-39,18,221,6,6,0,115,103,111,109,1,21830
242.406085014,0,-1,-31,0,1,-31,-2,-1,0,-81,-17,236,-39,18,221,6,6,0,115,103,111,109,1,21831
242.426655054,1,-1,-31,1,0,-31,-2,-1,0,-30,89,86,-74,23,218,6,6,0,109,111,109,109,1,21832
242.437082052,0,-3,-31,1,-1,-31,-2,1,0,-245,-103,110,-77,18,2,6,6,0,107,111,110,110,1,21833
242.448478937,0,-3,-31,1,-1,-31,-2,1,0,-245,-103,110,-77,18,2,6,6,0,107,111,110,110,1,21834
242.458894968,0,-3,-31,1,-1,-31,-1,2,0,-245,-103,110,-77,18,2,6,6,0,108,112,110,108,1,21835
242.478959083,1,-4,-31,1,-2,-31,-1,2,0,-79,66,25,-86,11,60,6,6,0,109,112,110,108,1,21836
242.490043878,1,-4,-31,1,-3,-31,0,1,0,-20,34,59,-122,3,94,6,6,0,109,112,110,108,1,21837
242.50118494,1,-4,-31,1,-3,-31,0,1,0,-20,34,59,-122,3,94,6,6,0,108,112,111,107,1,21838
242.511945962,1,-4,-31,1,-3,-31,2,0,0,-20,34,59,-122,3,94,6,6,0,108,112,111,107,1,21839
242.532142877,0,-3,-31,1,-4,-31,2,0,0,17,-71,191,-131,0,76,6,6,0,107,112,102,117,1,21840
242.542974948,0,-3,-31,1,-5,-31,3,0,1,32,45,59,-64,8,24,6,6,0,107,112,102,117,1,21841
242.554146051,0,-3,-31,1,-5,-31,3,0,1,32,45,59,-64,8,24,6,6,0,110,109,105,113,1,21842
242.565196991,0,-3,-31,1,-5,-31,2,-1,1,32,45,59,-64,8,24,6,6,0,110,109,105,113,1,21843
242.586072921,1,-2,-31,1,-4,-31,0,-3,0,19,39,191,27,8,240,6,6,0,114,103,113,107,1,21844
242.597107887,2,-3,-31,1,-2,-31,-2,-2,0,-59,37,214,57,5,235,6,6,0,114,103,113,107,1,21845
242.607914924,2,-3,-31,1,-2,-31,-2,-2,0,-59,37,214,57,5,235,6,6,0,108,111,111,107,1,21846
242.619078874,1,-3,-31,1,-2,-31,-3,1,-1,-59,37,214,57,5,235,6,6,0,108,111,111,107,1,21847
242.640032053,1,-7,-31,1,-2,-31,-2,3,0,-199,-21,57,10,21,231,6,6,0,106,114,113,106,1,21848
242.651098012,3,-7,-31,2,-3,-31,0,3,0,1,171,31,-67,41,194,6,6,0,112,106,111,108,1,21849
242.662085056,3,-7,-31,2,-3,-31,0,3,0,1,171,31,-67,41,194,6,6,0,112,106,111,108,1,21850
242.673105955,3,-6,-31,2,-3,-31,1,2,0,1,171,31,-67,41,194,6,6,0,105,115,109,109,1,21851
242.693095922,1,-6,-31,2,-5,-31,1,2,0,-27,-45,153,-118,48,150,6,6,0,111,109,106,113,1,21852
242.704102993,1,-5,-31,3,-7,-31,1,1,0,54,6,185,-94,49,156,6,6,0,111,109,106,113,1,21853
242.715359926,1,-5,-31,3,-7,-31,1,1,0,54,6,185,-94,49,156,6,6,0,108,111,110,109,1,21854
242.726016044,1,-5,-31,3,-6,-31,1,0,0,54,6,185,-94,49,156,6,6,0,108,111,110,109,1,21855
242.746241092,0,-4,-31,4,-6,-31,1,0,0,26,-123,237,-11,34,198,6,6,0,111,111,106,111,1,21856
242.756979942,0,-2,-31,3,-5,-31,1,-2,0,107,21,232,56,-15,219,6,6,0,111,111,106,111,1,21857
242.768217086,0,-2,-31,3,-5,-31,1,-2,0,107,21,232,56,-15,219,6,6,0,110,110,113,105,1,21858
242.779030084,0,-2,-31,3,-5,-31,1,-1,1,107,21,232,56,-15,219,6,6,0,110,110,113,105,1,21859
242.800683975,-1,-1,-31,1,-3,-31,0,0,1,29,-111,210,70,-68,215,6,6,0,116,101,112,109,1,21860
242.811132907,0,0,-31,0,-2,-31,-1,0,0,91,96,208,61,-72,217,6,6,0,116,101,112,109,1,21861
242.821944952,0,0,-31,0,-2,-31,-1,0,0,91,96,208,61,-72,217,6,6,0,100,117,106,114,1,21862
242.833291053,0,0,-31,0,-2,-31,-1,0,-2,91,96,208,61,-72,217,6,6,0,100,117,106,114,1,21863
242.856057882,-1,-1,-31,0,-1,-31,-1,0,-2,-61,-87,238,57,-31,224,6,6,0,106,113,114,105,1,21864
242.86421895,-2,0,-31,0,0,-31,0,0,-2,64,-38,189,46,2,221,6,6,0,119,99,102,118,1,21865
242.875292062,-2,0,-31,0,0,-31,0,0,-2,64,-38,189,46,2,221,6,6,0,119,99,102,118,1,21866
242.886322021,-2,0,-31,0,0,-31,2,0,-1,64,-38,189,46,2,221,6,6,0,106,114,112,106,1,21867
242.905896902,-3,-1,-31,0,0,-31,2,0,-1,-92,-46,152,15,-7,210,6,6,0,110,111,109,108,1,21868
242.917813062,-1,-1,-31,0,0,-31,0,-1,0,47,79,33,-15,-41,200,6,6,0,110,111,109,108,1,21869
242.928066968,-1,-1,-31,0,0,-31,0,-1,0,47,79,33,-15,-41,200,6,6,0,111,107,114,105,1,21870
242.938956022,-1,0,-31,0,0,-31,-2,0,0,47,79,33,-15,-41,200,6,6,0,111,107,114,105,1,21871
242.959110975,-1,-2,-31,-1,0,-31,-2,0,0,-111,15,2,-27,-41,199,6,6,0,103,116,109,109,1,21872
242.969985961,0,-2,-31,-1,-1,-31,-1,1,0,-40,82,17,-30,13,225,6,6,0,103,116,109,109,1,21873
242.981097936,0,-2,-31,-1,-1,-31,-1,1,0,-40,82,17,-30,13,225,6,6,0,108,113,113,104,1,21874
242.992256879,0,-2,-31,-1,-1,-31,2,3,0,-40,82,17,-30,13,225,6,6,0,108,113,113,104,1,21875
243.013174057,1,0,-31,0,-1,-31,4,2,0,119,79,164,-37,68,10,6,6,0,115,104,101,118,1,21876
243.024236917,2,1,-31,1,-1,-31,2,-1,0,161,108,223,-23,83,13,6,6,0,115,104,101,118,1,21877
243.035908937,2,1,-31,1,-1,-31,2,-1,0,161,108,223,-23,83,13,6,6,0,107,114,107,110,1,21878
243.046007871,2,1,-31,1,-1,-31,-2,-5,0,161,108,223,-23,83,13,6,6,0,107,114,107,110,1,21879
243.0659101,1,2,-31,2,0,-31,-2,-5,0,82,-92,114,49,74,229,6,6,0,118,99,106,115,1,21880
243.077022075,0,2,-31,2,1,-31,-3,-6,0,-10,-81,181,135,49,213,6,6,0,104,113,115,106,1,21881
243.088588953,0,2,-31,2,1,-31,-3,-6,0,-10,-81,181,135,49,213,6,6,0,104,113,115,106,1,21882
243.098965883,0,2,-31,2,1,-31,-2,-3,0,-10,-81,181,135,49,213,6,6,0,105,112,120,100,1,21883
243.119052887,1,2,-31,2,3,-31,-2,-3,0,28,85,247,133,-5,254,6,6,0,107,111,117,104,1,21884
243.130677938,2,3,-31,1,3,-31,0,1,-1,63,135,73,45,-49,30,6,6,0,107,111,117,104,1,21885
243.14101696,2,3,-31,1,3,-31,0,1,-1,63,135,73,45,-49,30,6,6,0,117,99,104,118,1,21886
243.15201807,2,2,-31,1,3,-31,0,4,-2,63,135,73,45,-49,30,6,6,0,117,99,104,118,1,21887
243.172203064,2,3,-31,1,3,-31,0,4,-2,79,35,59,-12,-5,15,6,6,0,106,116,109,107,1,21888
243.183018922,2,4,-31,2,3,-31,0,3,-2,24,-11,188,21,91,9,6,6,0,106,116,109,107,1,21889
243.19455409,2,4,-31,2,3,-31,0,3,-2,24,-11,188,21,91,9,6,6,0,111,111,106,111,1,21890
243.205033063,2,3,-31,2,2,-31,0,0,1,24,-11,188,21,91,9,6,6,0,111,111,106,111,1,21891
243.226037979,1,0,-31,3,3,-31,0,-3,3,-160,-21,131,71,110,24,6,6,0,117,100,107,114,1,21892
243.237229108,2,-3,-31,3,4,-31,2,-3,2,-233,69,166,30,27,248,6,6,0,117,100,107,114,1,21893
243.248040914,2,-3,-31,3,4,-31,2,-3,2,-233,69,166,30,27,248,6,6,0,108,115,117,99,1,21894
243.259181976,2,-3,-31,3,3,-31,0,-1,0,-233,69,166,30,27,248,6,6,0,108,115,117,99,1,21895
243.283574104,3,-4,-31,2,1,-31,-3,1,-1,-101,113,242,-103,-34,168,6,6,0,110,110,107,112,1,21896
243.291321992,3,-3,-31,2,-2,-31,-5,2,0,31,21,63,-206,10,136,6,6,0,112,105,110,111,1,21897
243.301924943,3,-3,-31,2,-2,-31,-5,2,0,31,21,63,-206,10,136,6,6,0,112,105,110,111,1,21898
243.312988996,3,-3,-31,2,-2,-31,-3,1,0,31,21,63,-206,10,136,6,6,0,107,110,105,116,1,21899
243.332973957,3,0,-31,3,-4,-31,0,-1,-1,151,-7,126,-163,89,201,6,6,0,108,112,113,105,1,21900
243.347920894,1,0,-31,4,-4,-31,0,-2,-1,32,-71,254,0,84,17,6,6,0,108,112,113,105,1,21901
243.355436086,1,0,-31,4,-4,-31,0,-2,-1,32,-71,254,0,84,17,6,6,0,111,107,103,116,1,21902
243.366005897,1,0,-31,4,-4,-31,0,-2,0,32,-71,254,0,84,17,6,6,0,111,107,103,116,1,21903
243.386195898,2,0,-31,4,-2,-31,0,-2,0,11,32,189,129,0,3,6,6,0,112,110,113,103,1,21904
243.396964073,1,0,-31,2,0,-31,0,0,1,10,-18,24,118,-60,198,6,6,0,112,110,113,103,1,21905
243.407941103,1,0,-31,2,0,-31,0,0,1,10,-18,24,118,-60,198,6,6,0,112,111,112,103,1,21906
243.41962409,1,0,-31,2,0,-31,0,0,2,10,-18,24,118,-60,198,6,6,0,112,111,112,103,1,21907
243.440056085,2,0,-31,1,0,-31,0,3,3,-55,73,231,20,-37,190,6,6,0,108,110,113,107,1,21908
243.451122999,2,-1,-31,2,0,-31,0,5,2,-134,-37,77,-47,22,241,6,6,0,108,110,113,107,1,21909
243.463958025,2,-1,-31,2,0,-31,0,5,2,-134,-37,77,-47,22,241,6,6,0,104,116,110,109,1,21910
243.473067045,2,-1,-31,1,0,-31,2,4,0,-134,-37,77,-47,22,241,6,6,0,104,116,110,109,1,21911
243.493036985,2,-3,-31,2,-1,-31,2,4,0,-108,-4,199,-65,43,29,6,6,0,109,108,108,113,1,21912
243.504008054,0,-4,-31,2,-2,-31,3,2,-2,-74,-184,61,-85,7,30,6,6,0,108,108,109,113,1,21913
243.515744924,0,-4,-31,2,-2,-31,3,2,-2,-74,-184,61,-85,7,30,6,6,0,108,108,109,113,1,21914
243.526766061,0,-3,-31,2,-2,-31,2,0,-2,-74,-184,61,-85,7,30,6,6,0,116,100,109,112,1,21915
243.546087026,0,-3,-31,1,-3,-31,2,0,-2,35,43,86,-109,-52,13,6,6,0,113,104,109,112,1,21916
243.5569911,0,-1,-31,0,-4,-31,0,-2,-2,177,9,92,-79,-86,22,6,6,0,113,104,109,112,1,21917
243.568284034,0,-1,-31,0,-4,-31,0,-2,-2,177,9,92,-79,-86,22,6,6,0,113,104,116,105,1,21918
243.579166889,0,-1,-31,0,-4,-31,-4,-1,-2,177,9,92,-79,-86,22,6,6,0,113,104,116,105,1,21919
243.599129915,0,-1,-31,0,-3,-31,-4,-1,-2,-46,8,255,17,-57,63,6,6,0,108,111,106,113,1,21920
243.610027074,0,-4,-31,0,-2,-31,-6,0,-2,-155,-80,198,94,7,84,6,6,0,108,111,106,113,1,21921
243.621061086,0,-4,-31,0,-2,-31,-6,0,-2,-155,-80,198,94,7,84,6,6,0,108,112,105,113,1,21922
243.632073879,0,-3,-31,0,-2,-31,-4,0,0,-155,-80,198,94,7,84,6,6,0,108,112,105,113,1,21923
243.653002023,0,-6,-31,0,-1,-31,0,-2,1,-229,-16,231,44,26,39,6,6,0,104,114,113,107,1,21924
243.664055109,0,-7,-31,0,-3,-31,3,-4,2,-91,70,210,-114,-18,218,6,6,0,104,114,113,107,1,21925
243.675014019,0,-7,-31,0,-3,-31,3,-4,2,-91,70,210,-114,-18,218,6,6,0,115,107,106,110,1,21926
243.686186075,0,-7,-31,0,-3,-31,3,-2,2,-91,70,210,-114,-18,218,6,6,0,115,107,106,110,1,21927
243.707768917,0,-9,-31,0,-6,-31,3,-2,2,-64,3,145,-225,-43,182,6,6,0,102,115,116,104,1,21928
243.716975927,0,-8,-31,0,-9,-31,2,0,1,-3,16,202,-182,0,192,6,6,0,102,115,116,104,1,21929
243.728549003,0,-8,-31,0,-9,-31,2,0,1,-3,16,202,-182,0,192,6,6,0,102,115,115,105,1,21930
243.743962049,0,-7,-31,0,-8,-31,2,3,0,-3,16,202,-182,0,192,6,6,0,102,115,115,105,1,21931
243.759003877,-1,-8,-31,0,-9,-31,2,3,0,-44,-103,181,-55,44,195,6,6,0,117,100,111,109,1,21932
243.775924921,-2,-8,-31,0,-8,-31,3,4,-1,-46,-89,219,14,15,182,6,6,0,117,100,111,109,1,21933
243.781009912,-2,-8,-31,0,-8,-31,3,4,-1,-46,-89,219,14,15,182,6,6,0,110,107,108,114,1,21934
243.792335987,-2,-8,-31,0,-8,-31,1,3,-2,-46,-89,219,14,15,182,6,6,0,110,107,108,114,1,21935
243.812052965,-3,-6,-31,0,-8,-31,1,3,-2,125,-76,54,-4,-65,185,6,6,0,106,113,108,111,1,21936
243.823182106,-1,-6,-31,-2,-8,-31,-1,0,-2,0,80,155,-24,-109,220,6,6,0,106,113,108,111,1,21937
243.834131956,-1,-6,-31,-2,-8,-31,-1,0,-2,0,80,155,-24,-109,220,6,6,0,110,108,109,110,1,21938
243.844976902,-1,-5,-31,-2,-7,-31,-2,-2,0,0,80,155,-24,-109,220,6,6,0,110,108,109,110,1,21939
243.864993095,-1,-7,-31,-3,-7,-31,-2,-2,0,-73,-8,146,11,-70,249,6,6,0,112,108,108,110,1,21940
243.876041889,0,-9,-31,-3,-6,-31,0,-2,0,-104,80,133,38,13,223,6,6,0,112,108,108,110,1,21941
243.887037038,0,-9,-31,-3,-6,-31,0,-2,0,-104,80,133,38,13,223,6,6,0,105,115,113,105,1,21942
243.898531913,0,-8,-31,-2,-5,-31,1,0,0,-104,80,133,38,13,223,6,6,0,105,115,113,105,1,21943
243.91899991,0,-8,-31,-1,-5,-31,1,1,0,-38,14,48,-16,65,160,6,6,0,116,101,110,111,1,21944
243.929949045,0,-9,-31,0,-7,-31,1,2,0,-117,-84,230,-98,54,143,6,6,0,116,101,110,111,1,21945
243.940991878,0,-9,-31,0,-7,-31,1,2,0,-117,-84,230,-98,54,143,6,6,0,107,112,103,116,1,21946
243.952133894,0,-9,-31,0,-7,-31,0,1,-2,-117,-84,230,-98,54,143,6,6,0,107,112,103,116,1,21947
243.972059011,0,-7,-31,0,-9,-31,0,1,-2,138,1,11,-110,7,209,6,6,0,115,102,111,109,1,21948
243.982959032,0,-5,-31,0,-8,-31,-2,-2,-1,46,-8,142,-40,-34,22,6,6,0,106,113,111,108,1,21949
243.994163036,0,-5,-31,0,-8,-31,-2,-2,-1,46,-8,142,-40,-34,22,6,6,0,106,113,111,108,1,21950
244.005033969,0,-5,-31,0,-8,-31,-3,-3,0,46,-8,142,-40,-34,22,6,6,0,107,112,112,106,1,21951
244.024980068,-2,-5,-31,0,-7,-31,-3,-3,0,9,-77,212,46,-45,11,6,6,0,108,111,111,107,1,21952
244.035914897,0,-7,-31,-1,-5,-31,-1,0,0,-115,44,113,79,-28,195,6,6,0,108,111,111,107,1,21953
244.047857046,0,-7,-31,-1,-5,-31,-1,0,0,-115,44,113,79,-28,195,6,6,0,115,103,116,105,1,21954
244.058346986,0,-7,-31,-1,-5,-31,0,3,0,-115,44,113,79,-28,195,6,6,0,115,103,116,105,1,21955
244.084167957,0,-8,-31,-1,-4,-31,0,3,0,-114,48,39,23,-11,148,6,6,0,108,112,107,112,1,21956
244.089022874,-1,-9,-31,-1,-5,-31,0,4,0,-141,-86,41,-81,1,169,6,6,0,108,112,107,112,1,21957
244.100075006,-1,-9,-31,-1,-5,-31,0,4,0,-141,-86,41,-81,1,169,6,6,0,111,108,106,113,1,21958
244.110943079,-1,-9,-31,-1,-5,-31,-1,2,0,-141,-86,41,-81,1,169,6,6,0,111,108,106,113,1,21959
244.131978035,-2,-6,-31,-1,-7,-31,-1,-2,0,151,-162,65,-141,4,239,6,6,0,113,104,116,106,1,21960
244.143054962,-4,-6,-31,-1,-7,-31,0,-3,-1,-5,-96,3,-97,-36,50,6,6,0,113,104,116,106,1,21961
244.154126882,-4,-6,-31,-1,-7,-31,0,-3,-1,-5,-96,3,-97,-36,50,6,6,0,106,114,110,109,1,21962
244.165105104,-3,-5,-31,-1,-7,-31,0,-1,-1,-5,-96,3,-97,-36,50,6,6,0,106,114,110,109,1,21963
244.184977054,-5,-3,-31,-2,-6,-31,-1,2,-1,138,-113,176,18,-115,65,6,6,0,109,109,114,105,1,21964
244.203603982,-3,-2,-31,-4,-4,-31,-1,3,0,39,105,219,106,-149,17,6,6,0,102,116,107,114,1,21965
244.206988096,-3,-2,-31,-4,-4,-31,-1,3,0,39,105,219,106,-149,17,6,6,0,102,116,107,114,1,21966
244.218106985,-2,-2,-31,-4,-4,-31,0,2,0,39,105,219,106,-149,17,6,6,0,116,104,113,106,1,21967
244.238977909,-3,-1,-31,-5,-2,-31,2,0,0,15,-68,2,107,-88,208,6,6,0,108,112,109,109,1,21968
244.249938011,-3,-1,-31,-4,-1,-31,2,0,0,-7,-15,178,55,6,188,6,6,0,108,112,109,109,1,21969
244.261005878,-3,-1,-31,-4,-1,-31,2,0,0,-7,-15,178,55,6,188,6,6,0,114,105,112,107,1,21970
244.272053957,-3,-1,-31,-4,0,-31,0,1,0,-7,-15,178,55,6,188,6,6,0,114,105,112,107,1,21971
244.294631958,-7,-2,-31,-3,0,-31,0,1,0,-46,-154,133,8,30,211,6,6,0,111,109,110,109,1,21972
244.303015947,-7,-2,-31,-4,-1,-31,-3,2,1,-50,-110,38,-19,-38,218,6,6,0,111,109,110,109,1,21973
244.31400609,-7,-2,-31,-4,-1,-31,-3,2,1,-50,-110,38,-19,-38,218,6,6,0,107,112,111,107,1,21974
244.327919006,-7,-2,-31,-4,0,-31,-2,1,0,-50,-110,38,-19,-38,218,6,6,0,107,112,111,107,1,21975
244.346004009,-6,-4,-31,-5,-1,-31,0,1,0,-162,4,254,-40,-119,197,6,6,0,108,109,105,117,1,21976
244.356930971,-5,-4,-31,-7,-2,-31,2,0,0,20,60,45,-69,-122,208,6,6,0,108,109,105,117,1,21977
244.367991924,-5,-4,-31,-7,-2,-31,2,0,0,20,60,45,-69,-122,208,6,6,0,107,113,112,107,1,21978
244.378931045,-5,-3,-31,-6,-2,-31,2,-1,0,20,60,45,-69,-122,208,6,6,0,107,113,112,107,1,21979
244.399034023,-4,-2,-31,-7,-3,-31,2,-1,0,73,39,25,-84,-38,10,6,6,0,103,114,107,114,1,21980
244.409940958,-1,-2,-31,-6,-4,-31,2,-2,-1,31,144,228,-45,58,52,6,6,0,108,111,109,111,1,21981
244.421056032,-1,-2,-31,-6,-4,-31,2,-2,-1,31,144,228,-45,58,52,6,6,0,108,111,109,111,1,21982
244.432090997,-1,-2,-31,-5,-3,-31,3,-2,-1,31,144,228,-45,58,52,6,6,0,121,97,108,113,1,21983
244.452482938,-2,-2,-31,-4,-3,-31,3,-2,-1,-38,-18,231,33,98,35,6,6,0,114,103,108,112,1,21984
244.462974071,-4,-2,-31,-3,-2,-31,2,-1,-1,29,-125,215,68,75,242,6,6,0,114,103,108,112,1,21985
244.473988056,-4,-2,-31,-3,-2,-31,2,-1,-1,29,-125,215,68,75,242,6,6,0,114,104,109,112,1,21986
244.484999895,-3,-2,-31,-2,-1,-31,-2,-2,-1,29,-125,215,68,75,242,6,6,0,114,104,109,112,1,21987
244.504973888,-2,0,-31,-2,-1,-31,-2,-2,-1,128,110,60,29,15,215,6,6,0,109,110,116,103,1,21988
244.5160501,-4,2,-31,-3,-1,-31,-7,-1,-1,222,-154,158,8,-41,228,6,6,0,109,110,116,103,1,21989
244.52699995,-4,2,-31,-3,-1,-31,-7,-1,-1,222,-154,158,8,-41,228,6,6,0,107,113,105,113,1,21990
244.538004875,-4,2,-31,-2,-1,-31,-6,0,0,222,-154,158,8,-41,228,6,6,0,107,113,105,113,1,21991
244.55914998,-2,3,-31,-3,0,-31,0,2,0,139,76,63,82,-52,253,6,6,0,101,119,105,113,1,21992
244.570983886,-3,2,-31,-3,2,-31,6,1,1,-64,-32,23,180,-24,4,6,6,0,101,119,105,113,1,21993
244.580966949,-3,2,-31,-3,2,-31,6,1,1,-64,-32,23,180,-24,4,6,6,0,112,107,117,102,1,21994
244.592143058,-2,2,-31,-3,2,-31,7,0,1,-64,-32,23,180,-24,4,6,6,0,112,107,117,102,1,21995
244.612492084,-1,1,-31,-3,4,-31,7,0,1,-138,136,55,165,4,4,6,6,0,109,111,106,112,1,21996
244.62294197,-1,-1,-31,-2,4,-31,3,0,0,-220,-22,35,8,27,25,6,6,0,109,111,106,112,1,21997
244.633886098,-1,-1,-31,-2,4,-31,3,0,0,-220,-22,35,8,27,25,6,6,0,109,109,111,108,1,21998
244.644919872,-1,-1,-31,-2,4,-31,0,1,0,-220,-22,35,8,27,25,6,6,0,109,109,111,108,1,21999
244.66498208,-2,-1,-31,-1,2,-31,0,1,0,-1,-113,85,-161,45,53,6,6,0,107,112,110,110,1,22000
244.676003932,-5,-1,-31,-1,0,-31,0,1,0,33,-226,223,-199,15,60,6,6,0,107,112,110,110,1,22001
244.687011957,-5,-1,-31,-1,0,-31,0,1,0,33,-226,223,-199,15,60,6,6,0,103,116,105,114,1,22002
244.698113918,-5,0,-31,-1,0,-31,2,0,0,33,-226,223,-199,15,60,6,6,0,103,116,105,114,1,22003
244.717943906,-5,-1,-31,-2,-1,-31,2,0,0,-45,-15,233,-93,-81,41,6,6,0,118,98,102,120,1,22004
244.729005098,-7,-2,-31,-4,0,-31,3,-3,-1,-49,-144,177,25,-168,6,6,6,0,118,98,102,120,1,22005
244.740083932,-7,-2,-31,-4,0,-31,3,-3,-1,-49,-144,177,25,-168,6,6,6,0,114,104,111,109,1,22006
244.751878023,-7,-2,-31,-4,0,-31,0,-5,-1,-49,-144,177,25,-168,6,6,6,0,114,104,111,109,1,22007
244.771194934,-5,-2,-31,-6,0,-31,-5,-4,-1,-65,158,68,34,-150,222,6,6,0,104,113,116,104,1,22008
244.784955978,-5,-2,-31,-6,0,-31,-6,0,-1,27,-73,83,-40,-45,215,6,6,0,104,113,116,104,1,22009
244.794162035,-5,-2,-31,-6,0,-31,-6,0,-1,27,-73,83,-40,-45,215,6,6,0,111,109,110,109,1,22010
244.804168939,-5,-2,-31,-6,0,-31,-1,4,0,27,-73,83,-40,-45,215,6,6,0,111,109,110,109,1,22011
244.824265956,-7,-1,-31,-5,-1,-31,-1,4,0,85,-150,5,-74,37,6,6,6,0,106,113,109,110,1,22012
244.834950923,-8,0,-31,-5,-1,-31,2,4,0,29,-119,54,-13,11,66,6,6,0,106,114,109,109,1,22013
244.846293926,-8,0,-31,-5,-1,-31,2,4,0,29,-119,54,-13,11,66,6,6,0,106,114,112,106,1,22014
244.857189893,-7,0,-31,-4,-1,-31,3,1,0,29,-119,54,-13,11,66,6,6,0,116,103,112,106,1,22015
244.878786087,-6,-2,-31,-5,-1,-31,3,1,0,-210,67,79,59,-90,75,6,6,0,112,108,105,113,1,22016
244.887986898,-5,-2,-31,-6,0,-31,2,0,0,0,51,180,37,-131,43,6,6,0,112,108,105,113,1,22017
244.899991035,-5,-2,-31,-6,0,-31,2,0,0,0,51,180,37,-131,43,6,6,0,104,115,112,108,1,22018
244.909934997,-4,-2,-31,-6,0,-31,0,0,0,0,51,180,37,-131,43,6,6,0,104,115,112,108,1,22019
244.930973053,-5,-1,-31,-7,-1,-31,0,0,0,25,-31,138,-65,-43,11,6,6,0,116,100,106,116,1,22020
244.944089889,-6,-1,-31,-5,-3,-31,-1,0,0,-5,-70,225,-109,62,230,6,6,0,116,100,106,116,1,22021
244.953010082,-6,-1,-31,-5,-3,-31,-1,0,0,-5,-70,225,-109,62,230,6,6,0,107,111,114,106,1,22022
244.964204072,-6,-1,-31,-5,-2,-31,-2,-1,-1,-5,-70,225,-109,62,230,6,6,0,107,111,114,106,1,22023
244.984584093,-6,-2,-31,-3,-3,-31,-1,0,-1,-81,-48,17,-37,47,183,6,6,0,104,115,111,108,1,22024
244.99503088,-4,0,-31,-4,-2,-31,0,1,0,132,79,225,35,-48,177,6,6,0,104,115,111,108,1,22025
245.004982948,-4,0,-31,-4,-2,-31,0,1,0,132,79,225,35,-48,177,6,6,0,115,103,107,112,1,22026
245.016043901,-4,0,-31,-4,-2,-31,1,2,0,132,79,225,35,-48,177,6,6,0,115,103,107,112,1,22027
245.035950899,-4,0,-31,-5,-1,-31,1,2,0,-27,-20,200,27,-77,227,6,6,0,100,119,114,105,1,22028
245.047296047,-2,-1,-32,-5,-1,-32,2,1,0,-15,106,193,0,-4,5,6,6,0,114,105,106,113,1,22029
245.060522079,-2,-1,-32,-5,-1,-32,2,1,0,-15,106,193,0,-4,5,6,6,0,114,105,106,113,1,22030
245.069072008,-2,-1,-32,-4,-1,-32,1,0,0,-15,106,193,0,-4,5,6,6,0,108,113,110,107,1,22031
245.091949939,-4,-1,-31,-3,-1,-31,1,0,0,-7,-164,6,7,63,232,6,6,0,116,104,110,108,1,22032
245.101088047,-4,-1,-31,-2,-1,-31,0,0,0,-63,-65,100,7,37,199,6,6,0,116,104,110,108,1,22033
245.111947059,-4,-1,-31,-2,-1,-31,0,0,0,-63,-65,100,7,37,199,6,6,0,104,117,109,109,1,22034
245.122889041,-4,-1,-31,-2,-1,-31,0,0,1,-63,-65,100,7,37,199,6,6,0,104,117,109,109,1,22035
245.143049955,-5,-4,-31,-3,-1,-31,0,0,1,-166,-55,178,-26,-54,230,6,6,0,112,106,108,112,1,22036
245.15618205,-5,-3,-31,-4,-2,-31,0,0,0,47,-37,68,-71,-115,35,6,6,0,112,106,108,112,1,22037
245.165003061,-5,-3,-31,-4,-2,-31,0,0,0,47,-37,68,-71,-115,35,6,6,0,105,113,112,108,1,22038
245.17871499,-4,-3,-32,-4,-2,-32,0,0,0,47,-37,68,-71,-115,35,6,6,0,105,113,112,108,1,22039
245.196224927,-5,-4,-32,-5,-3,-32,0,0,0,-54,-39,7,-90,-91,47,6,6,0,114,102,111,111,1,22040
245.207112073,-4,-3,-32,-5,-3,-32,1,0,-1,44,32,19,-60,-30,14,6,6,0,114,102,111,111,1,22041
245.21790409,-4,-3,-32,-5,-3,-32,1,0,-1,44,32,19,-60,-30,14,6,6,0,111,105,111,110,1,22042
245.229016065,-4,-2,-32,-5,-3,-32,-1,0,-2,44,32,19,-60,-30,14,6,6,0,111,105,111,110,1,22043
245.250256061,-4,-3,-32,-4,-3,-32,-3,0,-2,-39,-6,240,-3,0,255,6,6,0,104,115,111,108,1,22044
245.261104106,-2,-4,-32,-4,-2,-32,-3,-1,0,-92,129,239,19,6,10,6,6,0,104,115,111,108,1,22045
245.271940946,-2,-4,-32,-4,-2,-32,-3,-1,0,-92,129,239,19,6,10,6,6,0,108,111,103,116,1,22046
245.283256053,-1,-4,-32,-3,-2,-32,0,-2,1,-92,129,239,19,6,10,6,6,0,108,111,103,116,1,22047
245.302926063,0,-2,-32,-3,-2,-32,0,-2,1,86,133,205,-10,29,5,6,6,0,105,116,111,106,1,22048
245.314073085,0,-2,-32,-1,-3,-32,4,-2,1,9,-33,235,-40,79,234,6,6,0,105,116,111,106,1,22049
245.324912071,0,-2,-32,-1,-3,-32,4,-2,1,9,-33,235,-40,79,234,6,6,0,111,109,110,107,1,22050
245.335987091,0,-2,-32,-1,-3,-32,4,-1,1,9,-33,235,-40,79,234,6,6,0,111,109,110,107,1,22051
245.356012105,0,-4,-32,0,-3,-32,4,-1,1,-134,-19,176,-20,103,211,6,6,0,116,102,115,105,1,22052
245.367927074,0,-7,-32,1,-3,-32,1,1,1,-141,-13,146,3,54,204,6,6,0,116,102,115,105,1,22053
245.378029108,0,-7,-32,1,-3,-32,1,1,1,-141,-13,146,3,54,204,6,6,0,108,110,113,107,1,22054
245.388946056,0,-7,-32,0,-2,-32,-2,3,0,-141,-13,146,3,54,204,6,6,0,108,110,113,107,1,22055
245.408989906,-1,-10,-32,0,-3,-32,-2,3,0,-181,-12,163,-49,-27,191,6,6,0,109,109,108,112,1,22056
245.42008996,0,-12,-32,0,-6,-32,-3,4,-1,-119,36,180,-152,-53,166,6,6,0,109,109,108,112,1,22057
245.430936098,0,-12,-32,0,-6,-32,-3,4,-1,-119,36,180,-152,-53,166,6,6,0,108,110,105,114,1,22058
245.442096948,0,-11,-32,0,-6,-32,-1,1,-2,-119,36,180,-152,-53,166,6,6,0,108,110,105,114,1,22059
245.463907003,-1,-10,-32,0,-9,-32,1,-2,-1,8,-52,199,-193,-14,151,6,6,0,107,112,100,119,1,22060
245.474039077,-2,-12,-32,0,-11,-32,2,-4,0,-164,-67,166,-135,17,166,6,6,0,107,112,100,119,1,22061
245.484982013,-2,-12,-32,0,-11,-32,2,-4,0,-164,-67,166,-135,17,166,6,6,0,110,109,120,99,1,22062
245.496207952,-2,-11,-32,0,-10,-32,1,-4,0,-164,-67,166,-135,17,166,6,6,0,110,109,120,99,1,22063
245.521079063,-2,-11,-32,0,-11,-32,1,-4,0,1,-50,80,-55,-8,195,6,6,0,109,110,101,119,1,22064
245.527111053,-3,-14,-32,-1,-11,-32,0,-2,0,-192,-76,129,-41,-61,219,6,6,0,107,112,111,108,1,22065
245.538467884,-3,-14,-32,-1,-11,-32,0,-2,0,-192,-76,129,-41,-61,219,6,6,0,107,112,111,108,1,22066
245.548918008,-3,-13,-32,-1,-10,-32,0,0,0,-192,-76,129,-41,-61,219,6,6,0,108,112,111,107,1,22067
245.569010019,-3,-12,-32,-2,-12,-32,0,0,0,49,26,33,-81,-81,235,6,6,0,108,112,109,108,1,22068
245.588016986,-3,-10,-32,-3,-12,-32,1,-1,0,142,-51,63,-93,-54,241,6,6,0,108,112,109,108,1,22069
245.591445922,-3,-10,-32,-3,-12,-32,1,-1,0,142,-51,63,-93,-54,241,6,6,0,111,110,101,116,1,22070
245.602236986,-3,-9,-32,-3,-11,-32,2,-2,0,142,-51,63,-93,-54,241,6,6,0,111,110,101,116,1,22071
245.622256994,-4,-6,-32,-3,-12,-32,2,-2,0,209,-92,178,-17,-19,247,6,6,0,113,105,112,109,1,22072
245.632960081,-1,-6,-32,-3,-9,-32,1,-2,1,-9,78,124,112,-17,1,6,6,0,113,105,112,109,1,22073
245.644169092,-1,-6,-32,-3,-9,-32,1,-2,1,-9,78,124,112,-17,1,6,6,0,108,110,114,106,1,22074
245.655009985,-1,-5,-32,-3,-8,-32,-1,-1,0,-9,78,124,112,-17,1,6,6,0,108,110,114,106,1,22075
245.675993919,0,-5,-32,-3,-5,-32,-2,1,-1,-14,55,22,178,-30,236,6,6,0,106,114,114,104,1,22076
245.686187028,0,-8,-32,-3,-3,-32,-1,4,-1,-220,8,149,99,-6,186,6,6,0,106,114,114,104,1,22077
245.697057008,0,-8,-32,-3,-3,-32,-1,4,-1,-220,8,149,99,-6,186,6,6,0,112,107,111,108,1,22078
245.708278894,0,-8,-32,-2,-2,-32,0,5,0,-220,8,149,99,-6,186,6,6,0,112,107,111,108,1,22079
245.728115081,-2,-10,-32,-2,-4,-32,0,5,0,-125,-81,137,-64,43,164,6,6,0,104,116,111,107,1,22080
245.739875078,-1,-10,-32,-1,-7,-32,2,4,1,-38,44,186,-177,43,178,6,6,0,104,116,111,107,1,22081
245.750044107,-1,-10,-32,-1,-7,-32,2,4,1,-38,44,186,-177,43,178,6,6,0,108,112,106,112,1,22082
245.76097393,-1,-10,-32,-1,-6,-32,3,2,1,-38,44,186,-177,43,178,6,6,0,108,112,106,112,1,22083
245.782010078,-3,-8,-32,-1,-9,-32,3,2,1,118,-150,129,-162,-17,178,6,6,0,112,108,101,116,1,22084
245.792965889,-1,-5,-32,-2,-10,-32,3,0,0,101,116,204,-45,-62,155,6,6,0,112,108,101,116,1,22085
245.803050994,-1,-5,-32,-2,-10,-32,3,0,0,101,116,204,-45,-62,155,6,6,0,110,110,112,106,1,22086
245.815948009,-1,-5,-32,-2,-9,-32,1,-3,0,101,116,204,-45,-62,155,6,6,0,110,110,112,106,1,22087
245.835128068,-1,-2,-32,-3,-7,-32,1,-3,0,113,-2,147,84,-45,148,6,6,0,112,105,108,113,1,22088
245.846045017,1,-3,-32,-3,-4,-32,0,-4,0,-54,145,173,140,13,166,6,6,0,112,105,108,113,1,22089
245.860054016,1,-3,-32,-3,-4,-32,0,-4,0,-54,145,173,140,13,166,6,6,0,106,110,110,111,1,22090
245.867933988,1,-3,-32,-2,-3,-32,-1,-2,0,-54,145,173,140,13,166,6,6,0,106,110,110,111,1,22091
245.887944936,0,-4,-32,-1,-1,-32,-1,0,-2,-79,-18,196,94,68,179,6,6,0,107,114,112,104,1,22092
245.89905405,0,-3,-32,0,-1,-32,-1,1,-1,53,12,192,-4,82,178,6,6,0,107,114,112,104,1,22093
245.909981012,0,-3,-32,0,-1,-32,-1,1,-1,53,12,192,-4,82,178,6,6,0,120,99,105,114,1,22094
245.928081989,0,-3,-32,0,-1,-32,-1,1,1,53,12,192,-4,82,178,6,6,0,120,99,105,114,1,22095
245.94114089,0,-2,-32,1,-2,-32,-1,1,1,33,-4,225,-63,47,181,6,6,0,107,115,109,107,1,22096
245.954983949,1,-1,-32,1,-3,-32,-2,0,2,62,68,157,-28,0,205,6,6,0,107,111,116,104,1,22097
245.963238954,1,-1,-32,1,-3,-32,-2,0,2,62,68,157,-28,0,205,6,6,0,107,111,116,104,1,22098
245.974210023,1,-1,-32,1,-2,-32,-2,0,2,62,68,157,-28,0,205,6,6,0,101,117,109,110,1,22099
245.994337081,1,-2,-32,1,-2,-32,-2,0,2,-98,38,113,45,-6,3,6,6,0,104,114,111,109,1,22100
246.00495696,2,0,-32,1,-1,-32,0,1,0,198,55,115,63,30,82,6,6,0,104,114,111,109,1,22101
246.016153097,2,0,-32,1,-1,-32,0,1,0,198,55,115,63,30,82,6,6,0,112,109,111,106,1,22102
246.027421951,1,0,-32,1,-1,-32,4,3,0,198,55,115,63,30,82,6,6,0,112,109,111,106,1,22103
246.0469141,4,0,-32,1,0,-32,4,3,0,3,170,208,28,69,138,6,6,0,115,102,104,117,1,22104
246.058016061,5,0,-31,2,0,-31,4,2,0,-22,93,21,24,88,112,6,6,0,115,102,104,117,1,22105
246.068971872,5,0,-31,2,0,-31,4,2,0,-22,93,21,24,88,112,6,6,0,101,119,108,111,1,22106
246.080063104,5,0,-32,2,0,-32,0,-1,0,-22,93,21,24,88,112,6,6,0,101,119,108,111,1,22107
246.100961923,7,-2,-31,3,0,-31,-2,-4,0,-149,203,21,44,110,25,6,6,0,116,104,114,104,1,22108
246.112138986,7,0,-32,5,0,-32,-1,-3,0,83,29,157,9,139,222,6,6,0,116,104,114,104,1,22109
246.123251915,7,0,-32,5,0,-32,-1,-3,0,83,29,157,9,139,222,6,6,0,112,105,107,113,1,22110
246.138568878,6,0,-32,5,0,-32,-2,0,0,83,29,157,9,139,222,6,6,0,112,105,107,113,1,22111
246.154141902,9,0,-32,7,0,-32,-2,0,0,-19,165,166,-61,146,221,6,6,0,109,111,118,100,1,22112
246.165071964,8,1,-32,8,-1,-32,-3,2,0,140,-26,11,-57,117,221,6,6,0,109,111,118,100,1,22113
246.175941944,8,1,-32,8,-1,-32,-3,2,0,140,-26,11,-57,117,221,6,6,0,112,105,105,116,1,22114
246.187007904,8,1,-32,8,-1,-32,-3,3,0,140,-26,11,-57,117,221,6,6,0,112,105,105,116,1,22115
246.206968069,7,4,-32,9,0,-32,-3,3,0,142,-14,139,36,72,194,6,6,0,104,117,110,107,1,22116
246.218194007,4,4,-31,9,1,-31,-1,1,0,23,-193,234,123,20,182,6,6,0,104,117,110,107,1,22117
246.229012966,4,4,-31,9,1,-31,-1,1,0,23,-193,234,123,20,182,6,6,0,113,110,108,107,1,22118
246.240029096,4,4,-31,8,1,-31,1,0,0,23,-193,234,123,20,182,6,6,0,113,110,108,107,1,22119
246.260513067,5,2,-31,8,3,-31,1,0,0,-78,90,207,128,-43,198,6,6,0,106,113,109,110,1,22120
246.271063089,0,2,-31,5,4,-31,2,0,2,-3,-120,0,54,-90,206,6,6,0,106,113,109,110,1,22121
246.284087896,0,2,-31,5,4,-31,2,0,2,-3,-120,0,54,-90,206,6,6,0,108,112,111,107,1,22122
246.292989969,0,2,-31,5,4,-31,2,0,2,-3,-120,0,54,-90,206,6,6,0,108,112,111,107,1,22123
246.313327074,-1,2,-31,3,3,-31,2,0,2,23,-58,174,-33,-77,173,6,6,0,116,100,109,113,1,22124
246.327972888,-2,2,-31,2,1,-31,0,0,0,1,-89,54,-57,-40,121,6,6,0,116,100,109,113,1,22125
246.335027933,-2,2,-31,2,1,-31,0,0,0,1,-89,54,-57,-40,121,6,6,0,105,114,110,110,1,22126
246.345993995,-2,2,-31,2,1,-31,-1,0,-1,1,-89,54,-57,-40,121,6,6,0,105,114,110,110,1,22127
246.365963935,-3,3,-31,0,1,-31,-1,0,-1,104,-126,122,-6,-49,129,6,6,0,112,104,104,118,1,22128
246.377146005,-2,2,-32,0,1,-32,-2,-1,-2,-50,62,154,49,-90,237,6,6,0,112,104,104,118,1,22129
246.388179063,-2,2,-32,0,1,-32,-2,-1,-2,-50,62,154,49,-90,237,6,6,0,111,106,118,103,1,22130
246.399009943,-2,2,-32,0,1,-32,-2,-2,-2,-50,62,154,49,-90,237,6,6,0,111,106,118,103,1,22131
246.419035911,-1,4,-32,-1,2,-32,-2,-2,-2,73,31,128,56,-90,78,6,6,0,107,115,110,106,1,22132
246.429943084,3,3,-32,-1,2,-32,-1,0,-1,-19,191,100,27,-15,28,6,6,0,115,103,105,114,1,22133
246.441029071,3,3,-32,-1,2,-32,-1,0,-1,-19,191,100,27,-15,28,6,6,0,115,103,105,114,1,22134
246.452136039,2,3,-32,-1,2,-32,0,2,0,-19,191,100,27,-15,28,6,6,0,98,122,110,107,1,22135
246.475931882,4,3,-32,0,2,-32,0,1,1,13,65,183,5,84,136,6,6,0,119,99,107,113,1,22136
246.484205961,4,3,-32,5,2,-32,1,0,1,15,13,231,5,138,65,6,6,0,119,99,107,113,1,22137
246.495815038,4,3,-32,5,2,-32,1,0,1,15,13,231,5,138,65,6,6,0,100,119,109,111,1,22138
246.507951974,3,2,-32,4,2,-32,1,-2,0,15,13,231,5,138,65,6,6,0,100,119,109,111,1,22139
246.526113033,3,3,-32,7,2,-32,1,-2,0,73,-35,57,14,109,137,6,6,0,116,100,110,111,1,22140
246.539887905,4,2,-32,7,2,-32,1,-2,-1,-103,97,95,20,31,1,6,6,0,116,100,110,111,1,22141
246.548369884,4,2,-32,7,2,-32,1,-2,-1,-103,97,95,20,31,1,6,6,0,104,112,116,105,1,22142
246.559068918,3,2,-32,6,2,-32,0,0,-2,-103,97,95,20,31,1,6,6,0,104,112,116,105,1,22143
246.580036878,4,4,-32,6,2,-32,0,2,-2,177,92,117,21,-14,73,6,6,0,108,110,107,112,1,22144
246.590975999,5,5,-32,6,2,-32,0,3,-1,70,63,128,24,23,89,6,6,0,108,110,107,112,1,22145
246.602138042,5,5,-32,6,2,-32,0,3,-1,70,63,128,24,23,89,6,6,0,111,108,112,107,1,22146
246.613084077,5,5,-32,5,2,-32,0,2,0,70,63,128,24,23,89,6,6,0,111,108,112,107,1,22147
246.63300395,4,6,-32,6,3,-32,0,2,0,74,-54,172,52,88,57,6,6,0,109,111,106,111,1,22148
246.644223928,3,3,-32,7,4,-32,0,0,0,-110,-28,160,89,83,232,6,6,0,110,112,107,110,1,22149
246.65497303,3,3,-32,7,4,-32,0,0,0,-110,-28,160,89,83,232,6,6,0,110,112,107,110,1,22150
246.665982008,3,3,-32,7,4,-32,0,-1,1,-110,-28,160,89,83,232,6,6,0,109,111,102,117,1,22151
246.686040878,2,2,-32,7,5,-32,0,-1,1,-59,-79,60,68,0,151,6,6,0,109,111,104,114,1,22152
246.698015928,2,2,-32,4,4,-32,0,-3,1,-10,20,234,-25,-72,153,6,6,0,109,111,104,114,1,22153
246.707902908,2,2,-32,4,4,-32,0,-3,1,-10,20,234,-25,-72,153,6,6,0,105,113,110,110,1,22154
246.722150087,2,2,-32,4,4,-32,1,-4,1,-10,20,234,-25,-72,153,6,6,0,105,113,110,110,1,22155
246.739096879,3,2,-32,3,2,-32,1,-4,1,23,54,154,-92,-67,232,6,6,0,108,111,115,104,1,22156
246.755884885,4,0,-32,3,1,-32,3,-3,0,-119,29,100,-63,-5,16,6,6,0,108,111,115,104,1,22157
246.761210918,4,0,-32,3,1,-32,3,-3,0,-119,29,100,-63,-5,16,6,6,0,109,110,108,111,1,22158
246.771955966,3,0,-32,3,1,-32,3,0,-1,-119,29,100,-63,-5,16,6,6,0,109,110,108,111,1,22159
246.792284965,3,-3,-32,3,1,-32,1,3,-1,-126,-16,151,-8,48,206,6,6,0,111,107,109,110,1,22160
246.802990913,1,-4,-32,4,0,-32,-2,4,-1,-70,-93,185,-32,45,112,6,6,0,111,107,109,110,1,22161
246.81438899,1,-4,-32,4,0,-32,-2,4,-1,-70,-93,185,-32,45,112,6,6,0,112,105,113,107,1,22162
246.827923059,1,-4,-32,4,0,-32,-4,2,-1,-70,-93,185,-32,45,112,6,6,0,112,105,113,107,1,22163
246.845241069,-1,-4,-32,4,-3,-32,-4,2,-1,-43,-144,217,-108,-14,101,6,6,0,107,112,105,114,1,22164
246.856055975,0,-3,-32,2,-5,-32,-2,0,-1,96,23,12,-121,-84,172,6,6,0,107,112,105,114,1,22165
246.866956949,0,-3,-32,2,-5,-32,-2,0,-1,96,23,12,-121,-84,172,6,6,0,111,109,112,106,1,22166
246.878295898,0,-2,-32,2,-4,-32,0,0,0,96,23,12,-121,-84,172,6,6,0,111,109,112,106,1,22167
246.897991895,1,-4,-32,0,-5,-32,0,0,0,-56,61,78,-41,-105,237,6,6,0,107,114,110,106,1,22168
246.909354925,2,-5,-32,0,-4,-32,1,0,1,-80,73,233,38,-44,233,6,6,0,107,114,110,106,1,22169
246.923907995,2,-5,-32,0,-4,-32,1,0,1,-80,73,233,38,-44,233,6,6,0,109,111,111,106,1,22170
246.930953979,2,-5,-32,0,-3,-32,1,1,2,-80,73,233,38,-44,233,6,6,0,109,111,111,106,1,22171
246.952140092,3,-8,-32,0,-3,-32,1,2,1,-180,80,165,19,54,181,6,6,0,114,103,106,115,1,22172
246.962974071,3,-7,-32,3,-4,-32,1,0,0,-7,-17,215,-78,104,151,6,6,0,114,103,106,115,1,22173
246.977401018,3,-7,-32,3,-4,-32,1,0,0,-7,-17,215,-78,104,151,6,6,0,104,115,107,113,1,22174
246.988166093,2,-7,-32,2,-4,-32,0,-3,-2,-7,-17,215,-78,104,151,6,6,0,104,115,107,113,1,22175
247.006011962,1,-6,-32,3,-6,-32,0,-4,-2,-19,-74,8,-142,72,177,6,6,0,113,108,115,102,1,22176
247.016966104,2,-8,-32,3,-7,-32,-1,-2,-1,-143,109,29,-105,1,226,6,6,0,113,108,115,102,1,22177
247.027999877,2,-8,-32,3,-7,-32,-1,-2,-1,-143,109,29,-105,1,226,6,6,0,109,108,107,114,1,22178
247.039159059,2,-7,-32,3,-7,-32,-1,0,0,-143,109,29,-105,1,226,6,6,0,109,108,107,114,1,22179
247.059571981,5,-10,-32,2,-7,-32,-1,0,0,-103,106,104,-37,-29,0,6,6,0,108,113,114,103,1,22180
247.070926904,5,-6,-32,2,-8,-32,0,2,0,111,25,149,-39,19,244,6,6,0,108,113,114,103,1,22181
247.080997943,5,-6,-32,2,-8,-32,0,2,0,111,25,149,-39,19,244,6,6,0,120,98,106,114,1,22182
247.092123031,4,-6,-32,2,-7,-32,-1,2,0,111,25,149,-39,19,244,6,6,0,120,98,106,114,1,22183
247.112015962,4,-8,-32,4,-8,-32,-1,2,0,-134,16,230,-76,91,189,6,6,0,100,121,107,110,1,22184
247.123007059,1,-6,-32,6,-9,-32,-1,0,0,80,-130,106,-54,88,140,6,6,0,100,121,107,110,1,22185
247.134438037,1,-6,-32,6,-9,-32,-1,0,0,80,-130,106,-54,88,140,6,6,0,112,108,112,106,1,22186
247.145318985,1,-5,-32,5,-8,-32,0,-1,1,80,-130,106,-54,88,140,6,6,0,112,108,112,106,1,22187
247.165224075,3,-6,-32,5,-8,-32,0,-1,1,-78,185,27,2,6,147,6,6,0,103,115,108,111,1,22188
247.176099062,5,-7,-32,4,-7,-32,2,0,1,-122,132,192,9,-40,191,6,6,0,103,115,108,111,1,22189
247.188030958,5,-7,-32,4,-7,-32,2,0,1,-122,132,192,9,-40,191,6,6,0,107,112,115,104,1,22190
247.198216915,5,-7,-32,4,-7,-32,4,1,0,-122,132,192,9,-40,191,6,6,0,107,112,115,104,1,22191
247.217998027,5,-5,-32,4,-7,-32,3,2,0,75,41,187,-37,29,222,6,6,0,116,103,108,112,1,22192
247.229042053,5,-2,-32,6,-8,-32,0,1,-1,85,22,138,-65,133,219,6,6,0,116,103,108,112,1,22193
247.240304946,5,-2,-32,6,-8,-32,0,1,-1,85,22,138,-65,133,219,6,6,0,106,113,105,114,1,22194
247.251317024,5,-2,-32,5,-7,-32,-4,-1,-1,85,22,138,-65,133,219,6,6,0,106,113,105,114,1,22195
247.271856069,5,-3,-32,8,-7,-32,-4,-1,-1,-62,11,25,-20,131,192,6,6,0,122,98,106,112,1,22196
247.282960891,4,-2,-32,8,-6,-32,-4,-3,0,87,-61,255,52,31,178,6,6,0,107,109,111,111,1,22197
247.294312,4,-2,-32,8,-6,-32,-4,-3,0,87,-61,255,52,31,178,6,6,0,107,109,111,111,1,22198
247.307966947,3,-1,-32,7,-5,-32,-3,-3,0,87,-61,255,52,31,178,6,6,0,106,115,118,99,1,22199
247.324949979,5,0,-32,7,-4,-32,-3,-3,0,90,148,105,68,-39,214,6,6,0,109,112,114,104,1,22200
247.336127996,6,-1,-32,6,-3,-32,-3,-1,0,-37,107,207,37,-11,26,6,6,0,109,112,114,104,1,22201
247.346972942,6,-1,-32,6,-3,-32,-3,-1,0,-37,107,207,37,-11,26,6,6,0,115,105,102,116,1,22202
247.357922077,6,-1,-32,5,-3,-32,-2,2,0,-37,107,207,37,-11,26,6,6,0,115,105,102,116,1,22203
247.378048896,5,-2,-32,6,-3,-32,-2,2,0,-24,-26,149,26,68,58,6,6,0,103,117,109,109,1,22204
247.388948917,1,-4,-32,7,-2,-32,0,2,0,-43,-65,32,20,105,3,6,6,0,103,117,109,109,1,22205
247.40003705,1,-4,-32,7,-2,-32,0,2,0,-43,-65,32,20,105,3,6,6,0,112,109,111,105,1,22206
247.410989046,1,-3,-32,7,-2,-32,2,0,1,-43,-65,32,20,105,3,6,6,0,112,109,111,105,1,22207
247.430943012,1,-2,-32,7,-2,-32,2,-1,1,70,-35,62,-13,45,153,6,6,0,114,104,103,116,1,22208
247.442073106,2,-2,-32,5,-3,-32,1,0,0,-14,91,63,-34,-49,104,6,6,0,114,104,103,116,1,22209
247.455859899,2,-2,-32,5,-3,-32,1,0,0,-14,91,63,-34,-49,104,6,6,0,103,116,118,101,1,22210
247.468348026,2,-2,-32,5,-3,-32,0,0,-1,-14,91,63,-34,-49,104,6,6,0,103,116,118,101,1,22211
247.484191894,1,-1,-32,3,-3,-32,0,0,-1,41,-36,227,-4,-65,182,6,6,0,119,98,107,115,1,22212
247.495100021,1,1,-32,3,-2,-32,-1,0,-1,22,53,28,45,5,48,6,6,0,119,98,107,115,1,22213
247.506109952,1,1,-32,3,-2,-32,-1,0,-1,22,53,28,45,5,48,6,6,0,102,115,111,110,1,22214
247.520438909,1,1,-32,3,-2,-32,-2,0,-1,22,53,28,45,5,48,6,6,0,102,115,111,110,1,22215
247.537362098,1,3,-32,4,-1,-32,-2,0,-1,83,-31,158,90,57,75,6,6,0,114,105,102,117,1,22216
247.551956892,1,4,-32,4,0,-32,-1,0,-1,86,23,157,140,33,250,6,6,0,114,105,102,117,1,22217
247.559105873,1,4,-32,4,0,-32,-1,0,-1,86,23,157,140,33,250,6,6,0,116,103,110,109,1,22218
247.570008039,1,4,-32,3,0,-32,-2,-3,-1,86,23,157,140,33,250,6,6,0,116,103,110,109,1,22219
247.590457916,0,6,-32,3,3,-32,-2,-3,-1,107,-73,6,163,-12,169,6,6,0,106,116,114,103,1,22220
247.601134061,0,5,-32,2,6,-32,-2,-3,0,-24,-31,79,121,-29,166,6,6,0,106,116,114,103,1,22221
247.616035938,0,5,-32,2,6,-32,-2,-3,0,-24,-31,79,121,-29,166,6,6,0,111,110,113,104,1,22222
247.623032093,0,5,-32,2,5,-32,-2,0,1,-24,-31,79,121,-29,166,6,6,0,111,110,113,104,1,22223
247.643997907,0,4,-32,2,6,-32,-2,0,1,-28,0,216,49,-29,230,6,6,0,100,119,110,108,1,22224
247.660206079,-1,0,-32,1,6,-32,1,5,2,-196,-123,119,-7,-34,34,6,6,0,100,119,110,108,1,22225
247.665740966,-1,0,-32,1,6,-32,1,5,2,-196,-123,119,-7,-34,34,6,6,0,105,113,110,110,1,22226
247.676183939,-1,0,-32,1,5,-32,6,5,1,-196,-123,119,-7,-34,34,6,6,0,105,113,110,110,1,22227
247.696963071,-1,-1,-32,0,4,-32,6,1,-1,-217,23,8,-64,-43,14,6,6,0,116,102,104,115,1,22228
247.708416938,-3,-2,-32,0,1,-32,1,-2,-2,-35,-151,241,-140,-51,195,6,6,0,116,102,104,115,1,22229
247.719557046,-3,-2,-32,0,1,-32,1,-2,-2,-35,-151,241,-140,-51,195,6,6,0,111,105,112,110,1,22230
247.730185985,-3,-2,-32,0,1,-32,-4,-3,-2,-35,-151,241,-140,-51,195,6,6,0,111,105,112,110,1,22231
247.750319004,-4,-3,-32,-1,-1,-32,-4,-3,-2,-52,-53,204,-184,-62,169,6,6,0,114,105,109,110,1,22232
247.761014938,-4,-4,-32,-2,-3,-32,-6,-2,-1,-126,-20,123,-139,-74,222,6,6,0,114,105,109,110,1,22233
247.772074937,-4,-4,-32,-2,-3,-32,-6,-2,-1,-126,-20,123,-139,-74,222,6,6,0,107,114,111,106,1,22234
247.783228874,-3,-3,-32,-1,-3,-32,-3,0,0,-126,-20,123,-139,-74,222,6,6,0,107,114,111,106,1,22235
247.803030014,-2,-6,-32,-2,-4,-32,-3,0,0,-50,194,75,-65,-67,30,6,6,0,110,109,111,108,1,22236
247.814145088,-2,-6,-32,-2,-5,-32,0,0,0,-13,-22,16,-83,-7,63,6,6,0,110,109,111,108,1,22237
247.828047037,-2,-6,-32,-2,-5,-32,0,0,0,-13,-22,16,-83,-7,63,6,6,0,106,114,108,110,1,22238
247.836097002,-2,-5,-32,-2,-4,-32,1,1,1,-13,-22,16,-83,-7,63,6,6,0,106,114,108,110,1,22239
247.858135938,-2,-6,-32,-1,-6,-32,1,1,1,-11,-7,118,-168,75,66,6,6,0,111,109,103,114,1,22240
247.866990089,-1,-5,-32,0,-8,-32,2,0,1,-1,96,18,-165,92,24,6,6,0,111,109,103,114,1,22241
247.878139972,-1,-5,-32,0,-8,-32,2,0,1,-1,96,18,-165,92,24,6,6,0,110,109,108,111,1,22242
247.88894701,0,-5,-32,0,-7,-32,1,-2,0,-1,96,18,-165,92,24,6,6,0,110,109,108,111,1,22243
247.910211086,-1,-6,-32,0,-8,-32,0,-3,0,-88,-39,1,-45,34,209,6,6,0,117,101,113,107,1,22244
247.921053886,0,-8,-32,0,-6,-32,0,-1,0,-156,73,246,33,-6,186,6,6,0,117,101,113,107,1,22245
247.932260036,0,-8,-32,0,-6,-32,0,-1,0,-156,73,246,33,-6,186,6,6,0,101,117,111,109,1,22246
247.943213939,0,-7,-32,0,-6,-32,-1,2,-1,-156,73,246,33,-6,186,6,6,0,101,117,111,109,1,22247
247.963157892,2,-8,-32,0,-6,-32,-1,2,-1,-117,206,16,-30,19,236,6,6,0,118,100,114,106,1,22248
247.974026918,2,-10,-32,1,-8,-32,-2,3,-1,-117,65,223,-144,79,27,6,6,0,109,110,111,108,1,22249
247.985276937,2,-10,-32,1,-8,-32,-2,3,-1,-117,65,223,-144,79,27,6,6,0,109,110,111,108,1,22250
247.996066093,2,-9,-32,1,-7,-32,-2,2,0,-117,65,223,-144,79,27,6,6,0,108,110,104,116,1,22251
248.015995025,1,-8,-32,2,-9,-32,-2,2,0,37,-72,202,-171,124,15,6,6,0,109,109,108,112,1,22252
248.026926994,2,-7,-32,4,-10,-32,-2,1,0,70,120,42,-94,106,230,6,6,0,109,109,108,112,1,22253
248.040035009,2,-7,-32,4,-10,-32,-2,1,0,70,120,42,-94,106,230,6,6,0,114,105,108,111,1,22254
248.048974037,2,-6,-32,3,-9,-32,-1,0,0,70,120,42,-94,106,230,6,6,0,114,105,108,111,1,22255
248.069025039,0,-6,-32,4,-9,-32,-1,0,0,20,-130,29,10,31,218,6,6,0,108,113,114,103,1,22256
248.079982996,1,-5,-32,3,-7,-32,-1,-1,0,67,33,55,70,-30,253,6,6,0,108,113,114,103,1,22257
248.090950965,1,-5,-32,3,-7,-32,-1,-1,0,67,33,55,70,-30,253,6,6,0,107,113,115,103,1,22258
248.101954937,1,-4,-32,3,-7,-32,0,0,0,67,33,55,70,-30,253,6,6,0,107,113,115,103,1,22259
248.122967004,3,-3,-32,2,-5,-32,1,3,1,95,144,0,71,-29,43,6,6,0,108,112,107,111,1,22260
248.139894008,3,-3,-32,2,-4,-32,3,3,0,-36,40,67,52,15,56,6,6,0,108,112,107,111,1,22261
248.144983053,3,-3,-32,2,-4,-32,3,3,0,-36,40,67,52,15,56,6,6,0,108,111,105,114,1,22262
248.15597105,3,-3,-32,2,-4,-32,3,0,0,-36,40,67,52,15,56,6,6,0,108,111,105,114,1,22263
248.176002979,0,-3,-32,3,-3,-32,3,0,0,-11,-83,135,41,68,33,6,6,0,117,101,112,108,1,22264
248.186994075,0,-3,-32,4,-3,-32,1,-3,0,6,-105,16,22,67,254,6,6,0,117,101,112,108,1,22265
248.199883937,0,-3,-32,4,-3,-32,1,-3,0,6,-105,16,22,67,254,6,6,0,105,111,104,117,1,22266
248.209018945,0,-3,-32,4,-3,-32,-1,-2,0,6,-105,16,22,67,254,6,6,0,105,111,104,117,1,22267
248.228993892,-1,-3,-32,3,-3,-32,-1,-2,0,-34,-108,44,-10,-18,226,6,6,0,109,111,118,101,1,22268
248.240050077,-2,-5,-32,1,-3,-32,-2,0,-1,-149,-50,23,-33,-119,228,6,6,0,109,111,118,101,1,22269
248.250920057,-2,-5,-32,1,-3,-32,-2,0,-1,-149,-50,23,-33,-119,228,6,6,0,118,102,108,110,1,22270
248.26227808,-2,-4,-32,1,-3,-32,-1,1,0,-149,-50,23,-33,-119,228,6,6,0,118,102,108,110,1,22271
248.284233093,0,-2,-32,0,-3,-32,-1,1,0,99,69,109,-42,-132,5,6,6,0,104,116,109,109,1,22272
248.293178081,0,0,-32,-1,-4,-32,0,2,0,178,-9,231,-40,-54,13,6,6,0,104,116,109,109,1,22273
248.308057069,0,0,-32,-1,-4,-32,0,2,0,178,-9,231,-40,-54,13,6,6,0,108,110,109,111,1,22274
248.315960884,0,0,-32,-1,-3,-32,0,1,1,178,-9,231,-40,-54,13,6,6,0,108,110,109,111,1,22275
248.335941076,0,2,-32,0,-3,-32,0,0,0,63,-8,153,13,29,216,6,6,0,119,99,105,116,1,22276
248.347033023,1,1,-32,0,0,-32,1,-3,-1,-7,177,9,107,51,158,6,6,0,119,99,105,116,1,22277
248.357958078,1,1,-32,0,0,-32,1,-3,-1,-7,177,9,107,51,158,6,6,0,103,117,118,100,1,22278
248.369108915,1,1,-32,0,0,-32,0,-3,-1,-7,177,9,107,51,158,6,6,0,103,117,118,100,1,22279
248.38906598,1,1,-32,1,1,-32,0,-3,-1,-28,-6,101,134,38,173,6,6,0,114,105,106,113,1,22280
248.399946928,4,2,-32,2,2,-32,-2,0,0,64,138,172,48,51,248,6,6,0,100,120,105,113,1,22281
248.411006927,4,2,-32,2,2,-32,-2,0,0,64,138,172,48,51,248,6,6,0,100,120,111,107,1,22282
248.422097921,3,2,-32,1,2,-32,0,2,1,64,138,172,48,51,248,6,6,0,117,102,111,108,1,22283
248.442110061,4,4,-32,3,1,-32,0,2,1,106,44,225,-34,87,44,6,6,0,112,108,106,113,1,22284
248.452877044,4,4,-32,4,1,-32,2,1,1,66,11,19,-3,94,20,6,6,0,112,108,106,113,1,22285
248.464088916,4,4,-32,4,1,-32,2,1,1,66,11,19,-3,94,20,6,6,0,109,108,103,117,1,22286
248.474900007,4,4,-32,3,1,-32,2,-2,0,66,11,19,-3,94,20,6,6,0,109,108,103,117,1,22287
248.494920015,2,5,-32,4,2,-32,2,-2,0,88,-76,7,89,59,220,6,6,0,107,112,118,100,1,22288
248.505996942,2,4,-32,4,4,-32,0,-4,0,-69,-24,90,121,4,220,6,6,0,107,112,118,100,1,22289
248.517046928,2,4,-32,4,4,-32,0,-4,0,-69,-24,90,121,4,220,6,6,0,118,102,107,112,1,22290
248.52921009,2,4,-32,4,4,-32,-2,-1,0,-69,-24,90,121,4,220,6,6,0,118,102,107,112,1,22291
248.548116922,2,3,-32,3,5,-32,-1,2,0,-31,57,244,61,-40,23,6,6,0,101,118,109,109,1,22292
248.559761047,2,2,-32,2,4,-32,2,3,1,-28,-25,147,-24,-41,60,6,6,0,101,118,109,109,1,22293
248.570061922,2,2,-32,2,4,-32,2,3,1,-28,-25,147,-24,-41,60,6,6,0,113,105,114,106,1,22294
248.580955028,1,2,-32,2,4,-32,4,2,0,-28,-25,147,-24,-41,60,6,6,0,113,105,114,106,1,22295
248.601051092,2,5,-32,2,3,-32,4,2,0,77,26,73,-59,0,15,6,6,0,104,114,107,112,1,22296
248.612099885,4,5,-32,3,2,-32,3,0,0,30,90,175,-26,34,169,6,6,0,104,114,107,112,1,22297
248.624211072,4,5,-32,3,2,-32,3,0,0,30,90,175,-26,34,169,6,6,0,108,112,114,104,1,22298
248.634030103,4,5,-32,2,2,-32,1,0,0,30,90,175,-26,34,169,6,6,0,108,112,114,104,1,22299
248.654939889,2,5,-32,4,3,-32,1,0,0,1,-59,155,35,35,94,6,6,0,114,105,103,116,1,22300
248.665113925,3,5,-32,4,5,-32,1,0,0,50,66,99,61,25,111,6,6,0,114,105,103,116,1,22301
248.675992965,3,5,-32,4,5,-32,1,0,0,50,66,99,61,25,111,6,6,0,100,119,110,109,1,22302
248.687566995,3,5,-32,4,4,-32,1,0,0,50,66,99,61,25,111,6,6,0,100,119,110,109,1,22303
248.70797801,4,1,-32,4,5,-32,1,0,0,-164,60,147,31,21,197,6,6,0,119,98,106,114,1,22304
248.719009876,4,2,-32,4,4,-32,1,-2,0,33,17,31,-20,25,13,6,6,0,119,98,106,114,1,22305
248.730020999,4,2,-32,4,4,-32,1,-2,0,33,17,31,-20,25,13,6,6,0,110,107,112,110,1,22306
248.739963054,3,2,-32,4,4,-32,0,-2,-1,33,17,31,-20,25,13,6,6,0,110,107,112,110,1,22307
248.760972976,1,2,-32,5,3,-32,0,-2,-1,4,-100,140,-56,36,12,6,6,0,110,108,118,101,1,22308
248.772846937,0,2,-32,5,2,-32,-3,0,-2,14,-89,45,-47,18,221,6,6,0,110,108,118,101,1,22309
248.782923936,0,2,-32,5,2,-32,-3,0,-2,14,-89,45,-47,18,221,6,6,0,110,109,109,110,1,22310
248.793941021,0,2,-32,4,2,-32,-4,3,-1,14,-89,45,-47,18,221,6,6,0,110,109,109,110,1,22311
248.81397295,-2,1,-32,3,2,-32,-4,3,-1,-27,-190,242,-2,-49,198,6,6,0,101,117,113,107,1,22312
248.8249619,-2,0,-32,1,2,-32,0,5,0,-55,-27,39,24,-126,228,6,6,0,101,117,113,107,1,22313
248.840013027,-2,0,-32,1,2,-32,0,5,0,-55,-27,39,24,-126,228,6,6,0,107,113,111,107,1,22314
248.847063064,-2,0,-32,1,2,-32,3,4,0,-55,-27,39,24,-126,228,6,6,0,107,113,111,107,1,22315
248.8680799,0,0,-32,0,2,-32,3,4,0,6,136,211,-1,-140,17,6,6,0,113,107,105,113,1,22316
248.878007888,0,0,-32,-1,1,-32,5,1,0,-14,9,114,-40,-62,21,6,6,0,106,115,109,108,1,22317
248.889029026,0,0,-32,-1,1,-32,5,1,0,-14,9,114,-40,-62,21,6,6,0,106,115,109,108,1,22318
248.899879932,0,0,-32,-1,1,-32,3,0,0,-14,9,114,-40,-62,21,6,6,0,117,102,111,108,1,22319
248.92001605,-1,0,-32,0,0,-32,3,0,0,21,-109,176,-38,48,224,6,6,0,113,106,110,109,1,22320
248.932535886,-2,1,-32,1,0,-32,0,-1,1,14,-23,178,-1,72,156,6,6,0,113,106,110,109,1,22321
248.942044019,-2,1,-32,1,0,-32,0,-1,1,14,-23,178,-1,72,156,6,6,0,112,107,111,108,1,22322
248.953046083,-2,0,-32,1,0,-32,-2,0,1,14,-23,178,-1,72,156,6,6,0,112,107,111,108,1,22323
248.973072052,-2,0,-32,0,1,-32,-2,0,1,0,-22,77,23,-14,137,6,6,0,108,108,107,115,1,22324
248.98397088,-4,0,-32,-1,1,-32,-3,0,0,-95,-135,181,16,-94,190,6,6,0,108,108,107,115,1,22325
248.995272874,-4,0,-32,-1,1,-32,-3,0,0,-95,-135,181,16,-94,190,6,6,0,108,108,111,111,1,22326
249.005906105,-4,0,-32,0,1,-32,-3,0,-2,-95,-135,181,16,-94,190,6,6,0,108,108,111,111,1,22327
249.026987075,-2,0,-32,-2,1,-32,0,-1,-2,155,138,93,-9,-81,7,6,6,0,99,121,113,106,1,22328
249.038208007,-2,0,-32,-2,1,-32,3,0,-1,-75,-30,135,-17,-20,42,6,6,0,99,121,113,106,1,22329
249.049917936,-2,0,-32,-2,1,-32,3,0,-1,-75,-30,135,-17,-20,42,6,6,0,117,103,108,110,1,22330
249.060200929,-2,0,-32,-2,0,-32,5,1,1,-75,-30,135,-17,-20,42,6,6,0,117,103,108,110,1,22331
249.079962015,-3,0,-32,-1,1,-32,5,1,1,-29,-49,51,5,22,53,6,6,0,103,116,112,107,1,22332
249.091008901,-1,0,-32,-1,1,-32,4,2,1,-29,71,200,18,24,76,6,6,0,111,108,108,110,1,22333
249.102077007,-1,0,-32,-1,1,-32,4,2,1,-29,71,200,18,24,76,6,6,0,111,108,108,110,1,22334
249.113118886,-1,0,-32,-1,1,-32,1,1,0,-29,71,200,18,24,76,6,6,0,108,111,108,111,1,22335
249.133049011,-2,-1,-32,-1,0,-32,1,1,0,-15,-66,202,-14,0,73,6,6,0,108,111,109,110,1,22336
249.143897056,-2,-3,-32,-1,0,-32,0,0,0,-177,5,195,-54,-16,4,6,6,0,108,111,109,110,1,22337
249.155035018,-2,-3,-32,-1,0,-32,0,0,0,-177,5,195,-54,-16,4,6,6,0,106,113,111,108,1,22338
249.166002988,-2,-3,-32,-1,0,-32,1,0,0,-177,5,195,-54,-16,4,6,6,0,106,113,111,108,1,22339
249.186075925,-3,-7,-32,-1,-1,-32,1,0,0,-229,-108,131,-75,-16,177,6,6,0,111,107,111,110,1,22340
249.198601961,-3,-8,-32,-2,-4,-32,2,0,0,-86,23,181,-116,-25,150,6,6,0,111,107,111,110,1,22341
249.208236932,-3,-8,-32,-2,-4,-32,2,0,0,-86,23,181,-116,-25,150,6,6,0,109,107,111,110,1,22342
249.219480037,-2,-7,-32,-1,-3,-32,1,0,0,-86,23,181,-116,-25,150,6,6,0,109,107,111,110,1,22343
249.23901391,-1,-8,-32,-2,-6,-32,0,1,-1,-87,69,25,-173,-41,168,6,6,0,108,111,105,114,1,22344
249.250000953,1,-7,-32,-2,-9,-32,-1,0,-1,15,136,141,-168,-19,192,6,6,0,108,111,105,114,1,22345
249.263824939,1,-7,-32,-2,-9,-32,-1,0,-1,15,136,141,-168,-19,192,6,6,0,111,107,114,105,1,22346
249.27234888,1,-7,-32,-2,-8,-32,-1,0,0,15,136,141,-168,-19,192,6,6,0,111,107,114,105,1,22347
249.297877073,0,-6,-32,-1,-9,-32,0,-1,0,47,-43,41,-79,50,214,6,6,0,110,109,107,112,1,22348
249.303987979,2,-5,-32,0,-8,-32,0,-1,0,53,145,63,19,101,233,6,6,0,106,111,108,113,1,22349
249.314944982,2,-5,-32,0,-8,-32,0,-1,0,53,145,63,19,101,233,6,6,0,106,111,108,113,1,22350
249.325995922,2,-4,-32,0,-7,-32,0,-1,-1,53,145,63,19,101,233,6,6,0,108,110,115,105,1,22351
249.345983028,2,-1,-32,1,-6,-32,0,-1,-1,33,47,38,70,86,0,6,6,0,108,110,112,108,1,22352
249.360064983,2,2,-32,2,-4,-32,0,-1,-1,214,-22,119,108,49,31,6,6,0,108,110,112,108,1,22353
249.368246078,2,2,-32,2,-4,-32,0,-1,-1,214,-22,119,108,49,31,6,6,0,113,107,100,118,1,22354
249.378989934,1,2,-32,1,-4,-32,0,-1,0,214,-22,119,108,49,31,6,6,0,113,107,100,118,1,22355
249.399080991,0,3,-32,2,-2,-32,0,-1,0,87,-109,236,176,33,28,6,6,0,119,99,112,107,1,22356
249.409991979,-2,3,-32,2,0,-32,-1,-1,0,31,-193,30,222,-2,226,6,6,0,119,99,112,107,1,22357
249.421076059,-2,3,-32,2,0,-32,-1,-1,0,31,-193,30,222,-2,226,6,6,0,103,117,112,106,1,22358
249.432076931,-1,3,-32,2,0,-32,-3,-1,0,31,-193,30,222,-2,226,6,6,0,103,117,112,106,1,22359
249.45295906,-4,4,-32,0,3,-32,-2,0,0,118,-204,38,166,-92,187,6,6,0,106,114,104,114,1,22360
249.464272975,-3,2,-32,-2,4,-32,2,2,0,-88,30,221,55,-181,231,6,6,0,106,114,104,114,1,22361
249.474984884,-3,2,-32,-2,4,-32,2,2,0,-88,30,221,55,-181,231,6,6,0,115,104,118,101,1,22362
249.488548994,-3,2,-32,-2,3,-32,5,2,0,-88,30,221,55,-181,231,6,6,0,115,104,118,101,1,22363
249.50692296,0,2,-32,-3,3,-32,2,0,0,38,226,10,-3,-172,38,6,6,0,106,114,102,116,1,22364
249.517935991,0,0,-32,-4,3,-32,0,0,0,-91,-37,166,-4,-35,32,6,6,0,113,104,113,108,1,22365
249.53187704,0,0,-32,-4,3,-32,0,0,0,-91,-37,166,-4,-35,32,6,6,0,113,104,113,108,1,22366
249.540754079,0,0,-32,-3,2,-32,0,-1,0,-91,-37,166,-4,-35,32,6,6,0,108,112,100,118,1,22367
249.560043096,-3,2,-32,-2,2,-32,0,-1,0,87,-121,143,-7,114,225,6,6,0,109,110,104,114,1,22368
249.571304082,-4,2,-32,0,2,-32,0,-2,0,40,-155,60,-17,103,176,6,6,0,109,110,104,114,1,22369
249.581155061,-4,2,-32,0,2,-32,0,-2,0,40,-155,60,-17,103,176,6,6,0,108,112,113,105,1,22370
249.592027902,-4,2,-32,0,2,-32,0,-3,0,40,-155,60,-17,103,176,6,6,0,108,112,113,105,1,22371
249.613149881,-4,2,-32,-1,2,-32,0,-3,0,-9,17,25,4,-62,182,6,6,0,113,107,111,108,1,22372
249.624097108,-4,2,-32,-3,2,-32,0,-2,0,-7,-31,58,40,-175,241,6,6,0,113,107,111,108,1,22373
249.634995937,-4,2,-32,-3,2,-32,0,-2,0,-7,-31,58,40,-175,241,6,6,0,106,114,104,115,1,22374
249.646611928,-4,1,-32,-3,2,-32,0,0,1,-7,-31,58,40,-175,241,6,6,0,106,114,104,115,1,22375
249.667078971,-3,0,-32,-4,2,-32,0,0,0,-212,-16,19,29,-110,50,6,6,0,107,110,115,106,1,22376
249.677062034,-4,-2,-32,-4,1,-32,0,1,-1,-177,-125,84,-49,8,70,6,6,0,107,110,115,106,1,22377
249.687968015,-4,-2,-32,-4,1,-32,0,1,-1,-177,-125,84,-49,8,70,6,6,0,111,106,105,115,1,22378
249.699304103,-4,-2,-32,-3,1,-32,0,1,-3,-177,-125,84,-49,8,70,6,6,0,111,106,105,115,1,22379
249.719060897,-7,-4,-32,-3,0,-32,0,1,-3,-97,-137,166,-147,14,46,6,6,0,105,114,113,106,1,22380
249.730098009,-7,-5,-32,-4,-2,-32,0,0,-2,-124,-41,0,-193,-83,14,6,6,0,105,114,113,106,1,22381
249.740982055,-7,-5,-32,-4,-2,-32,0,0,-2,-124,-41,0,-193,-83,14,6,6,0,121,99,113,105,1,22382
249.751957893,-6,-5,-32,-4,-2,-32,0,0,0,-124,-41,0,-193,-83,14,6,6,0,121,99,113,105,1,22383
249.772034883,-5,-6,-32,-5,-4,-32,0,0,0,-86,113,86,-159,-142,246,6,6,0,101,120,105,112,1,22384
249.783042907,-7,-6,-32,-6,-5,-32,0,1,1,-70,-130,172,-96,-80,241,6,6,0,101,120,105,112,1,22385
249.794462919,-7,-6,-32,-6,-5,-32,0,1,1,-70,-130,172,-96,-80,241,6,6,0,110,111,117,101,1,22386
249.805113077,-6,-6,-32,-6,-5,-32,0,2,2,-70,-130,172,-96,-80,241,6,6,0,110,111,117,101,1,22387
249.826204061,-6,-6,-32,-5,-5,-32,2,1,1,-29,11,197,-67,19,0,6,6,0,119,99,101,119,1,22388
249.837011098,-3,-5,-32,-4,-6,-32,3,0,0,18,87,167,-63,36,250,6,6,0,119,99,101,119,1,22389
249.852174043,-3,-5,-32,-4,-6,-32,3,0,0,18,87,167,-63,36,250,6,6,0,101,119,107,112,1,22390
249.859030962,-3,-5,-32,-4,-5,-32,0,-4,0,18,87,167,-63,36,250,6,6,0,101,119,107,112,1,22391
249.880117893,-2,-3,-32,-3,-6,-32,-2,-5,0,146,103,38,-37,-3,204,6,6,0,113,104,115,106,1,22392
249.891004085,-1,1,-32,-3,-5,-32,-3,-3,0,49,30,138,35,13,175,6,6,0,113,104,115,106,1,22393
249.901963949,-1,1,-32,-3,-5,-32,-3,-3,0,49,30,138,35,13,175,6,6,0,114,104,107,113,1,22394
249.913033962,-1,1,-32,-3,-4,-32,-3,0,-1,49,30,138,35,13,175,6,6,0,114,104,107,113,1,22395
249.932910919,0,3,-32,-1,-2,-32,-3,0,-1,145,46,204,142,83,198,6,6,0,113,104,115,106,1,22396
249.944542884,-1,2,-32,0,0,-32,-4,1,-1,-85,-17,244,221,99,222,6,6,0,113,104,115,106,1,22397
249.955045938,-1,2,-32,0,0,-32,-4,1,-1,-85,-17,244,221,99,222,6,6,0,115,102,107,113,1,22398
249.96728897,-1,2,-32,0,0,-32,-6,1,-1,-85,-17,244,221,99,222,6,6,0,115,102,107,113,1,22399
249.98784089,0,0,-32,0,3,-32,-6,1,-1,-150,39,30,181,39,214,6,6,0,99,121,114,104,1,22400
250.000185012,-1,0,-32,0,3,-32,-5,1,-1,54,-47,37,12,-13,219,6,6,0,99,121,114,104,1,22401
250.008440017,-1,0,-32,0,3,-32,-5,1,-1,54,-47,37,12,-13,219,6,6,0,106,114,113,106,1,22402
250.02000904,-1,0,-32,0,3,-32,0,2,0,54,-47,37,12,-13,219,6,6,0,106,114,113,106,1,22403
250.039016008,0,1,-32,0,1,-32,0,2,0,16,59,233,-128,-13,7,6,6,0,109,112,103,114,1,22404
250.049943923,-1,2,-32,0,0,-32,5,2,1,95,-84,196,-94,6,38,6,6,0,109,112,103,114,1,22405
250.061191082,-1,2,-32,0,0,-32,5,2,1,95,-84,196,-94,6,38,6,6,0,116,105,108,109,1,22406
250.072247028,-1,2,-32,0,0,-32,5,1,2,95,-84,196,-94,6,38,6,6,0,116,105,108,109,1,22407
250.095838069,-1,1,-32,0,0,-32,0,-1,1,-88,25,33,42,5,12,6,6,0,125,92,105,116,1,22408
250.103337049,-1,2,-32,0,2,-32,-4,-3,0,135,-74,126,99,-16,228,6,6,0,125,92,105,116,1,22409
250.114001989,-1,2,-32,0,2,-32,-4,-3,0,135,-74,126,99,-16,228,6,6,0,94,124,112,108,1,22410
250.125029087,-1,2,-32,0,2,-32,-6,-3,-1,135,-74,126,99,-16,228,6,6,0,94,124,112,108,1,22411
250.145936012,0,4,-32,0,2,-32,-6,-3,-1,110,79,213,46,-31,246,6,6,0,119,98,108,113,1,22412
250.156939983,0,5,-32,-1,2,-32,-3,-2,-2,109,-32,193,20,-20,48,6,6,0,119,98,108,113,1,22413
250.168200016,0,5,-32,-1,2,-32,-3,-2,-2,109,-32,193,20,-20,48,6,6,0,106,114,111,107,1,22414
250.18316102,0,5,-32,-1,2,-32,0,-1,-1,109,-32,193,20,-20,48,6,6,0,106,114,111,107,1,22415
250.199951887,-1,2,-32,0,3,-32,0,-1,-1,-175,-64,150,74,4,44,6,6,0,111,106,108,112,1,22416
250.21291089,-3,0,-32,-1,4,-32,0,0,0,-79,-73,251,88,3,214,6,6,0,111,106,108,112,1,22417
250.221293926,-3,0,-32,-1,4,-32,0,0,0,-79,-73,251,88,3,214,6,6,0,119,96,107,117,1,22418
250.232177972,-2,0,-32,-1,4,-32,-2,-1,-1,-79,-73,251,88,3,214,6,6,0,119,96,107,117,1,22419
250.252043962,-4,2,-32,-2,4,-32,-2,-1,-1,141,-121,189,-13,-40,148,6,6,0,104,115,113,107,1,22420
250.263308048,-6,5,-32,-3,2,-32,-5,-2,-3,185,-140,144,-92,-96,170,6,6,0,104,115,113,107,1,22421
250.275013923,-6,5,-32,-3,2,-32,-5,-2,-3,185,-140,144,-92,-96,170,6,6,0,108,109,109,112,1,22422
250.285114049,-6,5,-32,-3,2,-32,-4,-2,-3,185,-140,144,-92,-96,170,6,6,0,108,109,109,112,1,22423
250.305998086,-3,5,-32,-5,1,-32,-4,-2,-3,37,112,173,-1,-118,212,6,6,0,101,114,115,108,1,22424
250.315990924,-3,4,-32,-6,4,-32,0,0,-2,-79,-16,21,152,-85,201,6,6,0,101,114,115,108,1,22425
250.327410936,-3,4,-32,-6,4,-32,0,0,-2,-79,-16,21,152,-85,201,6,6,0,100,116,115,107,1,22426
250.339967012,-3,4,-32,-5,4,-32,6,2,-2,-79,-16,21,152,-85,201,6,6,0,100,116,115,107,1,22427
250.358046054,-3,3,-32,-5,6,-32,8,3,-3,-50,-17,140,148,-10,181,6,6,0,116,104,104,114,1,22428
250.369000911,-5,2,-32,-4,5,-32,6,2,-2,-56,-162,170,-13,37,232,6,6,0,116,104,104,114,1,22429
250.380176067,-5,2,-32,-4,5,-32,6,2,-2,-56,-162,170,-13,37,232,6,6,0,109,112,108,109,1,22430
250.390979051,-5,2,-32,-4,5,-32,1,0,0,-56,-162,170,-13,37,232,6,6,0,109,112,108,109,1,22431
250.411494016,-6,0,-32,-4,3,-32,1,0,0,-119,-24,163,-131,-6,53,6,6,0,118,103,101,116,1,22432
250.421998977,-4,-3,-32,-5,2,-32,-2,-3,3,-149,46,116,-116,-88,35,6,6,0,114,107,111,105,1,22433
250.432986021,-4,-3,-32,-5,2,-32,-2,-3,3,-149,46,116,-116,-88,35,6,6,0,114,107,111,105,1,22434
250.444001913,-4,-3,-32,-4,1,-32,-4,-4,3,-149,46,116,-116,-88,35,6,6,0,107,115,105,110,1,22435
250.464310884,-5,-5,-32,-6,0,-32,-4,-4,3,-115,-55,29,-77,-96,179,6,6,0,111,112,106,109,1,22436
250.475006103,-7,-2,-32,-6,-2,-32,-4,-3,2,134,-161,116,-95,-26,113,6,6,0,111,112,106,109,1,22437
250.485975027,-7,-2,-32,-6,-2,-32,-4,-3,2,134,-161,116,-95,-26,113,6,6,0,110,106,111,111,1,22438
250.497293949,-7,-2,-32,-6,-2,-32,-2,-1,1,134,-161,116,-95,-26,113,6,6,0,110,106,111,111,1,22439
250.519918918,-6,-3,-32,-6,-4,-32,-2,-1,1,-42,37,176,-97,2,157,6,6,0,99,120,115,105,1,22440
250.527998924,-6,-4,-32,-6,-4,-32,1,0,0,-91,-45,86,-22,-52,217,6,6,0,99,120,115,105,1,22441
250.539136886,-6,-4,-32,-6,-4,-32,1,0,0,-91,-45,86,-22,-52,217,6,6,0,115,104,104,115,1,22442
250.552054882,-6,-3,-32,-6,-4,-32,3,1,-1,-91,-45,86,-22,-52,217,6,6,0,115,104,104,115,1,22443
250.570986986,-5,-5,-32,-7,-3,-32,3,0,-1,-121,5,205,33,-85,226,6,6,0,113,104,115,105,1,22444
250.584003925,-6,-6,-32,-7,-3,-32,0,0,-1,-110,-72,8,-27,-39,231,6,6,0,113,104,115,105,1,22445
250.59329009,-6,-6,-32,-7,-3,-32,0,0,-1,-110,-72,8,-27,-39,231,6,6,0,105,116,110,106,1,22446
250.604055881,-5,-6,-32,-7,-3,-32,-2,2,0,-110,-72,8,-27,-39,231,6,6,0,105,116,110,106,1,22447
250.624285936,-5,-9,-32,-6,-5,-32,-2,2,0,-250,19,199,-137,7,1,6,6,0,111,109,110,108,1,22448
250.635040044,-7,-10,-32,-6,-7,-32,-1,3,0,-102,-153,205,-186,-10,1,6,6,0,106,114,111,108,1,22449
250.645931959,-7,-10,-32,-6,-7,-32,-1,3,0,-102,-153,205,-186,-10,1,6,6,0,106,114,111,108,1,22450
250.657245874,-6,-9,-32,-6,-6,-32,1,2,1,-102,-153,205,-186,-10,1,6,6,0,111,107,105,115,1,22451
250.677033901,-6,-11,-32,-6,-9,-32,1,2,1,-140,17,16,-173,-55,223,6,6,0,110,109,108,112,1,22452
250.687279939,-7,-11,-32,-7,-11,-32,2,1,1,-65,-117,42,-146,-76,206,6,6,0,110,109,108,112,1,22453
250.697966098,-7,-11,-32,-7,-11,-32,2,1,1,-65,-117,42,-146,-76,206,6,6,0,117,99,113,108,1,22454
250.7090981,-7,-10,-32,-7,-10,-32,0,0,0,-65,-117,42,-146,-76,206,6,6,0,117,99,113,108,1,22455
250.728947877,-9,-11,-32,-8,-12,-32,0,0,0,-17,-121,166,-116,-71,236,6,6,0,103,115,103,117,1,22456
250.740046024,-6,-11,-32,-8,-12,-32,-3,-2,-2,-43,113,159,-73,-67,10,6,6,0,103,115,103,117,1,22457
250.751066923,-6,-11,-32,-8,-12,-32,-3,-2,-2,-43,113,159,-73,-67,10,6,6,0,111,107,116,104,1,22458
250.761931896,-6,-10,-32,-7,-11,-32,-3,-1,-2,-43,113,159,-73,-67,10,6,6,0,111,107,116,104,1,22459
250.783128976,-4,-10,-32,-8,-11,-32,0,0,0,-52,45,180,-34,-56,235,6,6,0,109,109,111,109,1,22460
250.794034957,-1,-10,-32,-7,-11,-32,1,1,0,-33,148,206,-23,1,168,6,6,0,109,109,111,109,1,22461
250.805043935,-1,-10,-32,-7,-11,-32,1,1,0,-33,148,206,-23,1,168,6,6,0,103,114,102,118,1,22462
250.815958976,-1,-10,-32,-7,-10,-32,1,1,0,-33,148,206,-23,1,168,6,6,0,103,114,102,118,1,22463
250.836222887,-1,-8,-32,-4,-11,-32,1,1,0,100,32,220,-33,88,146,6,6,0,112,106,114,106,1,22464
250.847093105,-1,-7,-32,-2,-10,-32,1,-1,-1,20,-17,154,-22,125,186,6,6,0,106,110,108,114,1,22465
250.858051061,-1,-7,-32,-2,-10,-32,1,-1,-1,20,-17,154,-22,125,186,6,6,0,106,110,108,114,1,22466
250.86909604,-1,-6,-32,-2,-9,-32,1,-3,-2,20,-17,154,-22,125,186,6,6,0,121,98,116,103,1,22467
250.889125108,-3,-7,-32,0,-9,-32,1,-3,-2,-87,-156,242,22,70,222,6,6,0,116,104,113,106,1,22468
250.900238037,-3,-6,-32,-1,-8,-32,0,-1,-2,32,-24,37,43,-32,216,6,6,0,116,104,113,106,1,22469
250.911048889,-3,-6,-32,-1,-8,-32,0,-1,-2,32,-24,37,43,-32,216,6,6,0,116,104,109,109,1,22470
250.922230958,-3,-6,-32,-1,-7,-32,-5,2,0,32,-24,37,43,-32,216,6,6,0,116,104,109,109,1,22471
250.941967964,-5,-6,-32,-3,-7,-32,-5,2,0,-25,-84,170,3,-106,211,6,6,0,104,116,108,110,1,22472
250.95326209,-6,-8,-32,-4,-7,-32,-7,3,0,-107,-84,132,-43,-107,229,6,6,0,104,116,108,110,1,22473
250.963943004,-6,-8,-32,-4,-7,-32,-7,3,0,-107,-84,132,-43,-107,229,6,6,0,105,114,108,110,1,22474
250.978441,-6,-8,-32,-4,-7,-32,-4,1,1,-107,-84,132,-43,-107,229,6,6,0,105,114,108,110,1,22475
251.000091075,-5,-11,-32,-5,-7,-32,3,-2,0,-139,22,119,-53,-67,222,6,6,0,107,112,107,112,1,22476
251.007673025,-6,-8,-32,-5,-8,-32,8,-4,0,111,-139,244,-60,-41,164,6,6,0,107,112,107,112,1,22477
251.01848793,-6,-8,-32,-5,-8,-32,8,-4,0,111,-139,244,-60,-41,164,6,6,0,107,113,111,108,1,22478
251.028970956,-6,-8,-32,-5,-7,-32,6,-3,0,111,-139,244,-60,-41,164,6,6,0,107,113,111,108,1,22479
251.048986911,-6,-8,-32,-6,-9,-32,6,-3,0,-4,-39,50,-68,-46,128,6,6,0,112,107,111,108,1,22480
251.060265064,-8,-7,-32,-7,-9,-32,2,0,0,38,-137,218,-27,-67,184,6,6,0,110,108,108,112,1,22481
251.070869922,-8,-7,-32,-7,-9,-32,2,0,0,38,-137,218,-27,-67,184,6,6,0,110,108,108,112,1,22482
251.082014083,-8,-6,-32,-6,-8,-32,0,1,0,38,-137,218,-27,-67,184,6,6,0,112,107,109,110,1,22483
251.10199809,-6,-7,-32,-8,-8,-32,0,1,0,-94,126,244,39,-83,18,6,6,0,111,108,109,110,1,22484
251.113090038,-5,-7,-32,-8,-7,-32,-1,0,0,-7,28,28,41,-61,42,6,6,0,111,108,109,110,1,22485
251.124067068,-5,-7,-32,-8,-7,-32,-1,0,0,-7,28,28,41,-61,42,6,6,0,108,111,104,114,1,22486
251.135134935,-5,-7,-32,-7,-6,-32,-1,-1,0,-7,28,28,41,-61,42,6,6,0,108,111,104,114,1,22487
251.154977083,-5,-8,-32,-7,-7,-32,-1,-1,0,-61,-20,218,-26,7,255,6,6,0,112,106,115,105,1,22488
251.168148994,-6,-6,-32,-6,-7,-32,-1,-2,0,108,-118,39,-70,57,229,6,6,0,112,106,115,105,1,22489
251.177253961,-6,-6,-32,-6,-7,-32,-1,-2,0,108,-118,39,-70,57,229,6,6,0,118,101,116,103,1,22490
251.188778877,-6,-5,-32,-5,-7,-32,-2,0,0,108,-118,39,-70,57,229,6,6,0,118,101,116,103,1,22491
251.209064006,-5,-4,-32,-5,-7,-32,-3,4,0,46,-9,11,-31,19,249,6,6,0,102,118,110,108,1,22492
251.219956874,-3,-2,-32,-5,-5,-32,-3,6,0,91,111,230,48,-61,19,6,6,0,102,118,110,108,1,22493
251.231112003,-3,-2,-32,-5,-5,-32,-3,6,0,91,111,230,48,-61,19,6,6,0,108,110,111,109,1,22494
251.242060899,-3,-2,-32,-5,-5,-32,0,3,0,91,111,230,48,-61,19,6,6,0,108,110,111,109,1,22495
251.262202024,-2,-3,-32,-5,-3,-32,4,0,0,-64,22,162,92,-63,14,6,6,0,104,114,102,117,1,22496
251.272994041,-1,-6,-32,-4,-2,-32,5,-1,0,-156,60,232,59,29,235,6,6,0,107,112,108,111,1,22497
251.284003973,-1,-6,-32,-4,-2,-32,5,-1,0,-156,60,232,59,29,235,6,6,0,107,112,108,111,1,22498
251.294995069,-1,-5,-32,-4,-2,-32,4,-3,0,-156,60,232,59,29,235,6,6,0,107,112,108,110,1,22499
251.316150903,0,-7,-32,-2,-3,-32,4,-3,0,-116,100,177,-34,102,195,6,6,0,107,112,108,111,1,22500
251.326024055,1,-5,-32,0,-4,-32,3,-4,0,129,92,201,-120,91,182,6,6,0,107,112,108,111,1,22501
251.336932897,1,-5,-32,0,-4,-32,3,-4,0,129,92,201,-120,91,182,6,6,0,112,108,116,103,1,22502
251.347985982,1,-4,-32,0,-4,-32,3,-2,0,129,92,201,-120,91,182,6,6,0,112,108,116,103,1,22503
251.368405103,2,-8,-32,0,-6,-32,3,-2,0,-107,21,82,-115,61,190,6,6,0,118,99,105,116,1,22504
251.379240036,0,-8,-32,1,-6,-32,0,0,0,-42,-96,134,-28,59,180,6,6,0,118,99,105,116,1,22505
251.390177011,0,-8,-32,1,-6,-32,0,0,0,-42,-96,134,-28,59,180,6,6,0,107,110,104,117,1,22506
251.400988101,0,-8,-32,1,-6,-32,-4,0,0,-42,-96,134,-28,59,180,6,6,0,107,110,104,117,1,22507
251.422081947,0,-11,-32,2,-5,-32,-7,-2,-1,-232,61,122,17,40,138,6,6,0,103,117,110,107,1,22508
251.435981988,-1,-12,-32,1,-7,-32,-6,-4,0,-91,-166,3,-57,-17,108,6,6,0,103,117,110,107,1,22509
251.44465208,-1,-12,-32,1,-7,-32,-6,-4,0,-91,-166,3,-57,-17,108,6,6,0,121,99,108,109,1,22510
251.455286026,-1,-11,-32,1,-6,-32,-3,-2,1,-91,-166,3,-57,-17,108,6,6,0,121,99,108,109,1,22511
251.475053072,-2,-11,-32,0,-9,-32,-3,-2,1,-38,-71,71,-163,-66,138,6,6,0,101,120,113,104,1,22512
251.486006021,-2,-10,-32,0,-11,-32,0,1,3,19,-49,9,-166,-84,226,6,6,0,101,120,113,104,1,22513
251.499931097,-2,-10,-32,0,-11,-32,0,1,3,19,-49,9,-166,-84,226,6,6,0,108,108,113,108,1,22514
251.508079052,-2,-9,-32,0,-10,-32,1,2,2,19,-49,9,-166,-84,226,6,6,0,108,108,113,108,1,22515
251.530838966,-1,-9,-32,-1,-11,-32,1,2,2,51,78,67,-61,-80,51,6,6,0,105,115,107,111,1,22516
251.539166927,-3,-5,-32,-2,-10,-32,3,2,0,149,-85,164,45,-49,68,6,6,0,105,115,107,111,1,22517
251.54998207,-3,-5,-32,-2,-10,-32,3,2,0,149,-85,164,45,-49,68,6,6,0,109,110,110,109,1,22518
251.561373949,-2,-5,-32,-2,-9,-32,3,1,-1,149,-85,164,45,-49,68,6,6,0,109,110,110,109,1,22519
251.582189083,-1,-4,-32,-1,-7,-32,2,0,0,7,40,203,88,0,21,6,6,0,114,103,108,113,1,22520
251.592972993,-1,-3,-32,-1,-5,-32,-1,-2,0,48,0,3,85,20,216,6,6,0,114,103,108,113,1,22521
251.60413599,-1,-3,-32,-1,-5,-32,-1,-2,0,48,0,3,85,20,216,6,6,0,102,117,110,109,1,22522
251.615150928,-1,-3,-32,-1,-5,-32,-3,-2,0,48,0,3,85,20,216,6,6,0,102,117,110,109,1,22523
251.635017871,-2,-5,-32,-1,-3,-32,-3,-2,0,-99,-89,241,59,0,191,6,6,0,116,102,108,112,1,22524
251.646073102,-3,-2,-32,-1,-3,-32,-1,-1,-1,71,-11,98,14,-24,212,6,6,0,116,102,108,112,1,22525
251.656994104,-3,-2,-32,-1,-3,-32,-1,-1,-1,71,-11,98,14,-24,212,6,6,0,109,112,111,106,1,22526
251.667987108,-2,-2,-32,-1,-3,-32,0,0,0,71,-11,98,14,-24,212,6,6,0,109,112,111,106,1,22527
251.688967943,-7,-2,-32,-2,-3,-32,0,0,0,-33,-120,43,-26,-41,222,6,6,0,106,115,111,106,1,22528
251.700119018,-5,-4,-32,-3,-3,-32,-1,0,1,-119,84,18,-29,-55,167,6,6,0,106,115,111,106,1,22529
251.716175079,-5,-4,-32,-3,-3,-32,-1,0,1,-119,84,18,-29,-55,167,6,6,0,121,96,110,111,1,22530
251.721942901,-5,-3,-32,-3,-3,-32,-1,1,1,-119,84,18,-29,-55,167,6,6,0,121,96,110,111,1,22531
251.741966009,-4,-8,-32,-4,-4,-32,-1,1,1,-37,47,161,-29,-47,102,6,6,0,100,120,112,105,1,22532
251.753150939,-5,-8,-32,-4,-6,-32,-1,1,0,-33,-29,169,-92,-1,124,6,6,0,113,106,104,115,1,22533
251.764092922,-5,-8,-32,-4,-6,-32,-1,1,0,-33,-29,169,-92,-1,124,6,6,0,113,106,104,115,1,22534
251.775130033,-4,-7,-32,-4,-6,-32,0,1,0,-33,-29,169,-92,-1,124,6,6,0,104,115,111,108,1,22535
251.794987916,-3,-8,-32,-3,-9,-32,0,1,0,-64,135,110,-180,49,205,6,6,0,107,112,109,110,1,22536
251.806031942,-5,-9,-32,-2,-10,-32,0,0,0,-145,-168,231,-179,55,255,6,6,0,107,112,109,110,1,22537
251.820163011,-5,-9,-32,-2,-10,-32,0,0,0,-145,-168,231,-179,55,255,6,6,0,107,113,110,108,1,22538
251.828022003,-4,-9,-32,-2,-10,-32,3,-1,0,-145,-168,231,-179,55,255,6,6,0,107,113,110,108,1,22539
251.848062992,-2,-11,-32,-2,-11,-32,3,-1,0,-186,149,177,-96,19,7,6,6,0,116,104,112,107,1,22540
251.858952999,-2,-13,-32,-1,-11,-32,3,0,0,-144,-15,212,-69,-10,0,6,6,0,116,104,112,107,1,22541
251.869946003,-2,-13,-32,-1,-11,-32,3,0,0,-144,-15,212,-69,-10,0,6,6,0,105,115,112,106,1,22542
251.881143093,-2,-12,-32,-1,-10,-32,1,2,0,-144,-15,212,-69,-10,0,6,6,0,105,115,112,106,1,22543
251.901004076,-3,-12,-32,-1,-12,-32,-2,3,0,-116,-45,48,-138,-1,228,6,6,0,113,105,102,117,1,22544
251.9122231,-4,-14,-32,-1,-14,-32,-4,1,0,-161,-129,213,-192,16,207,6,6,0,113,105,102,117,1,22545
251.923808097,-4,-14,-32,-1,-14,-32,-4,1,0,-161,-129,213,-192,16,207,6,6,0,113,104,114,107,1,22546
251.934047937,-4,-13,-32,-1,-13,-32,-4,-1,-2,-161,-129,213,-192,16,207,6,6,0,113,104,114,107,1,22547
251.954096078,-4,-14,-32,-1,-15,-32,-4,-1,-2,-56,-24,193,-161,-16,227,6,6,0,105,114,101,118,1,22548
251.964931964,-1,-12,-32,-2,-16,-32,-3,-3,-2,85,177,193,-98,-74,250,6,6,0,105,114,101,118,1,22549
251.975975036,-1,-12,-32,-2,-16,-32,-3,-3,-2,85,177,193,-98,-74,250,6,6,0,107,111,108,112,1,22550
251.986999034,-1,-11,-32,-2,-15,-32,0,-3,-1,85,177,193,-98,-74,250,6,6,0,107,111,108,112,1,22551
252.007157087,0,-10,-32,-3,-15,-32,0,-3,-1,36,50,188,-43,-53,225,6,6,0,109,112,109,108,1,22552
252.020157098,0,-10,-32,-1,-14,-32,2,-3,0,-26,77,18,14,59,183,6,6,0,109,112,109,108,1,22553
252.029021978,0,-10,-32,-1,-14,-32,2,-3,0,-26,77,18,14,59,183,6,6,0,109,112,106,111,1,22554
252.040599107,0,-9,-32,-1,-13,-32,3,-3,1,-26,77,18,14,59,183,6,6,0,109,112,106,111,1,22555
252.06005907,1,-12,-32,0,-12,-32,3,-3,1,-129,66,151,48,141,184,6,6,0,108,111,112,107,1,22556
252.071053981,1,-9,-32,2,-11,-32,2,-1,1,176,-26,27,13,109,219,6,6,0,108,111,112,107,1,22557
252.081923961,1,-9,-32,2,-11,-32,2,-1,1,176,-26,27,13,109,219,6,6,0,110,110,108,109,1,22558
252.093022108,1,-8,-32,2,-10,-32,1,0,1,176,-26,27,13,109,219,6,6,0,110,110,108,109,1,22559
252.113965988,1,-5,-32,2,-10,-32,0,1,0,136,48,220,-32,29,238,6,6,0,109,108,114,108,1,22560
252.125151872,0,-2,-32,2,-9,-32,-3,2,0,188,-111,2,21,-9,234,6,6,0,109,108,114,108,1,22561
252.136339902,0,-2,-32,2,-9,-32,-3,2,0,188,-111,2,21,-9,234,6,6,0,114,105,111,109,1,22562
252.146944046,0,-2,-32,2,-8,-32,-4,3,-1,188,-111,2,21,-9,234,6,6,0,114,105,111,109,1,22563
252.166940927,0,0,-32,2,-6,-32,-4,3,-1,127,-3,144,151,-13,232,6,6,0,105,111,110,112,1,22564
252.178095102,0,3,-32,1,-2,-32,-2,2,-2,217,2,210,221,-25,227,6,6,0,114,103,114,107,1,22565
252.189079046,0,3,-32,1,-2,-32,-2,2,-2,217,2,210,221,-25,227,6,6,0,114,103,114,107,1,22566
252.203186988,0,3,-32,1,-2,-32,0,1,-2,217,2,210,221,-25,227,6,6,0,105,115,107,112,1,22567
252.220242977,2,4,-32,0,0,-32,0,1,-2,75,173,240,187,-32,205,6,6,0,108,111,109,110,1,22568
252.231128931,2,6,-32,1,2,-32,0,0,-1,83,-17,121,132,10,185,6,6,0,108,111,109,110,1,22569
252.242258071,2,6,-32,1,2,-32,0,0,-1,83,-17,121,132,10,185,6,6,0,107,111,111,109,1,22570
252.253185033,1,5,-32,1,2,-32,0,0,0,83,-17,121,132,10,185,6,6,0,107,111,111,109,1,22571
252.272996902,2,9,-32,2,4,-32,0,0,0,196,68,159,111,78,186,6,6,0,108,113,108,109,1,22572
252.284494876,2,10,-32,3,6,-32,2,0,0,108,-3,210,113,94,183,6,6,0,108,113,108,109,1,22573
252.295135974,2,10,-32,3,6,-32,2,0,0,108,-3,210,113,94,183,6,6,0,108,113,106,111,1,22574
252.306130886,2,9,-32,3,5,-32,3,0,1,108,-3,210,113,94,183,6,6,0,108,113,106,111,1,22575
252.326956987,1,13,-32,4,8,-32,3,-2,2,56,-46,192,134,41,166,6,6,0,118,100,115,105,1,22576
252.338142871,1,10,-32,3,10,-32,0,-2,1,-51,4,124,170,-15,167,6,6,0,118,100,115,105,1,22577
252.34907794,1,10,-32,3,10,-32,0,-2,1,-51,4,124,170,-15,167,6,6,0,107,111,104,116,1,22578
252.359987974,1,9,-32,3,9,-32,-2,-1,0,-51,4,124,170,-15,167,6,6,0,107,111,104,116,1,22579
252.379965066,0,7,-32,2,12,-32,-2,-1,0,-146,-78,251,170,-34,184,6,6,0,116,102,115,105,1,22580
252.391139984,-1,7,-32,1,13,-32,-4,0,-1,-6,-130,3,72,-35,193,6,6,0,116,102,115,105,1,22581
252.401967048,-1,7,-32,1,13,-32,-4,0,-1,-6,-130,3,72,-35,193,6,6,0,115,104,109,110,1,22582
252.418171882,-1,6,-32,1,12,-32,-5,1,-1,-6,-130,3,72,-35,193,6,6,0,115,104,109,110,1,22583
252.43347001,-3,8,-32,0,11,-32,-5,1,-1,155,-196,241,-68,-60,206,6,6,0,105,112,116,104,1,22584
252.443959951,-4,8,-32,-1,9,-32,-4,2,0,52,-66,28,-91,-117,240,6,6,0,105,112,116,104,1,22585
252.455080986,-4,8,-32,-1,9,-32,-4,2,0,52,-66,28,-91,-117,240,6,6,0,111,106,113,108,1,22586
252.466232061,-4,8,-32,-1,8,-32,-3,3,0,52,-66,28,-91,-117,240,6,6,0,111,106,113,108,1,22587
252.486161947,-3,7,-32,-3,8,-32,0,3,-1,4,5,32,35,-156,18,6,6,0,103,115,106,115,1,22588
252.497112035,-6,7,-32,-4,9,-32,2,1,-1,40,-224,10,133,-126,26,6,6,0,103,115,106,115,1,22589
252.508022069,-6,7,-32,-4,9,-32,2,1,-1,40,-224,10,133,-126,26,6,6,0,110,110,108,110,1,22590
252.519026994,-5,6,-32,-4,8,-32,3,-2,0,40,-224,10,133,-126,26,6,6,0,110,110,108,110,1,22591
252.539975881,-6,7,-32,-4,9,-32,2,-3,0,60,-53,167,87,-68,18,6,6,0,121,98,115,105,1,22592
252.551032066,-3,9,-32,-5,8,-32,-1,-1,-1,87,105,122,3,-62,250,6,6,0,121,98,115,105,1,22593
252.561964035,-3,9,-32,-5,8,-32,-1,-1,-1,87,105,122,3,-62,250,6,6,0,101,121,108,109,1,22594
252.573021888,-3,8,-32,-5,8,-32,-4,0,0,87,105,122,3,-62,250,6,6,0,101,121,108,109,1,22595
252.59324789,-1,8,-32,-6,8,-32,-4,0,0,8,68,180,11,-71,198,6,6,0,119,99,110,110,1,22596
252.608012914,-5,9,-32,-6,9,-32,-4,2,0,44,-135,81,69,-11,141,6,6,0,119,99,110,110,1,22597
252.615195989,-5,9,-32,-6,9,-32,-4,2,0,44,-135,81,69,-11,141,6,6,0,101,116,106,115,1,22598
252.626123905,-5,8,-32,-5,8,-32,0,1,0,44,-135,81,69,-11,141,6,6,0,101,116,106,115,1,22599
252.64609003,-4,9,-32,-4,11,-32,0,1,0,57,32,240,77,58,120,6,6,0,112,106,113,107,1,22600
252.656991004,-5,8,-32,-3,11,-32,0,-1,0,-18,-68,244,36,27,144,6,6,0,112,106,113,107,1,22601
252.668441057,-5,8,-32,-3,11,-32,0,-1,0,-18,-68,244,36,27,144,6,6,0,119,99,107,113,1,22602
252.678916931,-5,7,-32,-3,10,-32,-1,-2,-2,-18,-68,244,36,27,144,6,6,0,119,99,107,113,1,22603
252.700237989,-2,6,-32,-3,9,-32,-3,0,-1,-53,124,136,9,-52,191,6,6,0,101,118,115,104,1,22604
252.713284015,0,7,-32,-4,9,-32,-1,2,1,58,101,186,1,-45,221,6,6,0,0,0,0,0,0,22605
252.728146076,0,7,-32,-4,9,-32,-1,2,1,58,101,186,1,-45,221,6,6,0,0,0,0,0,0,22606
252.735269069,0,6,-32,-3,8,-32,3,4,2,58,101,186,1,-45,221,6,6,0,0,0,0,0,0,22607
252.746078968,2,5,-32,-2,8,-32,3,4,2,-57,138,4,-8,55,209,6,6,0,0,0,0,0,0,22608
252.756917953,2,5,-32,-2,7,-32,7,3,2,-57,138,4,-8,55,209,6,6,0,0,0,0,0,0,22609
252.768234014,3,5,-32,0,7,-32,7,3,2,35,79,235,-14,142,185,6,6,0,0,0,0,0,0,22610
252.778949022,3,5,-32,0,7,-32,8,1,1,35,79,235,-14,142,185,6,6,0,0,0,0,0,0,22611
252.790016889,2,5,-32,0,6,-32,6,-1,1,35,79,235,-14,142,185,6,6,0,0,0,0,0,0,22612
252.801110982,0,6,-32,2,6,-32,5,-2,1,70,-101,192,-2,139,201,6,6,0,0,0,0,0,0,22613
252.815229892,0,6,-32,2,6,-32,5,-2,1,70,-101,192,-2,139,201,6,6,0,0,0,0,0,0,22614
252.82319498,0,5,-32,2,5,-32,2,-1,0,70,-101,192,-2,139,201,6,6,0,0,0,0,0,0,22615
252.834044933,0,6,-32,3,5,-32,0,1,0,78,9,200,22,62,238,6,6,0,0,0,0,0,0,22616
252.847157955,0,6,-32,2,5,-32,-3,3,0,78,9,200,22,62,238,6,6,0,0,0,0,0,0,22617
252.856187105,1,6,-32,2,6,-32,-3,3,0,12,42,5,53,-23,237,6,6,0,0,0,0,0,0,22618
252.866988897,1,6,-32,2,5,-32,-2,3,1,12,42,5,53,-23,237,6,6,0,0,0,0,0,0,22619
252.878146886,1,5,-32,2,5,-32,0,1,1,12,42,5,53,-23,237,6,6,0,0,0,0,0,0,22620
252.88894701,1,3,-32,1,6,-32,1,-1,0,-111,43,242,65,-45,210,6,6,0,0,0,0,0,0,22621
252.90013504,1,3,-32,1,6,-32,1,-1,0,-111,43,242,65,-45,210,6,6,0,0,0,0,0,0,22622
252.91127491,1,3,-32,1,5,-32,3,-1,0,-111,43,242,65,-45,210,6,6,0,0,0,0,0,0,22623
252.923136949,2,2,-32,1,5,-32,3,0,0,-30,31,252,24,6,215,6,6,0,0,0,0,0,0,22624
252.934029102,1,2,-32,1,5,-32,1,0,0,-30,31,252,24,6,215,6,6,0,0,0,0,0,0,22625
252.947868108,2,2,-32,2,4,-32,1,0,0,1,13,243,-48,61,249,6,6,0,0,0,0,0,0,22626
252.955965042,2,2,-32,1,4,-32,-1,0,0,1,13,243,-48,61,249,6,6,0,0,0,0,0,0,22627
252.967056036,1,1,-32,2,2,-32,-1,0,-1,-9,-28,244,-78,55,9,6,6,0,0,0,0,0,0,22628
252.978029966,1,1,-32,2,2,-32,1,1,0,-9,-28,244,-78,55,9,6,6,0,0,0,0,0,0,22629
