TiempoEjecucion,AnguloPitch,AnguloRoll,AnguloYaw,G_Pitch,G_Roll,G_Yaw,G_Pitch_filtrada,G_Roll_filtrada,G_Yaw_filtrada,Ax,Ay,Az,Ax_filtrada,Ay_filtrada,Az_filtrada,posZ,posZ_filtrada,velZ,motorDelantero,motorTrasero,motorDerecho,motorIzquierdo,EstadoEncendido,MensajesRecibidos
50.572463035,3,9,-1,6,11,-1,-1,-2,0,-85,-180,246,-85,-180,246,7,5,0,172,163,168,166,1,4098
50.593618154,3,8,-1,5,10,-1,0,-1,0,-85,-180,246,-85,-180,246,7,5,0,161,174,166,168,1,4099
50.619738102,0,7,-1,4,10,-1,1,1,0,-51,-190,237,-51,-190,237,7,5,0,173,162,165,170,1,4100
50.632837057,-1,10,-1,2,11,-1,1,1,0,223,-107,205,223,-107,205,7,5,0,162,173,167,168,1,4101
50.649648189,-1,9,-1,2,10,-1,0,0,0,223,-107,205,223,-107,205,7,5,0,171,163,173,163,1,4102
50.680063009,0,7,-1,1,11,-1,0,-2,0,-34,21,110,-34,21,110,7,5,0,167,169,168,167,1,4103
50.69295907,0,8,-1,0,11,-1,0,0,0,127,106,77,127,106,77,7,5,0,166,168,171,165,1,4104
50.707108974,0,7,-1,0,10,-1,0,3,0,127,106,77,127,106,77,7,5,0,169,168,166,166,1,4105
50.744397163,3,7,-1,1,11,-1,0,4,0,5,245,92,5,245,92,7,5,0,173,164,163,170,1,4106
50.754328012,6,9,-1,3,11,-1,0,1,1,165,195,102,165,195,102,7,5,0,163,171,165,170,1,4107
50.76741004,5,8,-1,3,10,-1,-1,-1,2,165,195,102,165,195,102,7,5,0,173,161,170,166,1,4108
50.800001144,8,8,-1,5,11,-1,-1,-2,1,57,217,220,57,217,220,7,5,0,162,173,168,167,1,4109
50.814018011,9,6,-1,6,10,-1,-1,-1,0,-138,187,81,-138,187,81,7,5,0,176,158,169,167,1,4110
50.836883068,8,6,-1,6,9,-1,-1,0,-1,-138,187,81,-138,187,81,7,5,0,165,172,169,164,1,4111
50.859975099,10,5,-1,7,9,-1,-1,2,-1,-92,168,55,-92,168,55,7,5,0,172,162,170,167,1,4112
50.87501812,10,4,-1,9,8,-1,-2,2,0,-2,45,179,-2,45,179,7,5,0,160,176,164,170,1,4113
50.888158083,9,4,-1,8,7,-1,-1,1,0,-2,45,179,-2,45,179,7,5,0,172,161,169,168,1,4114
50.924594164,7,3,-1,9,7,-1,0,0,0,0,-73,183,0,-73,183,7,5,0,167,171,166,166,1,4115
50.935403108,5,4,-1,8,6,-1,1,0,0,49,-93,248,49,-93,248,7,5,0,165,170,163,173,1,4116
50.948961019,5,4,-1,8,6,-1,0,-1,0,49,-93,248,49,-93,248,7,5,0,172,166,171,162,1,4117
50.981134176,6,5,-1,8,6,-1,0,0,1,131,120,42,131,120,42,7,5,0,167,167,174,161,1,4118
50.996015072,10,5,-1,9,6,-1,0,0,2,53,242,123,53,242,123,7,5,0,173,161,172,164,1,4119
51.010925054,9,5,-1,8,6,-1,-1,4,0,53,242,123,53,242,123,7,5,0,165,167,161,177,1,4120
51.041995048,11,5,-1,10,6,-1,-3,4,-1,66,255,21,66,255,21,7,5,0,171,166,164,169,1,4121
51.056068182,12,4,-1,11,6,-1,-3,0,-2,-103,129,106,-103,129,106,7,5,0,161,171,166,172,1,4122
51.070688963,11,3,-1,11,5,-1,-1,-4,-1,-103,129,106,-103,129,106,7,5,0,164,170,176,160,1,4123
51.102055073,11,4,-1,11,5,-1,1,-4,0,83,119,98,83,119,98,7,5,0,172,163,169,166,1,4124
51.116914034,13,5,-1,12,6,-1,2,0,-1,99,196,26,99,196,26,7,5,0,167,165,171,167,1,4125
51.131860018,12,5,-1,12,5,-1,1,5,-2,99,196,26,99,196,26,7,5,0,171,164,167,168,1,4126
51.156919956,13,6,-1,13,6,-1,1,5,-2,101,126,14,101,126,14,7,5,0,170,165,168,167,1,4127
51.170469999,14,7,-1,14,7,-1,-2,5,-1,114,74,202,114,74,202,7,5,0,168,167,168,167,1,4128
51.17893815,13,7,-1,13,6,-1,-4,0,0,114,74,202,114,74,202,7,5,0,167,169,163,171,1,4129
51.211963177,13,7,-1,14,7,-1,-2,-2,0,51,70,191,51,70,191,7,5,0,163,172,169,165,1,4130
51.223080158,12,6,-1,14,7,-1,0,-2,0,-35,-10,112,-35,-10,112,7,5,0,165,172,168,165,1,4131
51.234153032,12,6,-1,14,7,-1,0,-2,0,-35,-10,112,-35,-10,112,7,5,0,165,172,168,165,1,4132
51.245246172,11,5,-1,13,6,-1,2,0,1,-35,-10,112,-35,-10,112,7,5,0,173,162,171,164,1,4133
51.265896082,8,2,-1,13,6,-1,2,0,1,-177,-160,-53,-177,-160,-53,7,5,0,169,166,170,165,1,4134
51.27771616,4,0,-1,10,4,-1,3,1,1,-152,-7,215,-152,-7,215,7,5,0,169,166,170,165,1,4135
51.29569602,4,0,-1,10,4,-1,3,1,1,-152,-7,215,-152,-7,215,7,5,0,168,165,161,177,1,4136
51.315266132,0,0,-1,6,2,-1,0,1,0,-96,-88,23,-96,-88,23,7,5,0,169,168,168,165,1,4137
51.329917192,-4,-3,-1,1,0,-1,-2,0,0,-233,-53,-29,-233,-53,-29,7,5,0,169,166,170,165,1,4138
51.342975139,-3,-2,-1,1,0,-1,-3,-2,0,-233,-53,-29,-233,-53,-29,7,5,0,162,174,165,170,1,4139
51.376127958,-7,-4,-1,-2,-1,-1,-1,-1,0,-155,-245,143,-155,-245,143,7,5,0,174,160,166,170,1,4140
51.390678167,-9,-5,-1,-5,-3,-1,1,0,1,-60,-247,27,-60,-247,27,7,5,0,161,172,168,169,1,4141
51.404049158,-8,-4,-1,-5,-2,-1,1,0,0,-60,-247,27,-60,-247,27,7,5,0,176,159,166,169,1,4142
51.436033964,-8,-5,-1,-7,-4,-1,0,-1,-1,-119,15,107,-119,15,107,7,5,0,164,171,172,163,1,4143
51.450256109,-7,-6,-1,-8,-5,-1,-2,-1,-1,-61,5,114,-61,5,114,7,5,0,179,157,163,171,1,4144
51.458621979,-7,-6,-1,-8,-5,-1,-2,-1,-1,-61,5,114,-61,5,114,7,5,0,179,157,163,171,1,4145
51.471047163,-7,-5,-1,-7,-4,-1,-4,0,0,-61,5,114,-61,5,114,7,5,0,161,174,170,166,1,4146
51.48993206,-7,-6,-1,-8,-6,-1,-4,0,0,-43,-33,241,-43,-33,241,7,5,0,167,168,168,167,1,4147
51.501101971,-4,-6,-1,-8,-6,-1,-4,1,1,-61,171,0,-61,171,0,7,5,0,167,168,168,167,1,4148
51.512041092,-4,-6,-1,-8,-6,-1,-4,1,1,-61,171,0,-61,171,0,7,5,0,161,173,172,163,1,4149
51.538977146,-1,-4,-1,-6,-6,-1,-1,0,0,103,154,121,103,154,121,7,5,0,169,166,161,174,1,4150
51.550204992,2,-1,-1,-3,-4,-1,2,0,0,15,83,22,15,83,22,7,5,0,166,170,172,162,1,4151
51.561057091,2,-1,-1,-3,-4,-1,2,0,0,15,83,22,15,83,22,7,5,0,166,170,172,162,1,4152
51.572520018,2,-1,-1,-3,-4,-1,4,0,0,15,83,22,15,83,22,7,5,0,174,163,167,167,1,4153
51.594027996,5,-3,-1,0,-4,-1,4,0,0,-210,223,101,-210,223,101,7,5,0,171,166,168,166,1,4154
51.607963085,6,-5,-1,2,-5,-1,1,0,0,-155,96,54,-155,96,54,7,5,0,164,169,166,172,1,4155
51.622236013,5,-5,-1,2,-5,-1,-1,0,0,-155,96,54,-155,96,54,7,5,0,167,169,172,163,1,4156
51.648921966,7,-5,-1,4,-5,-1,-1,0,0,-45,195,150,-45,195,150,7,5,0,167,168,169,166,1,4157
51.661571979,7,-6,-1,6,-6,-1,-2,0,0,-123,16,75,-123,16,75,7,5,0,167,168,169,166,1,4158
51.671208143,6,-6,-1,5,-6,-1,0,0,-1,-123,16,75,-123,16,75,7,5,0,168,168,168,167,1,4159
51.703987121,8,-8,-1,7,-7,-1,3,0,-1,-158,171,138,-158,171,138,7,5,0,171,162,165,172,1,4160
51.718357086,9,-6,-1,8,-7,-1,2,0,0,66,84,185,66,84,185,7,5,0,169,167,169,165,1,4161
51.732398987,9,-5,-1,7,-6,-1,-1,0,0,66,84,185,66,84,185,7,5,0,169,168,161,173,1,4162
51.764047146,11,-5,-1,9,-6,-1,-4,-1,0,21,143,195,21,143,195,7,5,0,164,171,174,161,1,4163
51.779597044,9,-7,-1,10,-7,-1,-2,-1,1,-129,-15,202,-129,-15,202,7,5,0,171,165,165,169,1,4164
51.796542168,9,-7,-1,10,-7,-1,-2,-1,1,-129,-15,202,-129,-15,202,7,5,0,171,165,165,169,1,4165
51.817466974,9,-6,-1,9,-6,-1,0,0,1,-129,-15,202,-129,-15,202,7,5,0,169,165,170,166,1,4166
51.826215029,7,-9,-1,9,-8,-1,0,1,0,-41,-115,219,-41,-115,219,7,5,0,168,169,166,168,1,4167
51.835042,7,-9,-1,9,-8,-1,0,1,0,-41,-115,219,-41,-115,219,7,5,0,168,169,166,168,1,4168
51.848760128,6,-8,-1,8,-7,-1,-1,1,0,-41,-115,219,-41,-115,219,7,5,0,168,165,169,167,1,4169
51.866993189,4,-12,-1,7,-10,-1,-1,1,0,-58,-230,206,-58,-230,206,7,5,0,168,166,169,168,1,4170
51.882707119,3,-13,-1,6,-12,-1,-2,0,0,-232,-121,34,-232,-121,34,7,5,0,166,168,168,168,1,4171
51.893150091,3,-13,-1,6,-12,-1,-2,0,0,-232,-121,34,-232,-121,34,7,5,0,166,168,168,168,1,4172
51.904024124,2,-12,-1,5,-11,-1,-1,0,0,-232,-121,34,-232,-121,34,7,5,0,165,168,161,175,1,4173
51.923956156,0,-14,-1,3,-14,-1,-1,0,0,-164,-14,182,-164,-14,182,7,5,0,166,168,164,172,1,4174
51.940911054,-2,-13,-1,1,-15,-1,0,-1,-1,-5,-149,38,-5,-149,38,7,5,0,169,166,166,170,1,4175
51.951987982,-2,-12,-1,1,-14,-1,0,-2,-1,-5,-149,38,-5,-149,38,7,5,0,2,0,3,0,1,4176
51.978960991,-2,-13,-1,0,-15,-1,0,-2,-1,-21,-16,40,-21,-16,40,7,5,0,2,1,1,0,1,4177
51.990796089,-4,-13,-1,-1,-15,-1,0,-3,0,-23,-59,96,-23,-59,96,7,5,0,2,1,1,0,1,4178
52.000940084,-4,-13,-1,-1,-15,-1,0,-3,0,-23,-59,96,-23,-59,96,7,5,0,0,4,3,0,1,4179
52.0122931,-4,-12,-1,-1,-14,-1,0,-1,0,-23,-59,96,-23,-59,96,7,5,0,0,4,3,0,1,4180
52.024051189,-6,-8,-1,-3,-14,-1,0,-1,0,175,-156,33,175,-156,33,7,5,0,3,0,5,0,1,4181
52.040855169,-9,-7,-1,-6,-13,-1,0,2,1,22,-206,202,22,-206,202,7,5,0,169,168,163,170,1,4182
52.051954985,-9,-7,-1,-5,-12,-1,0,4,0,22,-206,202,22,-206,202,7,5,0,175,161,170,164,1,4183
52.083955049,-8,-2,-1,-7,-10,-1,-1,2,0,6,16,144,6,16,144,7,5,0,160,176,164,169,1,4184
52.099002123,-9,0,-1,-8,-7,-1,-3,0,0,137,-147,18,137,-147,18,7,5,0,173,162,173,162,1,4185
52.112032175,-8,0,-1,-8,-7,-1,-1,0,1,137,-147,18,137,-147,18,7,5,0,160,175,166,169,1,4186
52.145065069,-9,-1,-1,-9,-5,-1,1,1,0,-50,-137,79,-50,-137,79,7,5,0,171,167,159,173,1,4187
52.157719135,-12,-1,-1,-10,-5,-1,3,1,0,-19,-179,167,-19,-179,167,7,5,0,168,167,167,168,1,4188
52.167080164,-12,-1,-1,-10,-5,-1,3,1,0,-19,-179,167,-19,-179,167,7,5,0,168,167,167,168,1,4189
52.17809701,-11,-1,-1,-10,-4,-1,2,-1,0,-19,-179,167,-19,-179,167,7,5,0,171,164,164,171,1,4190
52.198291063,-12,-1,-1,-11,-4,-1,2,-1,0,-19,-74,86,-19,-74,86,7,5,0,170,166,165,170,1,4191
52.210168123,-10,-1,-1,-11,-3,-1,0,-4,1,13,57,159,13,57,159,7,5,0,157,180,179,154,1,4192
52.221908092,-10,-1,-1,-11,-3,-1,0,-4,1,13,57,159,13,57,159,7,5,0,157,180,179,154,1,4193
52.233692169,-9,-1,-1,-10,-3,-1,0,-2,1,13,57,159,13,57,159,7,5,0,160,173,167,170,1,4194
52.258439064,-8,1,-1,-10,-2,-1,3,3,0,158,16,249,158,16,249,7,5,0,62,108,125,47,1,4195
52.269160032,-9,2,-1,-10,-1,-1,8,6,-1,168,-79,98,168,-79,98,7,5,0,62,108,125,47,1,4196
52.279865026,-9,2,-1,-10,-1,-1,8,6,-1,168,-79,98,168,-79,98,7,5,0,64,105,104,68,1,4197
52.290971041,-8,2,-1,-9,-1,-1,7,3,-1,168,-79,98,168,-79,98,7,5,0,64,105,104,68,1,4198
52.313682079,-9,3,-1,-10,0,-1,7,3,-1,51,-160,161,51,-160,161,7,5,0,70,101,116,55,1,4199
52.322000027,-10,5,-1,-11,0,-1,0,-3,-1,253,-80,97,253,-80,97,7,5,0,70,101,116,55,1,4200
52.334028959,-9,4,-1,-10,0,-1,-8,-8,0,253,-80,97,253,-80,97,7,5,0,60,113,123,46,1,4201
52.360948086,-10,4,-1,-11,1,-1,-8,-8,0,13,-79,132,13,-79,132,7,5,0,63,109,119,50,1,4202
52.373790026,-10,4,-1,-11,2,-1,-11,-6,0,-30,-77,122,-30,-77,122,7,5,0,63,109,119,50,1,4203
52.382941961,-10,4,-1,-11,2,-1,-11,-6,0,-30,-77,122,-30,-77,122,7,5,0,51,119,129,42,1,4204
52.410112142,-12,1,-1,-11,2,-1,-5,0,1,-85,-97,84,-85,-97,84,7,5,0,160,174,166,170,1,4205
52.425024032,-10,2,-1,-11,2,-1,5,7,0,49,74,84,49,74,84,7,5,0,179,155,155,181,1,4206
52.438069105,-9,1,-1,-10,2,-1,9,5,0,49,74,84,49,74,84,7,5,0,165,168,167,166,1,4207
52.46391511,-8,0,-1,-10,1,-1,9,5,0,-155,68,214,-155,68,214,7,5,0,168,166,164,169,1,4208
52.475425005,-6,-1,-1,-9,1,-1,3,-2,-1,-88,142,21,-88,142,21,7,5,0,168,166,164,169,1,4209
52.486020088,-6,-1,-1,-9,1,-1,3,-2,-1,-88,142,21,-88,142,21,7,5,0,170,163,171,163,1,4210
52.497713089,-6,-1,-1,-8,1,-1,-4,-7,0,-88,142,21,-88,142,21,7,5,0,170,163,171,163,1,4211
52.517060995,-4,-2,-1,-7,0,-1,-5,-1,0,-47,65,186,-47,65,186,7,5,0,156,177,176,157,1,4212
52.528282165,-5,-4,-1,-6,0,-1,0,9,0,-75,-43,108,-75,-43,108,7,5,0,156,177,176,157,1,4213
52.539133072,-5,-4,-1,-6,0,-1,0,9,0,-75,-43,108,-75,-43,108,7,5,0,164,170,167,165,1,4214
52.550191164,-4,-3,-1,-5,0,-1,6,12,0,-75,-43,108,-75,-43,108,7,5,0,164,170,167,165,1,4215
52.571236133,-7,-4,-1,-6,-1,-1,9,7,0,-57,-221,219,-57,-221,219,7,5,0,156,178,159,173,1,4216
52.585783958,-10,-4,-1,-7,-2,-1,9,0,0,-49,-12,5,-49,-12,5,7,5,0,156,178,159,173,1,4217
52.592009067,-10,-4,-1,-7,-2,-1,9,0,0,-49,-12,5,-49,-12,5,7,5,0,171,160,166,168,1,4218
52.603104114,-9,-4,-1,-7,-2,-1,9,-3,0,-49,-12,5,-49,-12,5,7,5,0,171,160,166,168,1,4219
52.623006105,-13,-4,-1,-9,-2,-1,9,-3,0,-12,-217,138,-12,-217,138,7,5,0,168,166,164,169,1,4220
52.634060144,-14,-5,-1,-11,-3,-1,5,-3,0,-85,-98,202,-85,-98,202,7,5,0,168,166,164,169,1,4221
52.64754796,-14,-5,-1,-11,-3,-1,5,-3,0,-85,-98,202,-85,-98,202,7,5,0,168,163,175,160,1,4222
52.655836105,-13,-5,-1,-10,-3,-1,0,-1,0,-85,-98,202,-85,-98,202,7,5,0,168,163,175,160,1,4223
52.676733017,-14,-5,-1,-12,-3,-1,0,-1,0,7,-56,10,7,-56,10,7,5,0,174,161,171,161,1,4224
52.687465191,-10,-6,-1,-12,-4,-1,-4,2,0,-88,143,183,-88,143,183,7,5,0,174,161,171,161,1,4225
52.698027134,-10,-6,-1,-12,-4,-1,-4,2,0,-88,143,183,-88,143,183,7,5,0,165,171,162,169,1,4226
52.708971023,-9,-5,-1,-11,-4,-1,-4,4,0,-88,143,183,-88,143,183,7,5,0,165,171,162,169,1,4227
52.728089094,-7,-8,-1,-10,-6,-1,-4,4,0,-242,217,177,-242,217,177,7,5,0,154,176,158,177,1,4228
52.741204977,-3,-10,-1,-7,-8,-1,0,2,1,-237,7,166,-237,7,166,7,5,0,154,176,158,177,1,4229
52.750041008,-3,-10,-1,-7,-8,-1,0,2,1,-237,7,166,-237,7,166,7,5,0,166,166,164,170,1,4230
52.76215601,-3,-10,-1,-7,-7,-1,4,-4,0,-237,7,166,-237,7,166,7,5,0,166,166,164,170,1,4231
52.781082153,0,-10,-1,-4,-9,-1,4,-4,0,-15,34,215,-15,34,215,7,5,0,168,165,173,160,1,4232
52.792185068,2,-11,-1,-1,-10,-1,6,-6,-1,-94,101,85,-94,101,85,7,5,0,168,165,173,160,1,4233
52.802927971,2,-11,-1,-1,-10,-1,6,-6,-1,-94,101,85,-94,101,85,7,5,0,173,162,174,158,1,4234
52.814393997,2,-10,-1,-1,-9,-1,2,-1,-1,-94,101,85,-94,101,85,7,5,0,173,162,174,158,1,4235
52.833961964,0,-12,-1,0,-10,-1,-3,6,0,-61,-91,75,-61,-91,75,7,5,0,172,159,163,171,1,4236
52.844982147,-2,-11,-1,0,-11,-1,-7,8,1,-12,-67,148,-12,-67,148,7,5,0,172,159,163,171,1,4237
52.856017113,-2,-11,-1,0,-11,-1,-7,8,1,-12,-67,148,-12,-67,148,7,5,0,161,171,165,168,1,4238
52.867031097,-2,-10,-1,0,-11,-1,-5,3,0,-12,-67,148,-12,-67,148,7,5,0,161,171,165,168,1,4239
52.887125969,-2,-11,-1,0,-11,-1,-1,-3,-2,-78,-49,73,-78,-49,73,7,5,0,163,171,158,174,1,4240
52.898328066,-5,-9,-1,0,-11,-1,3,-6,-1,63,-200,223,63,-200,223,7,5,0,163,171,158,174,1,4241
52.909128189,-5,-9,-1,0,-11,-1,3,-6,-1,63,-200,223,63,-200,223,7,5,0,163,167,169,167,1,4242
52.926400185,-4,-8,-1,0,-10,-1,4,-5,0,63,-200,223,63,-200,223,7,5,0,163,167,169,167,1,4243
52.940077066,-7,-10,-1,-2,-11,-1,4,-5,0,-161,-221,211,-161,-221,211,7,5,0,170,166,164,166,1,4244
52.953088999,-9,-10,-1,-4,-12,-1,3,-3,0,-63,-240,76,-63,-240,76,7,5,0,170,166,164,166,1,4245
52.964447975,-9,-10,-1,-4,-12,-1,3,-3,0,-63,-240,76,-63,-240,76,7,5,0,178,159,167,162,1,4246
52.972973108,-8,-9,-1,-3,-11,-1,0,-1,1,-63,-240,76,-63,-240,76,7,5,0,178,159,167,162,1,4247
52.991959095,-10,-10,-1,-5,-11,-1,0,-1,1,-50,-134,139,-50,-134,139,7,5,0,164,169,172,162,1,4248
53.003277063,-13,-10,-1,-7,-12,-1,-4,1,2,-100,-11,101,-100,-11,101,7,5,0,164,169,172,162,1,4249
53.014199018,-13,-10,-1,-7,-12,-1,-4,1,2,-100,-11,101,-100,-11,101,7,5,0,160,171,165,170,1,4250
53.025117159,-12,-10,-1,-7,-11,-1,-4,3,1,-100,-11,101,-100,-11,101,7,5,0,160,171,165,170,1,4251
53.045972109,-16,-11,-1,-10,-11,-1,0,1,0,-154,-74,30,-154,-74,30,7,5,0,163,172,162,169,1,4252
53.056959152,-14,-9,-1,-12,-12,-1,4,-1,-2,17,12,45,17,12,45,7,5,0,163,172,162,169,1,4253
53.06962204,-14,-9,-1,-12,-12,-1,4,-1,-2,17,12,45,17,12,45,7,5,0,166,165,169,167,1,4254
53.078935146,-13,-8,-1,-11,-11,-1,4,-3,-1,17,12,45,17,12,45,7,5,0,166,165,169,167,1,4255
53.098066091,-10,-5,-1,-13,-10,-1,4,-3,-1,203,163,164,203,163,164,7,5,0,164,170,166,165,1,4256
53.10918498,-8,-5,-1,-12,-10,-1,2,-2,0,-34,154,80,-34,154,80,7,5,0,164,170,168,163,1,4257
53.120023966,-8,-5,-1,-12,-10,-1,2,-2,0,-34,154,80,-34,154,80,7,5,0,176,158,168,164,1,4258
53.130930185,-8,-5,-1,-11,-9,-1,0,0,0,-34,154,80,-34,154,80,7,5,0,176,158,162,170,1,4259
53.151007175,-6,-7,-1,-10,-10,-1,0,0,0,-235,147,14,-235,147,14,7,5,0,166,167,165,169,1,4260
53.162089109,-3,-9,-1,-8,-11,-1,-1,1,0,-151,182,224,-151,182,224,7,5,0,166,167,165,169,1,4261
53.172919989,-3,-9,-1,-8,-11,-1,-1,1,0,-151,182,224,-151,182,224,7,5,0,157,175,165,170,1,4262
53.183969021,-3,-8,-1,-7,-10,-1,-2,0,0,-151,182,224,-151,182,224,7,5,0,157,175,165,170,1,4263
53.20304203,-1,-10,-1,-6,-12,-1,-2,0,0,-137,121,177,-137,121,177,7,5,0,172,160,172,161,1,4264
53.214032173,-3,-11,-1,-5,-13,-1,0,-1,-1,-88,-132,198,-88,-132,198,7,5,0,172,160,172,161,1,4265
53.225739956,-3,-11,-1,-5,-13,-1,0,-1,-1,-88,-132,198,-88,-132,198,7,5,0,169,164,169,164,1,4266
53.23589015,-3,-10,-1,-4,-12,-1,1,0,-1,-88,-132,198,-88,-132,198,7,5,0,169,164,169,164,1,4267
53.256042957,0,-9,-1,-3,-13,-1,1,0,-1,31,138,126,31,138,126,7,5,0,162,170,166,168,1,4268
53.268453121,-2,-9,-1,-2,-15,-1,0,3,0,-25,-101,-170,-25,-101,-170,7,5,0,162,170,166,168,1,4269
53.278448105,-2,-9,-1,-2,-15,-1,0,3,0,-25,-101,-170,-25,-101,-170,7,5,0,168,164,165,169,1,4270
53.289981127,-1,-9,-1,-2,-14,-1,-1,3,0,-25,-101,-170,-25,-101,-170,7,5,0,168,164,165,169,1,4271
53.309074163,-5,-11,-1,-4,-17,-1,-1,0,0,-165,-185,-60,-165,-185,-60,7,5,0,168,164,166,168,1,4272
53.321153164,-6,-14,-1,-6,-20,-1,0,-2,0,-191,-117,11,-191,-117,11,7,5,0,168,164,166,168,1,4273
53.330944061,-6,-14,-1,-6,-20,-1,0,-2,0,-191,-117,11,-191,-117,11,7,5,0,162,171,164,168,1,4274
53.342113018,-6,-13,-1,-5,-18,-1,0,-2,0,-191,-117,11,-191,-117,11,7,5,0,162,171,164,168,1,4275
53.361040115,-8,-12,-1,-8,-21,-1,0,-2,0,43,-102,148,43,-102,148,7,5,0,169,165,167,165,1,4276
53.372110128,-9,-12,-1,-10,-21,-1,0,0,0,-58,-49,228,-58,-49,228,7,5,0,169,165,167,165,1,4277
53.382925987,-9,-12,-1,-10,-21,-1,0,0,0,-58,-49,228,-58,-49,228,7,5,0,172,161,170,162,1,4278
53.393926144,-8,-11,-1,-9,-19,-1,0,0,1,-58,-49,228,-58,-49,228,7,5,0,172,161,170,162,1,4279
53.414262056,-11,-14,-1,-12,-22,-1,0,0,1,-1,-10,119,-1,-10,119,7,5,0,163,169,168,166,1,4280
53.425018072,-12,-16,-1,-13,-23,-1,0,1,1,-218,-183,208,-218,-183,208,7,5,0,163,169,168,166,1,4281
53.436033964,-12,-16,-1,-13,-23,-1,0,1,1,-218,-183,208,-218,-183,208,7,5,0,161,171,166,169,1,4282
53.447012186,-11,-15,-1,-12,-21,-1,-1,2,0,-218,-183,208,-218,-183,208,7,5,0,161,171,166,169,1,4283
53.466941118,-14,-17,-1,-15,-23,-1,-1,2,0,-126,-183,138,-126,-183,138,7,5,0,167,166,167,166,1,4284
53.477962971,-14,-18,-1,-16,-24,-1,1,1,-1,-126,-23,212,-126,-23,212,7,5,0,167,166,167,166,1,4285
53.489942074,-14,-18,-1,-16,-24,-1,1,1,-1,-126,-23,212,-126,-23,212,7,5,0,166,168,165,167,1,4286
53.499993086,-13,-16,-1,-15,-22,-1,3,0,-1,-126,-23,212,-126,-23,212,7,5,0,166,168,165,167,1,4287
53.520331144,-9,-13,-1,-14,-22,-1,2,-1,0,127,131,149,127,131,149,7,5,0,176,157,167,166,1,4288
53.533528089,-8,-11,-1,-14,-21,-1,-1,-1,0,57,43,171,57,43,171,7,5,0,176,157,167,166,1,4289
53.542200088,-8,-11,-1,-14,-21,-1,-1,-1,0,57,43,171,57,43,171,7,5,0,166,166,165,168,1,4290
53.552981138,-7,-10,-1,-13,-20,-1,-4,0,0,57,43,171,57,43,171,7,5,0,166,166,165,168,1,4291
53.572250128,-4,-8,-1,-11,-19,-1,-4,0,0,145,5,230,145,5,230,7,5,0,172,162,167,165,1,4292
53.583158016,-3,-7,-1,-9,-17,-1,-5,0,0,107,103,75,107,103,75,7,5,0,165,167,168,166,1,4293
53.597867012,-3,-7,-1,-9,-17,-1,-5,0,0,107,103,75,107,103,75,7,5,0,165,167,167,166,1,4294
53.606153965,-3,-6,-1,-8,-16,-1,-4,0,0,107,103,75,107,103,75,7,5,0,164,169,167,166,1,4295
53.626001119,0,-3,-1,-7,-14,-1,-4,0,0,230,165,176,230,165,176,7,5,0,166,168,169,164,1,4296
53.635913133,-5,-2,-1,-5,-12,-1,-1,0,0,18,-100,49,18,-100,49,7,5,0,166,168,169,164,1,4297
53.647049188,-5,-2,-1,-5,-12,-1,-1,0,0,18,-100,49,18,-100,49,7,5,0,165,171,168,163,1,4298
53.65814209,-4,-2,-1,-5,-11,-1,1,1,0,18,-100,49,18,-100,49,7,5,0,165,171,168,163,1,4299
53.677088022,-4,-3,-1,-4,-10,-1,1,1,0,-58,26,159,-58,26,159,7,5,0,163,170,166,167,1,4300
53.689335108,-2,-5,-1,-3,-9,-1,3,2,1,-91,57,181,-91,57,181,7,5,0,163,170,166,167,1,4301
53.699193001,-2,-5,-1,-3,-9,-1,3,2,1,-91,57,181,-91,57,181,7,5,0,168,164,164,169,1,4302
53.710098028,-2,-4,-1,-2,-8,-1,3,1,1,-91,57,181,-91,57,181,7,5,0,168,164,164,169,1,4303
53.73096919,-1,-6,-1,-1,-9,-1,0,0,0,-130,87,8,-130,87,8,7,5,0,168,162,167,168,1,4304
53.742002964,0,-8,-1,0,-10,-1,-3,-2,-1,-10,224,20,-10,224,20,7,5,0,168,162,167,168,1,4305
53.75387311,0,-8,-1,0,-10,-1,-3,-2,-1,-10,224,20,-10,224,20,7,5,0,173,159,166,169,1,4306
53.763345003,0,-7,-1,0,-9,-1,-6,-2,-2,-10,224,20,-10,224,20,7,5,0,173,159,166,169,1,4307
53.783982038,1,-8,-1,1,-9,-1,-4,0,-1,-74,62,49,-74,62,49,7,5,0,162,173,171,160,1,4308
53.795226097,2,-7,-1,2,-10,-1,-1,1,0,-33,138,144,-33,138,144,7,5,0,162,173,171,160,1,4309
53.813616991,2,-7,-1,2,-10,-1,-1,1,0,-33,138,144,-33,138,144,7,5,0,162,173,168,163,1,4310
53.81796217,2,-7,-1,2,-9,-1,2,3,2,-33,138,144,-33,138,144,7,5,0,162,173,168,163,1,4311
53.836119175,3,-7,-1,3,-10,-1,2,3,2,19,29,253,19,29,253,7,5,0,165,169,166,165,1,4312
53.847028017,1,-6,-1,3,-9,-1,4,3,2,66,-126,164,66,-126,164,7,5,0,165,169,166,165,1,4313
53.858093023,1,-6,-1,3,-9,-1,4,3,2,66,-126,164,66,-126,164,7,5,0,167,166,165,168,1,4314
53.871780157,1,-5,-1,3,-8,-1,4,2,1,66,-126,164,66,-126,164,7,5,0,167,166,165,168,1,4315
53.889000177,0,-4,-1,3,-8,-1,4,2,1,179,-122,166,179,-122,166,7,5,0,170,160,167,169,1,4316
53.89991498,0,-1,-1,2,-6,-1,1,0,0,12,-135,200,12,-135,200,7,5,0,170,160,167,169,1,4317
53.911180019,0,-1,-1,2,-6,-1,1,0,0,12,-135,200,12,-135,200,7,5,0,169,162,167,168,1,4318
53.922003031,0,-1,-1,2,-6,-1,-2,-1,-2,12,-135,200,12,-135,200,7,5,0,169,162,167,168,1,4319
53.941184997,0,-1,-1,1,-5,-1,-2,-1,-2,46,68,88,46,68,88,7,5,0,166,167,168,166,1,4320
53.95215106,-1,0,-1,1,-3,-1,-4,-1,-2,141,-162,253,141,-162,253,7,5,0,166,167,168,166,1,4321
53.962928057,-1,0,-1,1,-3,-1,-4,-1,-2,141,-162,253,141,-162,253,7,5,0,164,170,163,169,1,4322
53.974018097,-1,0,-1,0,-3,-1,-3,0,-1,141,-162,253,141,-162,253,7,5,0,164,170,163,169,1,4323
53.994915008,-1,2,-1,0,-1,-1,1,0,0,174,30,73,174,30,73,7,5,0,160,173,171,162,1,4324
54.006011009,-3,1,-1,0,0,-1,5,0,2,-56,-155,229,-56,-155,229,7,5,0,160,173,171,162,1,4325
54.017068148,-3,1,-1,0,0,-1,5,0,2,-56,-155,229,-56,-155,229,7,5,0,168,167,168,163,1,4326
54.029998064,-3,1,-1,0,0,-1,6,1,2,-56,-155,229,-56,-155,229,7,5,0,168,167,168,163,1,4327
54.047065973,-3,2,-1,-1,0,-1,6,1,2,99,-34,102,99,-34,102,7,5,0,165,167,167,166,1,4328
54.060865164,-3,4,-1,-1,1,-1,4,3,1,140,-25,18,140,-25,18,7,5,0,166,168,167,166,1,4329
54.069079161,-3,4,-1,-1,1,-1,4,3,1,140,-25,18,140,-25,18,7,5,0,170,163,170,163,1,4330
54.080046177,-3,4,-1,-1,1,-1,0,3,0,140,-25,18,140,-25,18,7,5,0,170,163,170,163,1,4331
54.100041151,-3,6,-1,-1,3,-1,0,3,0,239,22,32,239,22,32,7,5,0,172,161,166,168,1,4332
54.111032009,0,5,-1,-1,3,-1,-2,2,0,-76,161,248,-76,161,248,7,5,0,172,161,166,168,1,4333
54.121829986,0,5,-1,-1,3,-1,-2,2,0,-76,161,248,-76,161,248,7,5,0,165,168,160,173,1,4334
54.13304019,0,4,-1,-1,3,-1,-3,0,0,-76,161,248,-76,161,248,7,5,0,165,168,160,173,1,4335
54.151957035,0,5,-1,0,4,-1,-3,0,0,56,44,79,56,44,79,7,5,0,162,171,164,169,1,4336
54.162955046,1,6,-1,0,5,-1,-2,-2,0,127,123,11,127,123,11,7,5,0,162,171,164,169,1,4337
54.174004078,1,6,-1,0,5,-1,-2,-2,0,127,123,11,127,123,11,7,5,0,164,169,170,164,1,4338
54.185330152,1,6,-1,0,4,-1,1,-3,0,127,123,11,127,123,11,7,5,0,164,169,170,164,1,4339
54.209882975,-3,5,-1,0,5,-1,4,-1,0,-6,-127,52,-6,-127,52,7,5,0,173,160,174,158,1,4340
54.216922045,-6,5,-1,0,6,-1,3,3,0,16,-143,103,16,-143,103,7,5,0,173,160,174,158,1,4341
54.228124142,-6,5,-1,0,6,-1,3,3,0,16,-143,103,16,-143,103,7,5,0,163,170,168,164,1,4342
54.240280151,-6,5,-1,0,6,-1,0,6,0,16,-143,103,16,-143,103,7,5,0,163,170,168,164,1,4343
54.257987976,-9,6,-1,-2,7,-1,0,6,0,31,-139,138,31,-139,138,7,5,0,178,155,165,167,1,4344
54.273699045,-10,7,-1,-4,7,-1,-3,5,0,87,-87,154,87,-87,154,7,5,0,178,155,165,167,1,4345
54.280009985,-10,7,-1,-4,7,-1,-3,5,0,87,-87,154,87,-87,154,7,5,0,168,166,163,169,1,4346
54.291040182,-10,6,-1,-3,7,-1,-5,1,0,87,-87,154,87,-87,154,7,5,0,168,166,163,169,1,4347
54.310940981,-11,7,-1,-5,8,-1,-5,1,0,74,-98,58,74,-98,58,7,5,0,160,171,165,170,1,4348
54.321964025,-11,7,-1,-6,8,-1,-4,-2,0,16,-144,103,16,-144,103,7,5,0,160,171,165,170,1,4349
54.333631039,-11,7,-1,-6,8,-1,-4,-2,0,16,-144,103,16,-144,103,7,5,0,164,168,168,166,1,4350
54.343950033,-11,6,-1,-5,7,-1,0,-3,0,16,-144,103,16,-144,103,7,5,0,164,168,168,166,1,4351
54.365878105,-10,8,-1,-6,8,-1,0,-3,0,146,57,29,146,57,29,7,5,0,165,169,166,166,1,4352
54.374140978,-10,10,-1,-6,9,-1,3,-1,-1,157,-59,221,157,-59,221,7,5,0,165,169,166,166,1,4353
54.385060072,-10,10,-1,-6,9,-1,3,-1,-1,157,-59,221,157,-59,221,7,5,0,169,165,167,164,1,4354
54.397905111,-9,9,-1,-6,9,-1,3,0,0,157,-59,221,157,-59,221,7,5,0,169,165,167,164,1,4355
54.41608119,-8,12,-1,-6,10,-1,0,1,1,222,16,180,222,16,180,7,5,0,167,164,169,165,1,4356
54.429882049,-9,14,-1,-6,11,-1,-3,1,1,116,-62,156,116,-62,156,7,5,0,167,164,169,165,1,4357
54.439568996,-9,14,-1,-6,11,-1,-3,1,1,116,-62,156,116,-62,156,7,5,0,170,163,161,172,1,4358
54.449141979,-8,13,-1,-6,11,-1,-3,0,0,116,-62,156,116,-62,156,7,5,0,170,163,161,172,1,4359
54.469987154,-8,14,-1,-6,12,-1,-1,-1,-1,215,-39,38,215,-39,38,7,5,0,162,170,167,166,1,4360
54.480901003,-9,12,-1,-6,13,-1,0,-2,0,-71,-96,182,-71,-96,182,7,5,0,162,170,167,166,1,4361
54.492015123,-9,12,-1,-6,13,-1,0,-2,0,-71,-96,182,-71,-96,182,7,5,0,166,167,172,162,1,4362
54.503057003,-9,11,-1,-6,12,-1,2,-1,0,-71,-96,182,-71,-96,182,7,5,0,166,167,172,162,1,4363
54.522006035,-10,12,-1,-7,13,-1,2,-1,0,38,-151,94,38,-151,94,7,5,0,166,167,171,162,1,4364
54.533039093,-12,12,-1,-9,13,-1,2,2,0,87,-35,57,87,-35,57,7,5,0,164,170,171,161,1,4365
54.544054985,-12,12,-1,-9,13,-1,2,2,0,87,-35,57,87,-35,57,7,5,0,164,170,165,167,1,4366
54.554965019,-12,11,-1,-8,12,-1,1,4,0,87,-35,57,87,-35,57,7,5,0,166,165,166,168,1,4367
54.577790022,-15,10,-1,-11,12,-1,1,4,0,-110,-52,194,-110,-52,194,7,5,0,165,166,162,172,1,4368
54.586107015,-15,9,-1,-12,12,-1,1,2,0,33,-55,230,33,-55,230,7,5,0,165,166,162,172,1,4369
54.597102165,-15,9,-1,-12,12,-1,1,2,0,33,-55,230,33,-55,230,7,5,0,166,164,162,174,1,4370
54.609937191,-14,9,-1,-11,11,-1,1,-2,0,33,-55,230,33,-55,230,7,5,0,166,164,162,174,1,4371
54.627043009,-14,9,-1,-13,11,-1,1,-2,0,34,-6,87,34,-6,87,7,5,0,172,163,169,163,1,4372
54.642115116,-13,9,-1,-13,11,-1,0,-5,-1,22,41,12,22,41,12,7,5,0,172,163,169,163,1,4373
54.651647091,-13,9,-1,-13,11,-1,0,-5,-1,22,41,12,22,41,12,7,5,0,166,168,171,161,1,4374
54.660037041,-12,8,-1,-12,10,-1,-2,-3,0,22,41,12,22,41,12,7,5,0,166,168,171,161,1,4375
54.680054188,-7,7,-1,-11,9,-1,-2,2,1,-46,164,118,-46,164,118,7,5,0,160,174,167,165,1,4376
54.691049099,-4,5,-1,-9,9,-1,0,5,2,-55,110,169,-55,110,169,7,5,0,160,174,167,165,1,4377
54.702035189,-4,5,-1,-9,9,-1,0,5,2,-55,110,169,-55,110,169,7,5,0,168,168,165,166,1,4378
54.713006019,-4,5,-1,-8,8,-1,3,3,2,-55,110,169,-55,110,169,7,5,0,168,168,165,166,1,4379
54.734110117,-1,4,-1,-6,7,-1,4,0,0,-36,7,86,-36,7,86,7,5,0,176,158,162,170,1,4380
54.744987011,1,3,-1,-3,6,-1,2,-1,0,-59,175,154,-59,175,154,7,5,0,176,158,162,170,1,4381
54.755978107,1,3,-1,-3,6,-1,2,-1,0,-59,175,154,-59,175,154,7,5,0,161,170,165,170,1,4382
54.767105102,1,2,-1,-3,6,-1,-1,-2,-1,-59,175,154,-59,175,154,7,5,0,161,170,165,170,1,4383
54.786280155,4,1,-1,-1,5,-1,-1,-2,-1,-84,240,53,-84,240,53,7,5,0,176,156,167,167,1,4384
54.798343181,6,3,-1,1,5,-1,-4,-2,-1,126,162,194,126,162,194,7,5,0,176,156,167,167,1,4385
54.807912111,6,3,-1,1,5,-1,-4,-2,-1,126,162,194,126,162,194,7,5,0,168,164,169,165,1,4386
54.819039106,5,3,-1,1,4,-1,-5,-1,-1,126,162,194,126,162,194,7,5,0,168,164,169,165,1,4387
54.83796215,4,4,-1,2,5,-1,-5,-1,-1,47,-64,170,47,-64,170,7,5,0,156,177,168,165,1,4388
54.84922409,2,8,-1,2,7,-1,-3,0,0,37,-142,8,37,-142,8,7,5,0,156,177,168,165,1,4389
54.861755133,2,8,-1,2,7,-1,-3,0,0,37,-142,8,37,-142,8,7,5,0,166,169,166,165,1,4390
54.870898962,2,8,-1,2,6,-1,1,2,0,37,-142,8,37,-142,8,7,5,0,166,169,166,165,1,4391
54.893182039,-1,10,-1,1,9,-1,4,2,1,198,-248,101,198,-248,101,7,5,0,173,161,166,166,1,4392
54.90194416,-4,10,-1,-1,10,-1,2,1,1,104,-4,182,104,-4,182,7,5,0,173,161,166,166,1,4393
54.915004015,-4,10,-1,-1,10,-1,2,1,1,104,-4,182,104,-4,182,7,5,0,165,170,166,165,1,4394
54.924203157,-4,9,-1,-1,9,-1,-1,0,1,104,-4,182,104,-4,182,7,5,0,165,170,166,165,1,4395
54.945782184,-7,9,-1,-3,11,-1,-1,0,1,-52,-192,204,-52,-192,204,7,5,0,170,162,165,170,1,4396
54.95504117,-6,9,-1,-5,11,-1,-3,0,0,88,6,130,88,6,130,7,5,0,170,162,165,170,1,4397
54.96610403,-6,9,-1,-5,11,-1,-3,0,0,88,6,130,88,6,130,7,5,0,167,164,166,169,1,4398
54.978115082,-6,8,-1,-4,10,-1,-2,0,0,88,6,130,88,6,130,7,5,0,167,164,166,169,1,4399
54.996106148,-5,7,-1,-5,10,-1,-2,0,0,-167,134,115,-167,134,115,7,5,0,167,166,163,170,1,4400
55.009701967,-3,4,-1,-4,8,-1,-1,-2,-1,-248,151,92,-248,151,92,7,5,0,167,166,163,170,1,4401
55.018540144,-3,4,-1,-4,8,-1,-1,-2,-1,-248,151,92,-248,151,92,7,5,0,166,167,165,167,1,4402
55.029072046,-3,3,-1,-4,8,-1,-1,-2,-1,-248,151,92,-248,151,92,7,5,0,166,167,165,167,1,4403
55.049156189,-1,1,-1,-3,6,-1,-1,-2,-1,-228,190,9,-228,190,9,7,5,0,164,169,174,159,1,4404
55.060003042,-1,0,-1,-2,4,-1,0,-1,0,-134,0,215,-134,0,215,7,5,0,164,169,174,159,1,4405
55.071159124,-1,0,-1,-2,4,-1,0,-1,0,-134,0,215,-134,0,215,7,5,0,168,167,170,161,1,4406
55.084779978,0,0,-1,-2,4,-1,0,2,0,-134,0,215,-134,0,215,7,5,0,168,167,170,161,1,4407
55.101962089,0,0,-1,-1,3,-1,0,2,0,43,15,3,43,15,3,7,5,0,164,169,164,170,1,4408
55.111982107,0,-2,-1,0,1,-1,1,5,1,-137,38,154,-137,38,154,7,5,0,164,169,164,170,1,4409
55.122925043,0,-2,-1,0,1,-1,1,5,1,-137,38,154,-137,38,154,7,5,0,167,165,165,169,1,4410
55.134361982,0,-2,-1,0,1,-1,1,3,0,-137,38,154,-137,38,154,7,5,0,167,165,165,169,1,4411
55.155050993,-1,0,-1,0,0,-1,0,-1,0,98,-116,205,98,-116,205,7,5,0,170,164,163,170,1,4412
55.169721126,0,1,-1,0,1,-1,0,-5,-1,176,130,248,176,130,248,7,5,0,170,164,163,170,1,4413
55.176897049,0,1,-1,0,1,-1,0,-5,-1,176,130,248,176,130,248,7,5,0,164,167,165,170,1,4414
55.187870026,0,1,-1,0,0,-1,-1,-4,-1,176,130,248,176,130,248,7,5,0,164,167,165,170,1,4415
55.208111048,-1,3,-1,0,1,-1,-1,-2,0,61,-46,99,61,-46,99,7,5,0,163,170,170,162,1,4416
55.221709013,-1,1,-1,0,1,-1,0,0,0,-93,20,236,-93,20,236,7,5,0,163,170,170,162,1,4417
55.230071068,-1,1,-1,0,1,-1,0,0,0,-93,20,236,-93,20,236,7,5,0,168,166,171,160,1,4418
55.241048097,-1,1,-1,0,1,-1,1,2,0,-93,20,236,-93,20,236,7,5,0,168,166,171,160,1,4419
55.261018038,1,0,-1,1,1,-1,1,2,0,-77,128,183,-77,128,183,7,5,0,165,168,166,166,1,4420
55.270987034,2,0,-1,2,0,-1,1,4,1,-37,91,10,-37,91,10,7,5,0,165,168,166,166,1,4421
55.285848141,2,0,-1,2,0,-1,1,4,1,-37,91,10,-37,91,10,7,5,0,168,163,168,167,1,4422
55.293162107,2,0,-1,2,0,-1,0,3,1,-37,91,10,-37,91,10,7,5,0,168,163,168,167,1,4423
55.312932968,4,3,-1,3,0,-1,0,3,1,82,50,-37,82,50,-37,7,5,0,170,162,166,168,1,4424
55.324038029,5,0,-1,5,0,-1,-1,1,0,-53,22,37,-53,22,37,7,5,0,170,162,166,168,1,4425
55.33506608,5,0,-1,5,0,-1,-1,1,0,-53,22,37,-53,22,37,7,5,0,164,166,167,169,1,4426
55.346039057,4,0,-1,4,0,-1,-2,0,-2,-53,22,37,-53,22,37,7,5,0,164,166,167,169,1,4427
55.366108179,6,3,-1,6,1,-1,-1,-2,-2,190,79,76,190,79,76,7,5,0,162,169,162,173,1,4428
55.377853155,5,7,-1,7,5,-1,2,-3,-2,194,-19,-96,194,-19,-96,7,5,0,162,169,162,173,1,4429
55.388020992,5,7,-1,7,5,-1,2,-3,-2,194,-19,-96,194,-19,-96,7,5,0,162,170,167,167,1,4430
55.399144173,5,7,-1,7,5,-1,4,-3,-1,194,-19,-96,194,-19,-96,7,5,0,162,170,167,167,1,4431
55.419094086,7,10,-1,9,9,-1,4,-3,-1,88,89,-64,88,89,-64,7,5,0,167,164,169,165,1,4432
55.430133104,5,10,-1,9,13,-1,4,-3,-1,58,-64,154,58,-64,154,7,5,0,171,161,169,166,1,4433
55.44096303,5,10,-1,9,13,-1,4,-3,-1,58,-64,154,58,-64,154,7,5,0,172,162,167,164,1,4434
55.451907158,5,9,-1,8,12,-1,0,0,0,58,-64,154,58,-64,154,7,5,0,174,161,169,163,1,4435
55.470971107,4,9,-1,7,12,-1,0,0,0,-79,-123,129,-79,-123,129,7,5,0,171,161,169,165,1,4436
55.481981993,2,6,-1,5,11,-1,-3,2,0,-230,-151,61,-230,-151,61,7,5,0,171,161,169,165,1,4437
55.493235111,2,6,-1,5,11,-1,-3,2,0,-230,-151,61,-230,-151,61,7,5,0,163,168,168,167,1,4438
55.505913019,2,5,-1,5,10,-1,-5,3,0,-230,-151,61,-230,-151,61,7,5,0,163,168,168,167,1,4439
55.526054144,0,4,-1,4,9,-1,-5,3,0,-192,-144,162,-192,-144,162,7,5,0,161,172,164,170,1,4440
55.535137176,0,3,-1,3,7,-1,-3,1,-1,-23,-21,123,-23,-21,123,7,5,0,161,172,164,170,1,4441
55.546092033,0,3,-1,3,7,-1,-3,1,-1,-23,-21,123,-23,-21,123,7,5,0,159,173,166,168,1,4442
55.557752132,0,3,-1,3,7,-1,2,0,-1,-23,-21,123,-23,-21,123,7,5,0,159,173,166,168,1,4443
55.577064991,0,0,-1,1,5,-1,7,-2,0,-210,-93,222,-210,-93,222,7,5,0,168,162,170,166,1,4444
55.589359999,0,-1,-1,1,3,-1,6,-2,0,-115,67,52,-115,67,52,7,5,0,168,162,170,166,1,4445
55.599944115,0,-1,-1,1,3,-1,6,-2,0,-115,67,52,-115,67,52,7,5,0,168,164,164,169,1,4446
55.610059023,0,-1,-1,1,3,-1,1,0,0,-115,67,52,-115,67,52,7,5,0,168,164,164,169,1,4447
55.629891157,3,-3,-1,1,1,-1,-3,0,-1,-154,192,165,-154,192,165,7,5,0,171,164,169,162,1,4448
55.641119003,5,-6,-1,2,-1,-1,-5,0,-2,-121,98,60,-121,98,60,7,5,0,171,164,169,162,1,4449
55.652039051,5,-6,-1,2,-1,-1,-5,0,-2,-121,98,60,-121,98,60,7,5,0,170,163,166,167,1,4450
55.663165092,4,-5,-1,2,0,-1,-5,1,0,-121,98,60,-121,98,60,7,5,0,170,163,166,167,1,4451
55.685619116,6,-9,-1,3,-3,-1,-5,1,0,-86,49,-6,-86,49,-6,7,5,0,162,171,168,165,1,4452
55.693988085,8,-10,-1,4,-6,-1,-2,1,0,-53,43,108,-53,43,108,7,5,0,162,171,168,165,1,4453
55.705118179,8,-10,-1,4,-6,-1,-2,1,0,-53,43,108,-53,43,108,7,5,0,162,171,168,166,1,4454
55.716464996,7,-10,-1,4,-5,-1,0,1,0,-53,43,108,-53,43,108,7,5,0,162,171,168,166,1,4455
55.735084057,5,-14,-1,5,-8,-1,0,1,0,-50,-21,21,-50,-21,21,7,5,0,162,170,166,168,1,4456
55.746297121,2,-16,-1,4,-12,-1,4,0,0,-174,-144,22,-174,-144,22,7,5,0,162,170,166,168,1,4457
55.75735712,2,-16,-1,4,-12,-1,4,0,0,-174,-144,22,-174,-144,22,7,5,0,166,168,169,163,1,4458
55.768092155,2,-15,-1,3,-11,-1,5,0,-1,-174,-144,22,-174,-144,22,7,5,0,166,168,169,163,1,4459
55.788156986,0,-17,-1,2,-14,-1,5,0,-1,-98,-138,85,-98,-138,85,7,5,0,181,152,163,170,1,4460
55.799194097,-4,-17,-1,0,-15,-1,1,0,0,-38,-14,187,-38,-14,187,7,5,0,181,152,163,170,1,4461
55.810486078,-4,-17,-1,0,-15,-1,1,0,0,-38,-14,187,-38,-14,187,7,5,0,160,171,164,171,1,4462
55.821195125,-4,-15,-1,0,-14,-1,-4,0,0,-38,-14,187,-38,-14,187,7,5,0,160,171,164,171,1,4463
55.841674089,-7,-16,-1,-3,-15,-1,-7,-1,0,-163,-14,221,-163,-14,221,7,5,0,167,169,171,159,1,4464
55.852020025,-10,-16,-1,-7,-15,-1,-6,-1,-1,-137,-103,233,-137,-103,233,7,5,0,167,169,171,159,1,4465
55.863008976,-10,-16,-1,-7,-15,-1,-6,-1,-1,-137,-103,233,-137,-103,233,7,5,0,172,164,161,170,1,4466
55.874137163,-9,-15,-1,-6,-14,-1,-2,1,1,-137,-103,233,-137,-103,233,7,5,0,172,164,161,170,1,4467
55.894978046,-12,-15,-1,-9,-15,-1,-2,1,1,25,-9,51,25,-9,51,7,5,0,158,176,171,161,1,4468
55.905107021,-13,-12,-1,-11,-14,-1,0,2,3,88,-110,247,88,-110,247,7,5,0,167,168,171,160,1,4469
55.916226148,-13,-12,-1,-11,-14,-1,0,2,3,88,-110,247,88,-110,247,7,5,0,166,168,172,161,1,4470
55.926875114,-12,-11,-1,-11,-13,-1,2,2,3,88,-110,247,88,-110,247,7,5,0,174,160,160,173,1,4471
55.946087122,-13,-11,-1,-13,-13,-1,2,2,3,23,-64,208,23,-64,208,7,5,0,169,163,165,169,1,4472
55.95761013,-11,-9,-1,-13,-12,-1,2,2,0,66,105,36,66,105,36,7,5,0,169,163,165,169,1,4473
55.967939138,-11,-9,-1,-13,-12,-1,2,2,0,66,105,36,66,105,36,7,5,0,164,168,167,168,1,4474
55.979511022,-10,-9,-1,-12,-11,-1,0,1,-1,66,105,36,66,105,36,7,5,0,164,168,167,168,1,4475
55.998980045,-7,-7,-1,-12,-10,-1,0,1,-1,212,244,8,212,244,8,7,5,0,170,164,165,167,1,4476
56.010039091,-4,-7,-1,-10,-9,-1,-2,-1,-1,-53,240,41,-53,240,41,7,5,0,170,164,165,167,1,4477
56.021209001,-4,-7,-1,-10,-9,-1,-2,-1,-1,-53,240,41,-53,240,41,7,5,0,166,167,164,168,1,4478
56.032140016,-4,-6,-1,-9,-8,-1,-2,-3,0,-53,240,41,-53,240,41,7,5,0,166,167,164,168,1,4479
56.052092075,-2,-6,-1,-7,-8,-1,0,-1,1,-40,98,122,-40,98,122,7,5,0,160,174,166,165,1,4480
56.063093185,-1,-5,-1,-5,-7,-1,3,0,1,21,69,238,21,69,238,7,5,0,160,174,166,165,1,4481
56.081577062,-1,-5,-1,-5,-7,-1,3,0,1,21,69,238,21,69,238,7,5,0,166,167,169,164,1,4482
56.085477114,-1,-5,-1,-5,-6,-1,4,1,0,21,69,238,21,69,238,7,5,0,166,167,169,164,1,4483
56.109512091,-1,-5,-1,-4,-6,-1,3,0,0,-50,17,218,-50,17,218,7,5,0,176,155,163,171,1,4484
56.11612606,0,-6,-1,-2,-6,-1,0,0,0,-99,50,111,-99,50,111,7,5,0,176,155,163,171,1,4485
56.126985073,0,-6,-1,-2,-6,-1,0,0,0,-99,50,111,-99,50,111,7,5,0,162,171,171,162,1,4486
56.141865969,0,-6,-1,-2,-5,-1,-4,-1,0,-99,50,111,-99,50,111,7,5,0,162,171,171,162,1,4487
56.158396006,0,-7,-1,-2,-6,-1,-4,-1,0,-181,78,96,-181,78,96,7,5,0,174,159,165,169,1,4488
56.173727989,1,-8,-1,0,-7,-1,-5,0,-1,-84,67,224,-84,67,224,7,5,0,174,159,165,169,1,4489
56.179965019,1,-8,-1,0,-7,-1,-5,0,-1,-84,67,224,-84,67,224,7,5,0,160,173,162,170,1,4490
56.192176103,1,-8,-1,0,-6,-1,-2,0,0,-84,67,224,-84,67,224,7,5,0,160,173,162,170,1,4491
56.210005998,2,-10,-1,0,-8,-1,-2,0,0,-197,139,29,-197,139,29,7,5,0,162,172,161,172,1,4492
56.221439123,4,-11,-1,1,-9,-1,0,-2,0,-137,156,231,-137,156,231,7,5,0,162,172,161,172,1,4493
56.231875181,4,-11,-1,1,-9,-1,0,-2,0,-137,156,231,-137,156,231,7,5,0,177,155,170,164,1,4494
56.243566036,4,-10,-1,1,-8,-1,2,-4,0,-137,156,231,-137,156,231,7,5,0,177,155,170,164,1,4495
56.263991117,6,-10,-1,2,-9,-1,0,-1,0,-48,98,160,-48,98,160,7,5,0,164,167,177,158,1,4496
56.275042057,2,-7,-1,4,-10,-1,-4,4,0,41,-56,-11,41,-56,-11,7,5,0,164,167,177,158,1,4497
56.286344051,2,-7,-1,4,-10,-1,-4,4,0,41,-56,-11,41,-56,-11,7,5,0,165,168,165,168,1,4498
56.297042131,1,-7,-1,3,-9,-1,-4,8,0,41,-56,-11,41,-56,-11,7,5,0,165,168,165,168,1,4499
56.316045999,0,-7,-1,3,-10,-1,-4,8,0,-16,-126,187,-16,-126,187,7,5,0,169,162,169,166,1,4500
56.327888965,-2,-4,-1,2,-9,-1,0,6,0,169,-131,219,169,-131,219,7,5,0,158,177,161,170,1,4501
56.338050127,-2,-4,-1,2,-9,-1,0,6,0,169,-131,219,169,-131,219,7,5,0,158,177,161,170,1,4502
56.349061966,-1,-4,-1,2,-8,-1,1,0,-1,169,-131,219,169,-131,219,7,5,0,166,166,158,176,1,4503
56.368910074,-4,-1,-1,0,-7,-1,1,0,-1,211,-183,186,211,-183,186,7,5,0,164,168,161,173,1,4504
56.380041122,-5,-2,-1,0,-6,-1,3,-4,0,-126,-94,96,-126,-94,96,7,5,0,164,168,161,173,1,4505
56.391276121,-5,-2,-1,0,-6,-1,3,-4,0,-126,-94,96,-126,-94,96,7,5,0,174,158,175,159,1,4506
56.401952028,-4,-2,-1,0,-6,-1,2,-4,0,-126,-94,96,-126,-94,96,7,5,0,174,158,175,159,1,4507
56.421020985,-6,-2,-1,-2,-5,-1,2,-4,0,41,-146,78,41,-146,78,7,5,0,169,168,166,163,1,4508
56.43219018,-5,0,-1,-2,-4,-1,-1,-1,0,194,56,65,194,56,65,7,5,0,169,168,166,163,1,4509
56.449862003,-5,0,-1,-2,-4,-1,-1,-1,0,194,56,65,194,56,65,7,5,0,166,167,164,169,1,4510
56.453992128,-4,0,-1,-2,-4,-1,-3,2,1,194,56,65,194,56,65,7,5,0,166,167,164,169,1,4511
56.477684975,-2,2,-1,-2,-2,-1,-3,2,1,92,104,84,92,104,84,7,5,0,163,168,174,161,1,4512
56.485136032,0,3,-1,-1,-1,-1,-2,3,1,72,94,176,72,94,176,7,5,0,163,168,174,161,1,4513
56.496764183,0,3,-1,-1,-1,-1,-2,3,1,72,94,176,72,94,176,7,5,0,161,174,158,173,1,4514
56.508677959,0,3,-1,-1,-1,-1,1,1,0,72,94,176,72,94,176,7,5,0,161,174,158,173,1,4515
56.527196169,1,7,-1,0,1,-1,4,-2,0,154,72,47,154,72,47,7,5,0,171,162,162,171,1,4516
56.541643143,1,11,-1,0,3,-1,3,-5,0,205,2,117,205,2,117,7,5,0,171,162,162,171,1,4517
56.549010038,1,11,-1,0,3,-1,3,-5,0,205,2,117,205,2,117,7,5,0,172,159,174,161,1,4518
56.559947014,1,10,-1,0,3,-1,-1,-4,0,205,2,117,205,2,117,7,5,0,172,159,174,161,1,4519
56.580126047,2,14,-1,0,7,-1,-4,0,0,204,88,50,204,88,50,7,5,0,166,165,171,163,1,4520
56.591027975,0,16,-1,0,10,-1,-4,3,0,253,-171,105,253,-171,105,7,5,0,166,165,171,163,1,4521
56.602230072,0,16,-1,0,10,-1,-4,3,0,253,-171,105,253,-171,105,7,5,0,167,166,167,167,1,4522
56.61343503,0,15,-1,0,9,-1,-2,4,0,253,-171,105,253,-171,105,7,5,0,167,166,167,167,1,4523
56.633183002,0,19,-1,0,13,-1,-2,4,0,224,-97,173,224,-97,173,7,5,0,162,170,167,167,1,4524
56.644059181,-1,17,-1,-1,15,-1,0,2,0,-2,-77,21,-2,-77,21,7,5,0,162,170,167,167,1,4525
56.65518713,-1,17,-1,-1,15,-1,0,2,0,-2,-77,21,-2,-77,21,7,5,0,164,171,160,170,1,4526
56.665904999,-1,16,-1,-1,14,-1,1,0,0,-2,-77,21,-2,-77,21,7,5,0,164,171,160,170,1,4527
56.68503809,-1,17,-1,-1,16,-1,1,0,0,122,12,104,122,12,104,7,5,0,173,162,165,166,1,4528
56.696084976,0,16,-1,0,16,-1,2,-2,1,-26,235,137,-26,235,137,7,5,0,173,162,165,166,1,4529
56.707086086,0,16,-1,0,16,-1,2,-2,1,-26,235,137,-26,235,137,7,5,0,164,168,167,166,1,4530
56.718095064,0,15,-1,0,15,-1,1,-2,1,-26,235,137,-26,235,137,7,5,0,164,168,167,166,1,4531
56.739084959,2,14,-1,0,14,-1,0,0,1,7,137,82,7,137,82,7,5,0,170,161,168,167,1,4532
56.75002408,4,13,-1,1,14,-1,-1,2,0,28,25,37,28,25,37,7,5,0,170,161,168,167,1,4533
56.761125088,4,13,-1,1,14,-1,-1,2,0,28,25,37,28,25,37,7,5,0,174,161,173,158,1,4534
56.772009134,4,12,-1,1,13,-1,-2,3,-1,28,25,37,28,25,37,7,5,0,174,161,173,158,1,4535
56.791013002,4,12,-1,3,14,-1,-2,3,-1,2,11,121,2,11,121,7,5,0,165,168,161,172,1,4536
56.802282095,0,12,-1,3,14,-1,-3,3,0,27,-176,-34,27,-176,-34,7,5,0,161,171,161,173,1,4537
56.813565969,0,12,-1,3,14,-1,-3,3,0,27,-176,-34,27,-176,-34,7,5,0,161,171,165,170,1,4538
56.824232101,0,11,-1,3,13,-1,-3,0,0,27,-176,-34,27,-176,-34,7,5,0,170,165,163,168,1,4539
56.84397006,-3,9,-1,2,13,-1,-3,0,0,-44,-72,66,-44,-72,66,7,5,0,168,167,164,167,1,4540
56.857897043,-4,12,-1,1,13,-1,0,-2,0,161,-82,138,161,-82,138,7,5,0,168,167,164,167,1,4541
56.865839004,-4,12,-1,1,13,-1,0,-2,0,161,-82,138,161,-82,138,7,5,0,163,170,163,170,1,4542
56.877283096,-4,11,-1,1,13,-1,3,-4,0,161,-82,138,161,-82,138,7,5,0,163,170,163,170,1,4543
56.896068096,-4,10,-1,0,13,-1,3,-4,0,-28,-2,147,-28,-2,147,7,5,0,167,166,175,158,1,4544
56.906869173,-5,12,-1,0,14,-1,2,-2,0,165,-94,185,165,-94,185,7,5,0,167,166,175,158,1,4545
56.918251037,-5,12,-1,0,14,-1,2,-2,0,165,-94,185,165,-94,185,7,5,0,176,158,167,165,1,4546
56.929111957,-5,11,-1,0,13,-1,0,1,0,165,-94,185,165,-94,185,7,5,0,176,158,167,165,1,4547
56.950098991,-5,12,-1,-1,14,-1,-3,4,0,128,-47,18,128,-47,18,7,5,0,167,167,159,173,1,4548
56.960973024,-3,13,-1,-1,15,-1,-3,2,0,86,87,203,86,87,203,7,5,0,167,167,159,173,1,4549
56.971971989,-3,13,-1,-1,15,-1,-3,2,0,86,87,203,86,87,203,7,5,0,162,171,169,164,1,4550
56.983049154,-3,12,-1,-1,13,-1,-1,-2,0,86,87,203,86,87,203,7,5,0,162,171,169,164,1,4551
57.004997015,-3,10,-1,-1,13,-1,1,-4,1,-58,-8,15,-58,-8,15,7,5,0,162,170,171,163,1,4552
57.018761158,-3,8,-1,-1,13,-1,2,-2,0,-50,-12,168,-50,-12,168,7,5,0,162,170,171,163,1,4553
57.0292871,-3,8,-1,-1,13,-1,2,-2,0,-50,-12,168,-50,-12,168,7,5,0,160,172,163,170,1,4554
57.036321163,-2,8,-1,-1,12,-1,3,0,0,-50,-12,168,-50,-12,168,7,5,0,160,172,163,170,1,4555
57.055133104,-3,11,-1,-1,13,-1,3,0,0,171,-30,160,171,-30,160,7,5,0,170,160,172,164,1,4556
57.066876173,-5,8,-1,-2,12,-1,3,1,-1,-115,-104,131,-115,-104,131,7,5,0,170,160,172,164,1,4557
57.077512026,-5,8,-1,-2,12,-1,3,1,-1,-115,-104,131,-115,-104,131,7,5,0,177,155,164,170,1,4558
57.088001013,-5,7,-1,-2,11,-1,1,0,-2,-115,-104,131,-115,-104,131,7,5,0,177,155,164,170,1,4559
57.107956171,-8,6,-1,-4,11,-1,1,0,-2,-73,-147,150,-73,-147,150,7,5,0,164,169,169,163,1,4560
57.122542143,-8,6,-1,-5,10,-1,-4,0,-2,34,-54,71,34,-54,71,7,5,0,164,169,169,163,1,4561
57.129987955,-8,6,-1,-5,10,-1,-4,0,-2,34,-54,71,34,-54,71,7,5,0,166,165,168,167,1,4562
57.141105175,-7,5,-1,-4,10,-1,-6,0,0,34,-54,71,34,-54,71,7,5,0,166,165,168,167,1,4563
57.161743164,-5,5,-1,-4,10,-1,-6,0,0,18,153,226,18,153,226,7,5,0,160,176,164,166,1,4564
57.171059131,-3,6,-1,-3,9,-1,-1,1,0,48,60,45,48,60,45,7,5,0,160,176,164,166,1,4565
57.182096004,-3,6,-1,-3,9,-1,-1,1,0,48,60,45,48,60,45,7,5,0,163,173,167,162,1,4566
57.193251133,-3,5,-1,-3,9,-1,5,1,1,48,60,45,48,60,45,7,5,0,163,173,167,162,1,4567
57.213953018,-1,7,-1,-2,9,-1,6,0,2,125,154,233,125,154,233,7,5,0,171,162,166,166,1,4568
57.225043058,-4,8,-1,-2,9,-1,2,-1,1,183,-11,197,183,-11,197,7,5,0,171,162,166,166,1,4569
57.237887144,-4,8,-1,-2,9,-1,2,-1,1,183,-11,197,183,-11,197,7,5,0,167,165,166,167,1,4570
57.24714303,-4,8,-1,-2,9,-1,-2,-1,0,183,-11,197,183,-11,197,7,5,0,167,165,166,167,1,4571
57.266024113,-6,10,-1,-4,11,-1,-2,-1,0,16,-249,43,16,-249,43,7,5,0,169,162,168,167,1,4572
57.277693987,-9,11,-1,-6,12,-1,-3,0,-1,160,-65,204,160,-65,204,7,5,0,169,162,168,167,1,4573
57.287965059,-9,11,-1,-6,12,-1,-3,0,-1,160,-65,204,160,-65,204,7,5,0,168,163,165,171,1,4574
57.298953056,-8,10,-1,-5,11,-1,-2,0,-1,160,-65,204,160,-65,204,7,5,0,168,163,165,171,1,4575
57.31906414,-12,8,-1,-8,12,-1,-2,0,-1,-136,-209,143,-136,-209,143,7,5,0,159,177,172,158,1,4576
57.330039978,-14,6,-1,-11,11,-1,0,0,-1,-83,-225,169,-83,-225,169,7,5,0,159,177,172,158,1,4577
57.340955019,-14,6,-1,-11,11,-1,0,0,-1,-83,-225,169,-83,-225,169,7,5,0,163,170,162,171,1,4578
57.353628158,-13,6,-1,-10,10,-1,1,0,0,-83,-225,169,-83,-225,169,7,5,0,163,170,162,171,1,4579
57.37094903,-16,4,-1,-13,10,-1,1,0,0,-128,-253,231,-128,-253,231,7,5,0,168,162,165,171,1,4580
57.382183075,-16,1,-1,-15,8,-1,4,0,0,-235,-73,252,-235,-73,252,7,5,0,168,162,165,171,1,4581
57.397745132,-16,1,-1,-15,8,-1,4,0,0,-235,-73,252,-235,-73,252,7,5,0,166,168,171,162,1,4582
57.404016018,-15,1,-1,-14,8,-1,3,0,0,-235,-73,252,-235,-73,252,7,5,0,166,168,171,162,1,4583
57.423985004,-17,0,-1,-15,6,-1,0,-1,-1,-40,-164,149,-40,-164,149,7,5,0,172,163,173,157,1,4584
57.434996128,-15,3,-1,-16,6,-1,-4,0,-1,209,73,240,209,73,240,7,5,0,172,163,173,157,1,4585
57.446047068,-15,3,-1,-16,6,-1,-4,0,-1,209,73,240,209,73,240,7,5,0,169,163,165,170,1,4586
57.45700407,-14,3,-1,-15,5,-1,-5,2,0,209,73,240,209,73,240,7,5,0,169,163,165,170,1,4587
57.477163076,-11,2,-1,-15,5,-1,-5,2,0,-26,146,205,-26,146,205,7,5,0,160,174,170,162,1,4588
57.493203163,-8,2,-1,-13,5,-1,-2,4,1,-12,210,255,-12,210,255,7,5,0,160,174,170,162,1,4589
57.499078035,-8,2,-1,-13,5,-1,-2,4,1,-12,210,255,-12,210,255,7,5,0,168,165,157,175,1,4590
57.509977102,-7,2,-1,-12,4,-1,1,2,0,-12,210,255,-12,210,255,7,5,0,168,165,157,175,1,4591
57.53008604,-5,2,-1,-11,5,-1,1,2,0,39,163,215,39,163,215,7,5,0,161,171,169,164,1,4592
57.54095006,-2,0,-1,-8,4,-1,3,-1,0,-134,87,69,-134,87,69,7,5,0,161,171,169,164,1,4593
57.552117109,-2,0,-1,-8,4,-1,3,-1,0,-134,87,69,-134,87,69,7,5,0,165,168,170,163,1,4594
57.562991142,-2,0,-1,-7,3,-1,3,-2,0,-134,87,69,-134,87,69,7,5,0,165,168,170,163,1,4595
57.581902027,0,0,-1,-5,3,-1,3,-2,0,36,59,87,36,59,87,7,5,0,174,159,167,166,1,4596
57.593084097,-4,1,-1,-5,3,-1,1,0,0,57,-180,100,57,-180,100,7,5,0,174,159,167,166,1,4597
57.60414505,-4,1,-1,-5,3,-1,1,0,0,57,-180,100,57,-180,100,7,5,0,164,167,171,164,1,4598
57.615025043,-3,1,-1,-5,3,-1,0,3,0,57,-180,100,57,-180,100,7,5,0,164,167,171,164,1,4599
57.635070085,-3,1,-1,-4,3,-1,0,3,0,13,7,239,13,7,239,7,5,0,167,165,160,174,1,4600
57.646281004,-2,0,-1,-4,2,-1,-2,2,-1,-86,43,254,-86,43,254,7,5,0,167,165,160,174,1,4601
57.657047033,-2,0,-1,-4,2,-1,-2,2,-1,-86,43,254,-86,43,254,7,5,0,171,163,163,170,1,4602
57.667884111,-2,0,-1,-4,2,-1,-2,-1,-1,-86,43,254,-86,43,254,7,5,0,171,163,163,170,1,4603
57.688344955,-1,-1,-1,-3,1,-1,0,-4,0,-110,71,20,-110,71,20,7,5,0,160,174,169,163,1,4604
57.69937396,-1,0,-1,-2,0,-1,2,-2,0,20,0,118,20,0,118,7,5,0,160,174,169,163,1,4605
57.710376024,-1,0,-1,-2,0,-1,2,-2,0,20,0,118,20,0,118,7,5,0,164,168,162,171,1,4606
57.720986128,-1,0,-1,-2,0,-1,4,0,0,20,0,118,20,0,118,7,5,0,164,168,162,171,1,4607
57.740950107,0,0,-1,-1,0,-1,4,0,0,50,23,157,50,23,157,7,5,0,168,167,176,155,1,4608
57.752124071,2,2,-1,0,1,-1,4,1,0,83,175,121,83,175,121,7,5,0,168,167,176,155,1,4609
57.765904188,2,2,-1,0,1,-1,4,1,0,83,175,121,83,175,121,7,5,0,167,165,169,165,1,4610
57.773518085,2,2,-1,0,1,-1,2,2,0,83,175,121,83,175,121,7,5,0,167,165,169,165,1,4611
57.795287132,3,1,-1,1,1,-1,2,2,0,-66,51,20,-66,51,20,7,5,0,169,161,161,175,1,4612
57.804212093,4,0,-1,2,0,-1,-1,2,0,-46,96,95,-46,96,95,7,5,0,169,161,161,175,1,4613
57.814929008,4,0,-1,2,0,-1,-1,2,0,-46,96,95,-46,96,95,7,5,0,168,166,169,163,1,4614
57.825978041,3,0,-1,2,0,-1,-2,1,-1,-46,96,95,-46,96,95,7,5,0,168,166,169,163,1,4615
57.846026182,3,-1,-1,2,0,-1,-2,1,-1,-158,-61,52,-158,-61,52,7,5,0,167,166,160,174,1,4616
57.857046127,3,-3,-1,3,-1,-1,-2,-2,-1,-145,63,35,-145,63,35,7,5,0,167,166,160,174,1,4617
57.86822319,3,-3,-1,3,-1,-1,-2,-2,-1,-145,63,35,-145,63,35,7,5,0,157,173,170,167,1,4618
57.879276991,3,-2,-1,2,-1,-1,0,-4,0,-145,63,35,-145,63,35,7,5,0,157,173,170,167,1,4619
57.899077177,2,-2,-1,2,-1,-1,3,-1,0,8,-47,251,8,-47,251,7,5,0,170,163,169,164,1,4620
57.909984112,1,-1,-1,2,-2,-1,4,2,0,29,-84,246,29,-84,246,7,5,0,170,163,169,164,1,4621
57.921105146,1,-1,-1,2,-2,-1,4,2,0,29,-84,246,29,-84,246,7,5,0,168,164,162,171,1,4622
57.932152033,0,-1,-1,2,-2,-1,2,3,0,29,-84,246,29,-84,246,7,5,0,168,164,162,171,1,4623
57.951899052,0,-3,-1,1,-2,-1,2,3,0,-67,-16,207,-67,-16,207,7,5,0,171,162,168,165,1,4624
57.96294713,-1,-3,-1,0,-3,-1,-2,0,0,-62,-201,19,-62,-201,19,7,5,0,170,162,168,165,1,4625
57.974030971,-1,-3,-1,0,-3,-1,-2,0,0,-62,-201,19,-62,-201,19,7,5,0,167,166,167,167,1,4626
57.985221147,-1,-3,-2,0,-3,-2,-4,-2,0,-62,-201,19,-62,-201,19,7,5,0,166,165,167,168,1,4627
58.005660057,-4,-3,-2,-1,-3,-2,-4,-2,0,-9,0,60,-9,0,60,7,5,0,164,167,167,168,1,4628
58.014971018,-5,-3,-2,-2,-3,-2,-3,-1,-1,-3,-159,126,-3,-159,126,7,5,0,164,167,167,168,1,4629
58.026084185,-5,-3,-2,-2,-3,-2,-3,-1,-1,-3,-159,126,-3,-159,126,7,5,0,167,166,171,162,1,4630
58.038697004,-5,-2,-1,-2,-3,-1,0,0,-1,-3,-159,126,-3,-159,126,7,5,0,167,166,171,162,1,4631
58.056890964,-6,-2,-1,-3,-3,-1,0,0,-1,33,-93,182,33,-93,182,7,5,0,166,170,163,167,1,4632
58.070875168,-6,-4,-2,-4,-3,-2,1,2,0,-219,-115,141,-219,-115,141,7,5,0,166,170,163,167,1,4633
58.07922411,-6,-4,-2,-4,-3,-2,1,2,0,-219,-115,141,-219,-115,141,7,5,0,165,167,166,168,1,4634
58.089946985,-6,-4,-2,-4,-3,-2,1,1,1,-219,-115,141,-219,-115,141,7,5,0,165,167,166,168,1,4635
58.110041141,-7,-3,-2,-5,-3,-2,1,0,1,51,-120,78,51,-120,78,7,5,0,171,161,169,165,1,4636
58.121088028,-9,-2,-1,-6,-3,-1,0,-1,0,57,-167,209,57,-167,209,7,5,0,171,161,169,165,1,4637
58.13383007,-9,-2,-1,-6,-3,-1,0,-1,0,57,-167,209,57,-167,209,7,5,0,165,169,159,173,1,4638
58.143014192,-8,-2,-1,-6,-3,-1,-1,-1,0,57,-167,209,57,-167,209,7,5,0,165,169,159,173,1,4639
58.165980101,-9,-2,-1,-7,-3,-1,-1,-1,0,0,-45,71,0,-45,71,7,5,0,173,160,171,162,1,4640
58.174285173,-8,-2,-2,-8,-3,-2,-2,-1,0,-18,-13,44,-18,-13,44,7,5,0,161,170,169,166,1,4641
58.184936046,-8,-2,-2,-8,-3,-2,-2,-1,0,-18,-13,44,-18,-13,44,7,5,0,161,170,169,166,1,4642
58.195964098,-8,-2,-2,-7,-3,-2,-2,0,0,-18,-13,44,-18,-13,44,7,5,0,165,167,168,166,1,4643
58.215022087,-9,-3,-2,-8,-3,-2,-2,0,0,-130,-91,3,-130,-91,3,7,5,0,165,167,168,166,1,4644
58.22590518,-10,-5,-2,-9,-4,-2,-1,0,0,-206,-167,36,-206,-167,36,7,5,0,165,167,168,166,1,4645
58.237027168,-10,-5,-2,-9,-4,-2,-1,0,0,-206,-167,36,-206,-167,36,7,5,0,173,159,173,161,1,4646
58.247917175,-9,-5,-2,-8,-4,-2,0,2,-1,-206,-167,36,-206,-167,36,7,5,0,173,159,173,161,1,4647
58.267961979,-12,-5,-2,-10,-5,-2,0,2,-1,-28,-26,43,-28,-26,43,7,5,0,164,171,157,174,1,4648
58.279067993,-13,-7,-2,-11,-6,-2,0,2,-1,-191,-92,4,-191,-92,4,7,5,0,164,171,157,174,1,4649
58.289994001,-13,-7,-2,-11,-6,-2,0,2,-1,-191,-92,4,-191,-92,4,7,5,0,164,169,163,170,1,4650
58.300863981,-12,-7,-2,-10,-5,-2,-1,0,0,-191,-92,4,-191,-92,4,7,5,0,164,169,163,170,1,4651
58.319969177,-14,-10,-2,-12,-7,-2,-1,0,0,-55,-194,164,-55,-194,164,7,5,0,167,167,172,161,1,4652
58.331029177,-13,-13,-2,-13,-9,-2,0,-3,1,-188,-28,128,-188,-28,128,7,5,0,167,167,172,161,1,4653
58.342154026,-13,-13,-2,-13,-9,-2,0,-3,1,-188,-28,128,-188,-28,128,7,5,0,162,170,160,174,1,4654
58.353015184,-12,-12,-2,-12,-9,-2,2,-3,0,-188,-28,128,-188,-28,128,7,5,0,162,170,160,174,1,4655
58.373975038,-10,-16,-2,-12,-11,-2,2,0,0,-179,40,44,-179,40,44,7,5,0,168,166,172,160,1,4656
58.384906053,-11,-17,-2,-13,-13,-2,0,1,-1,-118,-49,217,-118,-49,217,7,5,0,168,166,172,160,1,4657
58.395984173,-11,-17,-2,-13,-13,-2,0,1,-1,-118,-49,217,-118,-49,217,7,5,0,171,161,174,160,1,4658
58.407054186,-10,-16,-2,-12,-12,-2,-2,2,0,-118,-49,217,-118,-49,217,7,5,0,171,161,174,160,1,4659
58.42751503,-6,-17,-2,-11,-14,-2,-2,4,0,-154,163,124,-154,163,124,7,5,0,165,168,162,170,1,4660
58.442123175,-4,-20,-2,-9,-17,-2,0,4,0,-209,106,98,-209,106,98,7,5,0,165,168,162,170,1,4661
58.448987961,-4,-20,-2,-9,-17,-2,0,4,0,-209,106,98,-209,106,98,7,5,0,167,167,164,169,1,4662
58.46004796,-4,-19,-2,-9,-16,-2,0,1,0,-209,106,98,-209,106,98,7,5,0,167,167,164,169,1,4663
58.479156017,-2,-20,-2,-7,-19,-2,0,1,0,-111,119,182,-111,119,182,7,5,0,164,170,162,170,1,4664
58.489998102,-5,-18,-2,-7,-20,-2,0,-2,0,48,-168,167,48,-168,167,7,5,0,164,170,162,170,1,4665
58.505815029,-5,-18,-2,-7,-20,-2,0,-2,0,48,-168,167,48,-168,167,7,5,0,166,167,169,164,1,4666
58.511988163,-4,-17,-2,-6,-18,-2,0,-3,0,48,-168,167,48,-168,167,7,5,0,166,167,169,164,1,4667
58.533887148,-7,-16,-2,-8,-19,-2,0,-3,0,72,-157,239,72,-157,239,7,5,0,171,161,170,164,1,4668
58.543009996,-7,-13,-2,-8,-18,-2,0,-1,0,147,-91,19,147,-91,19,7,5,0,171,161,170,164,1,4669
58.554069042,-7,-13,-2,-8,-18,-2,0,-1,0,147,-91,19,147,-91,19,7,5,0,163,169,163,171,1,4670
58.567043066,-7,-12,-2,-8,-16,-2,0,0,0,147,-91,19,147,-91,19,7,5,0,163,169,163,171,1,4671
58.585087061,-5,-10,-2,-8,-15,-2,0,1,0,68,40,180,68,40,180,7,5,0,168,166,172,159,1,4672
58.596054077,-4,-10,-2,-7,-14,-2,0,0,0,-56,34,221,-56,34,221,7,5,0,168,166,172,159,1,4673
58.606886148,-4,-10,-2,-7,-14,-2,0,0,0,-56,34,221,-56,34,221,7,5,0,174,161,163,168,1,4674
58.618338108,-4,-9,-2,-7,-13,-2,0,1,1,-56,34,221,-56,34,221,7,5,0,174,161,163,168,1,4675
58.638245106,-3,-7,-2,-6,-12,-2,0,1,1,188,105,7,188,105,7,7,5,0,162,173,167,164,1,4676
58.649147987,-3,-3,-2,-6,-9,-2,-1,2,2,214,-29,184,214,-29,184,7,5,0,162,173,171,161,1,4677
58.662149191,-3,-3,-2,-6,-9,-2,-1,2,2,214,-29,184,214,-29,184,7,5,0,166,168,171,161,1,4678
58.671034098,-3,-3,-2,-5,-8,-2,-1,2,1,214,-29,184,214,-29,184,7,5,0,166,168,162,170,1,4679
58.690036058,-5,0,-2,-6,-6,-2,-1,2,1,174,-167,106,174,-167,106,7,5,0,166,166,166,168,1,4680
58.700947046,-9,1,-2,-8,-3,-2,0,1,0,86,-164,9,86,-164,9,7,5,0,166,166,166,168,1,4681
58.712830067,-9,1,-2,-8,-3,-2,0,1,0,86,-164,9,86,-164,9,7,5,0,161,171,168,167,1,4682
58.723464966,-9,1,-2,-7,-3,-2,3,0,-1,86,-164,9,86,-164,9,7,5,0,161,171,168,167,1,4683
58.742916107,-12,4,-2,-10,0,-2,3,0,-1,180,-210,-8,180,-210,-8,7,5,0,175,159,165,168,1,4684
58.754029989,-11,5,-2,-11,2,-2,2,0,-1,130,0,9,130,0,9,7,5,0,175,159,165,168,1,4685
58.765100956,-11,5,-2,-11,2,-2,2,0,-1,130,0,9,130,0,9,7,5,0,167,165,161,173,1,4686
58.777176142,-10,5,-2,-10,2,-2,-1,-2,-1,130,0,9,130,0,9,7,5,0,167,165,161,173,1,4687
58.796241999,-9,6,-2,-10,4,-2,-3,-2,0,48,50,173,48,50,173,7,5,0,162,172,170,163,1,4688
58.809596062,-7,3,-2,-10,4,-2,-2,0,0,-152,46,9,-152,46,9,7,5,0,162,172,170,163,1,4689
58.81795311,-7,3,-2,-10,4,-2,-2,0,0,-152,46,9,-152,46,9,7,5,0,173,161,169,163,1,4690
58.829032183,-7,3,-2,-9,4,-2,0,2,0,-152,46,9,-152,46,9,7,5,0,173,161,169,163,1,4691
58.849133015,-4,2,-2,-8,4,-2,2,2,1,-26,169,1,-26,169,1,7,5,0,167,167,160,171,1,4692
58.860074043,-4,3,-2,-6,4,-2,1,0,2,76,1,247,76,1,247,7,5,0,167,167,160,171,1,4693
58.873562097,-4,3,-2,-6,4,-2,1,0,2,76,1,247,76,1,247,7,5,0,160,174,169,164,1,4694
58.882222175,-3,3,-2,-6,4,-2,1,-1,2,76,1,247,76,1,247,7,5,0,160,174,169,164,1,4695
58.901865005,-3,4,-2,-5,5,-2,1,-1,2,63,27,233,63,27,233,7,5,0,173,161,163,169,1,4696
58.913208961,-4,1,-2,-5,4,-2,1,-2,1,-208,-140,238,-208,-140,238,7,5,0,173,161,163,169,1,4697
58.924065113,-4,1,-2,-5,4,-2,1,-2,1,-208,-140,238,-208,-140,238,7,5,0,166,168,167,166,1,4698
58.93493104,-4,1,-2,-5,4,-2,0,-1,0,-208,-140,238,-208,-140,238,7,5,0,166,168,167,166,1,4699
58.954277038,-5,-1,-2,-6,2,-2,0,-1,0,-28,-85,2,-28,-85,2,7,5,0,172,159,167,168,1,4700
58.964933157,-6,-5,-2,-6,0,-2,-1,0,0,-80,-156,127,-80,-156,127,7,5,0,172,159,167,168,1,4701
58.977684975,-6,-5,-2,-6,0,-2,-1,0,0,-80,-156,127,-80,-156,127,7,5,0,169,162,167,168,1,4702
58.98935008,-6,-5,-2,-6,0,-2,-4,0,0,-80,-156,127,-80,-156,127,7,5,0,169,162,167,168,1,4703
59.007169008,-5,-5,-2,-6,-2,-2,-4,0,0,-66,66,146,-66,66,146,7,5,0,162,172,170,161,1,4704
59.018103123,-5,-7,-2,-6,-4,-2,-4,0,-1,-140,-27,12,-140,-27,12,7,5,0,162,172,170,161,1,4705
59.029004097,-5,-7,-2,-6,-4,-2,-4,0,-1,-140,-27,12,-140,-27,12,7,5,0,163,168,161,173,1,4706
59.039977074,-5,-6,-2,-6,-3,-2,-1,0,-1,-140,-27,12,-140,-27,12,7,5,0,163,168,161,173,1,4707
59.059990167,-4,-6,-2,-5,-4,-2,3,0,0,-21,63,133,-21,63,133,7,5,0,172,160,170,164,1,4708
59.071202993,-3,-7,-2,-5,-5,-2,4,0,0,-53,16,236,-53,16,236,7,5,0,172,160,170,164,1,4709
59.089507103,-3,-7,-2,-5,-5,-2,4,0,0,-53,16,236,-53,16,236,7,5,0,165,172,169,160,1,4710
59.093022108,-3,-6,-2,-5,-5,-2,1,1,0,-53,16,236,-53,16,236,7,5,0,165,172,169,160,1,4711
59.113805055,-4,-9,-2,-5,-7,-2,1,1,0,-133,-64,120,-133,-64,120,7,5,0,176,155,163,173,1,4712
59.124000072,-4,-11,-2,-5,-8,-2,-3,1,0,-182,-50,16,-182,-50,16,7,5,0,176,155,169,167,1,4713
59.135065079,-4,-11,-2,-5,-8,-2,-3,1,0,-182,-50,16,-182,-50,16,7,5,0,159,173,168,166,1,4714
59.145859003,-4,-10,-2,-4,-7,-2,-4,0,0,-182,-50,16,-182,-50,16,7,5,0,159,173,162,173,1,4715
59.16508007,-7,-10,-2,-6,-9,-2,-4,0,0,32,-174,221,32,-174,221,7,5,0,167,165,163,170,1,4716
59.176009178,-9,-12,-2,-7,-10,-2,-2,-2,-1,-43,-48,28,-43,-48,28,7,5,0,167,165,163,170,1,4717
59.187116146,-9,-12,-2,-7,-10,-2,-2,-2,-1,-43,-48,28,-43,-48,28,7,5,0,170,160,166,170,1,4718
59.198003054,-9,-11,-2,-6,-9,-2,0,-3,-2,-43,-48,28,-43,-48,28,7,5,0,170,160,166,170,1,4719
59.218068123,-11,-14,-2,-8,-11,-2,0,-3,-2,-158,-106,97,-158,-106,97,7,5,0,159,175,176,156,1,4720
59.229180097,-8,-10,-2,-8,-11,-2,0,-2,-1,148,93,156,148,93,156,7,5,0,159,175,176,156,1,4721
59.240034103,-8,-10,-2,-8,-11,-2,0,-2,-1,148,93,156,148,93,156,7,5,0,171,166,163,166,1,4722
59.25101614,-8,-9,-2,-7,-10,-2,0,1,0,148,93,156,148,93,156,7,5,0,171,166,163,166,1,4723
59.271026134,-6,-3,-2,-7,-7,-2,0,4,2,59,60,-6,59,60,-6,7,5,0,169,162,163,172,1,4724
59.281988144,-4,0,-2,-5,-4,-2,0,2,1,207,142,247,207,142,247,7,5,0,169,162,163,172,1,4725
59.301558018,-4,0,-2,-5,-4,-2,0,2,1,207,142,247,207,142,247,7,5,0,159,173,171,163,1,4726
59.304105043,-4,0,-2,-5,-3,-2,0,0,-1,207,142,247,207,142,247,7,5,0,159,173,171,163,1,4727
59.324007034,-5,2,-2,-4,0,-2,0,-2,-3,206,-72,172,206,-72,172,7,5,0,172,164,163,167,1,4728
59.335239172,-6,5,-2,-5,2,-2,0,-2,-1,206,-154,196,206,-154,196,7,5,0,172,164,163,167,1,4729
59.346253157,-6,5,-2,-5,2,-2,0,-2,-1,206,-154,196,206,-154,196,7,5,0,169,164,166,167,1,4730
59.358285189,-6,4,-2,-4,2,-2,0,-1,1,206,-154,196,206,-154,196,7,5,0,169,164,166,167,1,4731
59.376897097,-6,4,-2,-5,4,-2,0,-1,1,-8,-39,251,-8,-39,251,7,5,0,166,168,165,166,1,4732
59.393841982,-8,5,-2,-6,5,-2,-2,0,2,150,-183,121,150,-183,121,7,5,0,166,168,165,166,1,4733
59.399566173,-8,5,-2,-6,5,-2,-2,0,2,150,-183,121,150,-183,121,7,5,0,169,164,166,167,1,4734
59.409976959,-7,5,-2,-5,5,-2,-2,0,1,150,-183,121,150,-183,121,7,5,0,169,164,166,167,1,4735
59.429062128,-7,5,-2,-6,6,-2,-2,0,1,49,3,136,49,3,136,7,5,0,162,170,173,161,1,4736
59.439958095,-7,4,-2,-6,6,-2,0,0,0,-35,-23,157,-35,-23,157,7,5,0,162,170,173,161,1,4737
59.451109171,-7,4,-2,-6,6,-2,0,0,0,-35,-23,157,-35,-23,157,7,5,0,166,169,159,172,1,4738
59.462069034,-6,4,-1,-6,6,-1,0,0,0,-35,-23,157,-35,-23,157,7,5,0,166,169,159,172,1,4739
59.482939958,-4,3,-1,-5,6,-1,1,0,0,-69,156,87,-69,156,87,7,5,0,164,169,164,169,1,4740
59.49399209,-2,3,-1,-4,5,-1,0,-1,1,18,109,41,18,109,41,7,5,0,164,169,164,169,1,4741
59.50518918,-2,3,-1,-4,5,-1,0,-1,1,18,109,41,18,109,41,7,5,0,168,168,170,161,1,4742
59.515877962,-2,3,-1,-4,5,-1,0,-1,2,18,109,41,18,109,41,7,5,0,168,168,170,161,1,4743
59.535098076,0,2,-1,-3,5,-1,0,-1,2,-25,121,128,-25,121,128,7,5,0,163,169,163,171,1,4744
59.546045065,1,5,-1,-2,6,-1,1,0,1,141,44,181,141,44,181,7,5,0,163,169,163,171,1,4745
59.557126999,1,5,-1,-2,6,-1,1,0,1,141,44,181,141,44,181,7,5,0,173,160,174,159,1,4746
59.568034172,0,4,-1,-1,5,-1,1,0,0,141,44,181,141,44,181,7,5,0,173,160,174,159,1,4747
59.588008165,0,7,-1,-1,6,-1,1,0,0,129,-47,192,129,-47,192,7,5,0,165,169,163,169,1,4748
59.599086046,-1,6,-1,-1,7,-1,0,1,0,-1,-118,211,-1,-118,211,7,5,0,165,169,163,169,1,4749
59.610131025,-1,6,-1,-1,7,-1,0,1,0,-1,-118,211,-1,-118,211,7,5,0,165,169,161,171,1,4750
59.621040106,-1,6,-1,-1,6,-1,-1,0,0,-1,-118,211,-1,-118,211,7,5,0,171,162,162,172,1,4751
59.640208959,0,5,-1,-1,7,-1,-1,0,0,-38,87,206,-38,87,206,7,5,0,168,164,173,161,1,4752
59.65371108,0,3,-1,0,6,-1,-1,-1,0,-72,20,226,-72,20,226,7,5,0,168,164,173,161,1,4753
59.66202116,0,3,-1,0,6,-1,-1,-1,0,-72,20,226,-72,20,226,7,5,0,162,172,161,171,1,4754
59.673205137,0,3,-1,0,6,-1,0,-1,0,-72,20,226,-72,20,226,7,5,0,162,172,161,171,1,4755
59.69443202,0,0,-1,0,5,-1,0,-1,0,-144,-37,153,-144,-37,153,7,5,0,162,169,173,163,1,4756
59.704085111,0,-1,-1,0,3,-1,1,0,0,-65,48,116,-65,48,116,7,5,0,162,169,173,163,1,4757
59.714944124,0,-1,-1,0,3,-1,1,0,0,-65,48,116,-65,48,116,7,5,0,175,157,170,164,1,4758
59.725943088,0,-1,-1,0,3,-1,1,1,-1,-65,48,116,-65,48,116,7,5,0,175,157,170,164,1,4759
59.746114015,-1,-2,-1,0,2,-1,0,2,-1,-63,-108,165,-63,-108,165,7,5,0,163,171,163,169,1,4760
59.760744095,0,-3,-1,-1,0,-1,-2,1,0,-63,28,239,-63,28,239,7,5,0,163,171,163,169,1,4761
59.768313169,0,-3,-1,-1,0,-1,-2,1,0,-63,28,239,-63,28,239,7,5,0,170,164,165,166,1,4762
59.779431105,0,-3,-1,0,0,-1,-1,-1,0,-63,28,239,-63,28,239,7,5,0,170,164,165,166,1,4763
59.798917055,-2,-2,-1,-1,0,-1,-1,-1,0,34,-72,218,34,-72,218,7,5,0,166,168,165,168,1,4764
59.810199022,-2,-1,-1,-1,0,-1,0,-2,1,28,-36,250,28,-36,250,7,5,0,164,170,164,168,1,4765
59.821891069,-2,-1,-1,-1,0,-1,0,-2,1,28,-36,250,28,-36,250,7,5,0,164,170,164,168,1,4766
59.832053184,-2,-1,-1,-1,0,-1,0,-1,1,28,-36,250,28,-36,250,7,5,0,165,165,171,164,1,4767
59.85194397,-3,0,-1,-2,0,-1,0,-1,1,54,-36,75,54,-36,75,7,5,0,165,166,169,167,1,4768
59.863011122,-2,2,-1,-2,0,-1,0,0,0,124,41,179,124,41,179,7,5,0,165,166,169,167,1,4769
59.874077082,-2,2,-1,-2,0,-1,0,0,0,124,41,179,124,41,179,7,5,0,170,162,168,166,1,4770
59.885145187,-2,2,-1,-2,0,-1,0,0,-1,124,41,179,124,41,179,7,5,0,170,162,168,166,1,4771
59.904024124,-1,4,-1,-2,2,-1,0,0,-1,117,64,219,117,64,219,7,5,0,165,169,167,165,1,4772
59.915073156,-1,4,-1,-1,2,-1,0,1,-1,-24,50,102,-24,50,102,7,5,0,165,169,167,165,1,4773
59.926126003,-1,4,-1,-1,2,-1,0,1,-1,-24,50,102,-24,50,102,7,5,0,170,165,171,160,1,4774
59.937494993,0,3,-1,-1,2,-1,-1,2,0,-24,50,102,-24,50,102,7,5,0,170,165,171,160,1,4775
59.957041025,-1,4,-1,-1,2,-1,-1,2,1,62,-22,18,62,-22,18,7,5,0,168,165,159,174,1,4776
59.96789217,-2,3,-1,-1,3,-1,0,1,2,-35,-48,184,-35,-48,184,7,5,0,168,165,159,174,1,4777
59.979133129,-2,3,-1,-1,3,-1,0,1,2,-35,-48,184,-35,-48,184,7,5,0,165,170,163,168,1,4778
59.990166187,-1,3,-1,-1,2,-1,0,-2,1,-35,-48,184,-35,-48,184,7,5,0,165,170,163,168,1,4779
60.010904074,-4,1,-1,-2,2,-1,0,-4,0,-106,-166,175,-106,-166,175,7,5,0,167,165,171,163,1,4780
60.022042036,-6,0,-1,-3,1,-1,-1,-4,0,-25,-174,249,-25,-174,249,7,5,0,167,165,171,163,1,4781
60.032966137,-6,0,-1,-3,1,-1,-1,-4,0,-25,-174,249,-25,-174,249,7,5,0,175,157,162,171,1,4782
60.044303179,-6,0,-1,-3,1,-1,-3,-1,-1,-25,-174,249,-25,-174,249,7,5,0,175,157,162,171,1,4783
60.065047026,-7,2,-1,-5,2,-1,-3,-1,-1,114,-111,249,114,-111,249,7,5,0,163,168,175,161,1,4784
60.074033022,-6,3,-1,-6,2,-1,-3,1,-1,44,23,97,44,23,97,7,5,0,163,168,175,161,1,4785
60.085009098,-6,3,-1,-6,2,-1,-3,1,-1,44,23,97,44,23,97,7,5,0,162,169,174,161,1,4786
60.096029997,-6,3,-1,-5,2,-1,-2,3,-2,44,23,97,44,23,97,7,5,0,162,169,174,161,1,4787
60.116014957,-6,5,-1,-6,3,-1,-2,3,-2,165,-8,8,165,-8,8,7,5,0,167,168,163,168,1,4788
60.126968145,-6,3,-1,-6,3,-1,0,4,-1,-106,-80,1,-106,-80,1,7,5,0,167,168,163,168,1,4789
60.137953997,-6,3,-1,-6,3,-1,0,4,-1,-106,-80,1,-106,-80,1,7,5,0,166,170,164,166,1,4790
60.149656057,-6,3,-1,-6,3,-1,3,3,0,-106,-80,1,-106,-80,1,7,5,0,166,170,164,166,1,4791
60.169020176,-7,1,-1,-7,2,-1,3,0,2,-183,-140,240,-183,-140,240,7,5,0,181,153,163,169,1,4792
60.180049181,-8,0,-1,-8,1,-1,0,-2,2,-19,-168,90,-19,-168,90,7,5,0,181,153,163,169,1,4793
60.191204071,-8,0,-1,-8,1,-1,0,-2,2,-19,-168,90,-19,-168,90,7,5,0,159,172,167,168,1,4794
60.202677011,-8,0,-1,-7,1,-1,-3,-3,0,-19,-168,90,-19,-168,90,7,5,0,159,172,167,168,1,4795
60.225944996,-11,0,-1,-9,1,-1,-3,-3,0,-84,-8,53,-84,-8,53,7,5,0,178,154,166,167,1,4796
60.233597994,-12,-2,-1,-11,0,-1,-6,-2,-1,-142,-162,203,-142,-162,203,7,5,0,178,154,166,167,1,4797
60.25347805,-12,-2,-1,-11,0,-1,-6,-2,-1,-142,-162,203,-142,-162,203,7,5,0,164,166,167,169,1,4798
60.256422996,-11,-1,-1,-10,0,-1,-6,0,-1,-142,-162,203,-142,-162,203,7,5,0,164,166,167,169,1,4799
60.274394035,-13,-5,-1,-12,-1,-1,-6,0,-1,-210,-107,129,-210,-107,129,7,5,0,163,171,169,163,1,4800
60.289000034,-13,-8,-1,-13,-3,-1,-3,0,-1,-5,-104,166,-5,-104,166,7,5,0,165,166,166,161,1,4801
60.299964189,-13,-8,-1,-13,-3,-1,-3,0,-1,-5,-104,166,-5,-104,166,7,5,0,165,166,166,161,1,4802
60.310945034,-12,-8,-1,-12,-3,-1,0,0,0,-5,-104,166,-5,-104,166,7,5,0,165,163,166,164,1,4803
60.330044031,-13,-10,-1,-14,-5,-1,0,0,0,-149,-52,219,-149,-52,219,7,5,0,164,164,167,163,1,4804
60.341001987,-10,-11,-1,-13,-8,-1,2,2,1,-121,130,171,-121,130,171,7,5,0,164,164,167,163,1,4805
60.352130175,-10,-11,-1,-13,-8,-1,2,2,1,-121,130,171,-121,130,171,7,5,0,162,168,166,162,1,4806
60.363011122,-9,-10,-1,-12,-7,-1,2,3,1,-121,130,171,-121,130,171,7,5,0,162,168,166,162,1,4807
60.383054018,-8,-10,-1,-12,-8,-1,2,3,1,53,142,72,53,142,72,7,5,0,165,161,167,165,1,4808
60.39401412,-5,-9,-1,-10,-9,-1,0,2,0,17,178,111,17,178,111,7,5,0,165,161,167,165,1,4809
60.40487504,-5,-9,-1,-10,-9,-1,0,2,0,17,178,111,17,178,111,7,5,0,165,161,163,169,1,4810
60.416126966,-5,-8,-1,-9,-8,-1,0,1,-2,17,178,111,17,178,111,7,5,0,165,161,163,169,1,4811
60.436005115,-3,-8,-1,-7,-8,-1,-1,-1,-2,7,83,168,7,83,168,7,5,0,164,166,162,166,1,4812
60.447164059,-6,-9,-1,-7,-8,-1,-2,-3,-1,-50,-116,56,-50,-116,56,7,5,0,164,166,162,166,1,4813
60.463948965,-6,-9,-1,-7,-8,-1,-2,-3,-1,-50,-116,56,-50,-116,56,7,5,0,167,163,160,168,1,4814
60.469001055,-6,-8,-1,-6,-8,-1,-2,-4,0,-50,-116,56,-50,-116,56,7,5,0,167,163,160,168,1,4815
60.48972106,-8,-4,-1,-7,-7,-1,-2,-4,0,207,-115,131,207,-115,131,7,5,0,162,169,168,160,1,4816
60.500225067,-10,-1,-1,-8,-4,-1,0,-2,2,188,-175,32,188,-175,32,7,5,0,162,169,168,160,1,4817
60.51117897,-10,-1,-1,-8,-4,-1,0,-2,2,188,-175,32,188,-175,32,7,5,0,164,167,169,157,1,4818
60.521850109,-9,-1,-1,-7,-4,-1,1,0,2,188,-175,32,188,-175,32,7,5,0,164,167,169,157,1,4819
60.540112972,-11,2,-1,-9,-2,-1,1,0,2,41,-122,6,41,-122,6,7,5,0,162,166,166,165,1,4820
60.55392003,-10,3,-1,-10,0,-1,2,3,1,139,-63,13,139,-63,13,7,5,0,162,166,166,165,1,4821
60.562169075,-10,3,-1,-10,0,-1,2,3,1,139,-63,13,139,-63,13,7,5,0,161,166,163,168,1,4822
60.573130131,-10,3,-1,-9,0,-1,2,4,0,139,-63,13,139,-63,13,7,5,0,161,166,163,168,1,4823
60.593031168,-9,4,-1,-9,2,-1,2,4,0,102,61,84,102,61,84,7,5,0,174,155,164,166,1,4824
60.603928089,-5,5,-1,-8,3,-1,0,1,-1,91,248,0,91,248,0,7,5,0,174,155,164,166,1,4825
60.614979029,-5,5,-1,-8,3,-1,0,1,-1,91,248,0,91,248,0,7,5,0,163,166,165,165,1,4826
60.625975132,-5,4,-1,-7,3,-1,-1,-1,-1,91,248,0,91,248,0,7,5,0,163,166,165,165,1,4827
60.645835161,-1,4,-1,-5,4,-1,-3,-1,0,21,5,216,21,5,216,7,5,0,164,166,161,167,1,4828
60.657083034,3,4,-1,-2,5,-1,-1,0,0,29,29,88,29,29,88,7,5,0,164,166,161,167,1,4829
60.668049097,3,4,-1,-2,5,-1,-1,0,0,29,29,88,29,29,88,7,5,0,161,165,173,159,1,4830
60.679815054,3,4,-1,-2,5,-1,1,0,0,29,29,88,29,29,88,7,5,0,161,165,173,159,1,4831
60.703716993,5,7,-1,0,6,-1,1,0,0,156,114,170,156,114,170,7,5,0,167,164,157,169,1,4832
60.709032059,4,7,-1,2,7,-1,2,0,0,47,-29,234,47,-29,234,7,5,0,167,164,157,169,1,4833
60.720311165,4,7,-1,2,7,-1,2,0,0,47,-29,234,47,-29,234,7,5,0,166,166,157,169,1,4834
60.737768173,3,6,-1,1,6,-1,0,-1,1,47,-29,234,47,-29,234,7,5,0,166,166,157,169,1,4835
60.751484156,2,5,-1,2,7,-1,0,-1,1,-84,-127,236,-84,-127,236,7,5,0,165,165,167,161,1,4836
60.763720989,4,3,-1,3,7,-1,0,-3,2,-82,96,136,-82,96,136,7,5,0,165,165,167,161,1,4837
60.773561954,4,3,-1,3,7,-1,0,-3,2,-82,96,136,-82,96,136,7,5,0,160,169,166,163,1,4838
60.784099102,3,3,-1,3,6,-1,0,-3,2,-82,96,136,-82,96,136,7,5,0,160,169,166,163,1,4839
60.804166078,0,1,-1,3,6,-1,0,-3,2,-28,-61,8,-28,-61,8,7,5,0,169,158,168,162,1,4840
60.815114021,4,1,-1,5,5,-1,0,0,0,-17,182,60,-17,182,60,7,5,0,169,158,168,162,1,4841
60.828585148,4,1,-1,5,5,-1,0,0,0,-17,182,60,-17,182,60,7,5,0,169,157,170,162,1,4842
60.836922169,3,1,-1,4,5,-1,0,4,-2,-17,182,60,-17,182,60,7,5,0,169,157,170,162,1,4843
60.857897043,6,1,-1,7,4,-1,-3,4,-3,13,163,187,13,163,187,7,5,0,167,163,159,169,1,4844
60.868360042,8,0,-1,9,3,-1,-3,1,-2,-95,124,195,-95,124,195,7,5,0,167,163,159,169,1,4845
60.879316091,8,0,-1,9,3,-1,-3,1,-2,-95,124,195,-95,124,195,7,5,0,158,171,163,166,1,4846
60.890485048,7,0,-1,8,3,-1,0,-2,0,-95,124,195,-95,124,195,7,5,0,158,171,163,166,1,4847
60.910346985,7,-2,-1,9,2,-1,1,-3,1,-147,9,254,-147,9,254,7,5,0,162,166,169,161,1,4848
60.921076059,7,-3,-1,10,0,-1,1,-2,1,-61,49,211,-61,49,211,7,5,0,162,166,169,161,1,4849
60.932042122,7,-3,-1,10,0,-1,1,-2,1,-61,49,211,-61,49,211,7,5,0,164,168,158,168,1,4850
60.947311163,7,-3,-1,9,0,-1,1,0,0,-61,49,211,-61,49,211,7,5,0,164,168,158,168,1,4851
60.963068962,5,-4,-1,9,0,-1,1,0,0,-109,-94,251,-109,-94,251,7,5,0,165,165,170,159,1,4852
60.975043058,5,-4,-1,9,-1,-1,2,0,0,14,34,35,14,34,35,7,5,0,165,165,170,159,1,4853
60.984941959,5,-4,-1,9,-1,-1,2,0,0,14,34,35,14,34,35,7,5,0,168,159,167,164,1,4854
60.996327162,5,-3,-1,8,-1,-1,1,1,0,14,34,35,14,34,35,7,5,0,168,159,167,164,1,4855
61.015026092,6,-5,-1,9,-2,-1,1,1,0,-87,90,26,-87,90,26,7,5,0,167,162,165,164,1,4856
61.026146173,8,-5,-1,9,-3,-1,-1,2,0,-117,226,128,-117,226,128,7,5,0,167,162,165,164,1,4857
61.045737982,8,-5,-1,9,-3,-1,-1,2,0,-117,226,128,-117,226,128,7,5,0,164,166,163,165,1,4858
61.050323009,7,-5,-1,9,-2,-1,-3,2,0,-117,226,128,-117,226,128,7,5,0,164,166,163,165,1,4859
61.067965031,9,-6,-1,10,-3,-1,-3,2,0,-128,249,111,-128,249,111,7,5,0,163,167,163,165,1,4860
61.079180956,10,-5,-1,11,-4,-1,-2,0,0,18,118,186,18,118,186,7,5,0,163,167,163,165,1,4861
61.090172052,10,-5,-1,11,-4,-1,-2,0,0,18,118,186,18,118,186,7,5,0,160,170,164,164,1,4862
61.105678081,9,-5,-1,10,-4,-1,1,-1,1,18,118,186,18,118,186,7,5,0,160,170,164,164,1,4863
61.121059179,8,-2,-1,10,-3,-1,3,-2,1,204,-49,17,204,-49,17,7,5,0,171,159,166,162,1,4864
61.132699013,7,0,-1,10,-2,-1,2,-2,0,130,0,29,130,0,29,7,5,0,171,159,166,162,1,4865
61.142958164,7,0,-1,10,-2,-1,2,-2,0,130,0,29,130,0,29,7,5,0,167,160,162,169,1,4866
61.154160976,7,0,-1,10,-2,-1,-1,-1,-1,130,0,29,130,0,29,7,5,0,167,160,162,169,1,4867
61.174041033,8,-2,-1,10,-2,-1,-1,-1,-1,-108,107,247,-108,107,247,7,5,0,168,161,170,158,1,4868
61.185177088,9,-1,-1,11,-2,-1,-5,0,0,6,133,109,6,133,109,7,5,0,166,163,163,165,1,4869
61.195922136,9,-1,-1,11,-2,-1,-5,0,0,6,133,109,6,133,109,7,5,0,166,163,163,165,1,4870
61.206959963,8,-1,-1,10,-2,-1,-5,1,0,6,133,109,6,133,109,7,5,0,158,170,167,162,1,4871
61.225929975,10,-3,-1,11,-2,-1,-5,1,0,-124,139,47,-124,139,47,7,5,0,162,167,166,163,1,4872
61.237010956,10,-2,-1,12,-2,-1,-2,2,0,18,100,121,18,100,121,7,5,0,162,167,166,163,1,4873
61.248116016,10,-2,-1,12,-2,-1,-2,2,0,18,100,121,18,100,121,7,5,0,160,168,163,167,1,4874
61.259099007,10,-2,-1,11,-2,-1,1,1,0,18,100,121,18,100,121,7,5,0,160,168,163,167,1,4875
61.27917099,11,0,-1,12,-1,-1,1,1,0,146,135,226,146,135,226,7,5,0,164,164,161,168,1,4876
61.293663025,11,0,-1,13,-1,-1,4,0,0,28,6,145,28,6,145,7,5,0,164,164,161,168,1,4877
61.301027059,11,0,-1,13,-1,-1,4,0,0,28,6,145,28,6,145,7,5,0,165,164,168,162,1,4878
61.312062025,10,0,-1,12,-1,-1,4,-1,0,28,6,145,28,6,145,7,5,0,165,164,168,162,1,4879
61.332029104,12,-2,-1,12,-1,-1,0,-1,0,-66,69,58,-66,69,58,7,5,0,172,154,167,164,1,4880
61.343002081,12,-3,-1,13,-1,-1,-2,0,-1,-40,40,166,-40,40,166,7,5,0,172,154,167,164,1,4881
61.354140997,12,-3,-1,13,-1,-1,-2,0,-1,-40,40,166,-40,40,166,7,5,0,160,169,162,168,1,4882
61.365103006,11,-2,-1,12,-1,-1,-4,1,-1,-40,40,166,-40,40,166,7,5,0,160,169,162,168,1,4883
61.38493514,14,-3,-1,13,-1,-1,-4,0,-1,-3,18,11,-3,18,11,7,5,0,160,168,165,164,1,4884
61.396116018,11,-5,-1,12,-2,-1,-2,0,-1,-114,-122,168,-114,-122,168,7,5,0,160,168,165,164,1,4885
61.409885168,11,-5,-1,12,-2,-1,-2,0,-1,-114,-122,168,-114,-122,168,7,5,0,173,157,162,166,1,4886
61.418513059,10,-4,-1,11,-2,-1,-1,0,0,-114,-122,168,-114,-122,168,7,5,0,173,157,162,166,1,4887
61.438551187,10,-8,-1,11,-4,-1,-1,0,0,-119,13,102,-119,13,102,7,5,0,158,171,165,163,1,4888
61.449016094,12,-9,-1,11,-5,-1,0,0,0,-185,212,170,-185,212,170,7,5,0,158,171,165,163,1,4889
61.460177183,12,-9,-1,11,-5,-1,0,0,0,-185,212,170,-185,212,170,7,5,0,167,161,169,161,1,4890
61.471019029,12,-9,-1,11,-5,-1,0,0,0,-185,212,170,-185,212,170,7,5,0,167,161,169,161,1,4891
61.490067005,12,-9,-1,12,-7,-1,0,0,0,-14,39,9,-14,39,9,7,5,0,169,159,165,164,1,4892
61.501186132,11,-6,-1,12,-6,-1,0,1,0,122,2,224,122,2,224,7,5,0,169,159,165,164,1,4893
61.51218605,11,-6,-1,12,-6,-1,0,1,0,122,2,224,122,2,224,7,5,0,155,175,165,163,1,4894
61.523054123,11,-6,-1,11,-6,-1,0,2,0,122,2,224,122,2,224,7,5,0,155,175,165,163,1,4895
61.54413414,8,-4,-1,10,-5,-1,0,1,0,63,-112,163,63,-112,163,7,5,0,163,166,168,161,1,4896
61.555052996,4,-7,-1,8,-6,-1,2,-1,0,-103,-85,44,-103,-85,44,7,5,0,163,166,168,161,1,4897
61.565957069,4,-7,-1,8,-6,-1,2,-1,0,-103,-85,44,-103,-85,44,7,5,0,167,162,159,170,1,4898
61.577399015,4,-7,-1,8,-5,-1,2,-1,0,-103,-85,44,-103,-85,44,7,5,0,167,162,159,170,1,4899
61.596130133,1,-10,-1,5,-8,-1,2,-1,0,-33,-224,-29,-33,-224,-29,7,5,0,168,162,170,158,1,4900
61.607203007,-3,-11,-1,1,-10,-1,0,0,0,-59,-164,-6,-59,-164,-6,7,5,0,170,159,170,158,1,4901
61.618319034,-3,-11,-1,1,-10,-1,0,0,0,-59,-164,-6,-59,-164,-6,7,5,0,170,159,161,168,1,4902
61.62914896,-3,-10,-1,1,-9,-1,-2,1,0,-59,-164,-6,-59,-164,-6,7,5,0,158,173,160,167,1,4903
61.649100065,-4,-14,-1,0,-12,-1,-2,1,0,-185,-74,135,-185,-74,135,7,5,0,163,168,167,160,1,4904
61.660217047,-5,-14,-1,-2,-13,-1,-3,1,1,-97,-129,247,-97,-129,247,7,5,0,163,168,167,160,1,4905
61.67162919,-5,-14,-1,-2,-13,-1,-3,1,1,-97,-129,247,-97,-129,247,7,5,0,161,169,168,159,1,4906
61.685889006,-5,-13,-1,-2,-12,-1,0,1,1,-97,-129,247,-97,-129,247,7,5,0,161,169,168,159,1,4907
61.701112032,-4,-13,-1,-3,-14,-1,0,1,1,-29,44,39,-29,44,39,7,5,0,166,162,158,172,1,4908
61.715892076,-4,-14,-1,-4,-15,-1,3,1,1,-85,3,207,-85,3,207,7,5,0,166,162,158,172,1,4909
61.723550081,-4,-14,-1,-4,-15,-1,3,1,1,-85,3,207,-85,3,207,7,5,0,163,167,165,163,1,4910
61.734023094,-4,-13,-1,-3,-14,-1,4,0,0,-85,3,207,-85,3,207,7,5,0,163,167,165,163,1,4911
61.753993034,-6,-13,-1,-5,-15,-1,4,0,0,-14,-117,193,-14,-117,193,7,5,0,170,160,162,166,1,4912
61.765027046,-9,-13,-1,-7,-15,-1,0,-1,0,-45,-13,1,-45,-13,1,7,5,0,170,160,162,166,1,4913
61.775954962,-9,-13,-1,-7,-15,-1,0,-1,0,-45,-13,1,-45,-13,1,7,5,0,173,155,166,164,1,4914
61.787183046,-8,-12,-1,-6,-14,-1,-4,-2,0,-45,-13,1,-45,-13,1,7,5,0,173,155,166,164,1,4915
61.807523012,-9,-13,-1,-7,-14,-1,-5,0,0,-190,-132,108,-190,-132,108,7,5,0,153,175,165,164,1,4916
61.818376064,-9,-13,-1,-8,-14,-1,-2,1,0,-91,-107,173,-91,-107,173,7,5,0,153,175,165,164,1,4917
61.828994989,-9,-13,-1,-8,-14,-1,-2,1,0,-91,-107,173,-91,-107,173,7,5,0,162,167,161,168,1,4918
61.84100604,-8,-12,-1,-7,-13,-1,3,1,0,-91,-107,173,-91,-107,173,7,5,0,162,167,161,168,1,4919
61.860090017,-7,-11,-1,-7,-13,-1,7,0,0,18,106,213,18,106,213,7,5,0,168,161,166,163,1,4920
61.870902061,-5,-9,-1,-7,-12,-1,6,0,0,120,126,50,120,126,50,7,5,0,168,161,166,163,1,4921
61.885022163,-5,-9,-1,-7,-12,-1,6,0,0,120,126,50,120,126,50,7,5,0,159,170,165,164,1,4922
61.893329143,-4,-8,-1,-6,-11,-1,2,0,0,120,126,50,120,126,50,7,5,0,159,170,165,164,1,4923
61.913216114,-4,-6,-1,-6,-11,-1,2,0,0,135,-3,236,135,-3,236,7,5,0,173,155,164,166,1,4924
61.924092054,-5,-4,-1,-6,-9,-1,0,1,0,89,-70,44,89,-70,44,7,5,0,173,155,164,166,1,4925
61.934899092,-5,-4,-1,-6,-9,-1,0,1,0,89,-70,44,89,-70,44,7,5,0,166,162,166,165,1,4926
61.945991993,-5,-4,-1,-6,-9,-1,-2,0,0,89,-70,44,89,-70,44,7,5,0,166,162,166,165,1,4927
61.96502018,-6,-6,-1,-6,-9,-1,-2,0,0,-183,-113,252,-183,-113,252,7,5,0,170,158,158,172,1,4928
61.97598505,-6,-5,-1,-7,-8,-1,-4,-1,-1,62,-30,252,62,-30,252,7,5,0,170,158,158,172,1,4929
61.987022161,-6,-5,-1,-7,-8,-1,-4,-1,-1,62,-30,252,62,-30,252,7,5,0,161,167,170,159,1,4930
61.998582125,-6,-4,-1,-6,-7,-1,-5,-2,-1,62,-30,252,62,-30,252,7,5,0,161,167,170,159,1,4931
62.021638155,-5,-4,-1,-6,-7,-1,-2,0,0,30,23,246,30,23,246,7,5,0,163,167,168,161,1,4932
62.030128956,-5,-1,-1,-6,-6,-1,2,2,1,113,-22,210,113,-22,210,7,5,0,163,167,168,161,1,4933
62.041017055,-5,-1,-1,-6,-6,-1,2,2,1,113,-22,210,113,-22,210,7,5,0,162,168,155,174,1,4934
62.053809166,-4,-1,-1,-5,-5,-1,5,3,1,113,-22,210,113,-22,210,7,5,0,162,168,155,174,1,4935
62.071007967,-2,0,-1,-5,-4,-1,5,3,1,166,154,6,166,154,6,7,5,0,166,164,171,158,1,4936
62.08558011,-3,4,-1,-4,-2,-1,3,0,1,129,-24,84,129,-24,84,7,5,0,166,164,171,158,1,4937
62.093243122,-3,4,-1,-4,-2,-1,3,0,1,129,-24,84,129,-24,84,7,5,0,167,163,164,165,1,4938
62.104061127,-3,3,-1,-4,-2,-1,0,-2,0,129,-24,84,129,-24,84,7,5,0,166,162,164,166,1,4939
62.12413001,-1,6,-1,-3,0,-1,0,-2,0,206,95,187,206,95,187,7,5,0,172,156,162,168,1,4940
62.135074139,-2,9,-1,-3,2,-1,-2,0,0,189,-49,0,189,-49,0,7,5,0,172,156,162,168,1,4941
62.149711132,-2,9,-1,-3,2,-1,-2,0,0,189,-49,0,189,-49,0,7,5,0,162,165,174,156,1,4942
62.157597065,-2,8,-1,-3,2,-1,-4,1,0,189,-49,0,189,-49,0,7,5,0,162,165,174,156,1,4943
62.175932169,-3,12,-1,-3,5,-1,-4,1,0,232,-86,132,232,-86,132,7,5,0,159,169,158,171,1,4944
62.187086105,-5,12,-1,-4,7,-1,-3,2,-1,76,-181,227,76,-181,227,7,5,0,159,169,158,171,1,4945
62.198312998,-5,12,-1,-4,7,-1,-3,2,-1,76,-181,227,76,-181,227,7,5,0,159,169,162,167,1,4946
62.208937168,-5,11,-1,-3,6,-1,0,0,-1,76,-181,227,76,-181,227,7,5,0,159,169,162,167,1,4947
62.230246067,-4,10,-1,-4,8,-1,5,-2,0,4,7,156,4,7,156,7,5,0,171,158,166,164,1,4948
62.241085052,-5,7,-1,-5,7,-1,4,-3,0,-218,-67,231,-218,-67,231,7,5,0,171,158,166,164,1,4949
62.251232147,-5,7,-1,-5,7,-1,4,-3,0,-218,-67,231,-218,-67,231,7,5,0,165,165,165,163,1,4950
62.261967182,-4,6,-1,-4,7,-1,0,0,0,-218,-67,231,-218,-67,231,7,5,0,165,165,165,163,1,4951
62.282994032,-4,6,-1,-5,7,-1,-4,2,0,61,-19,88,61,-19,88,7,5,0,167,160,167,164,1,4952
62.294229984,-7,7,-1,-6,7,-1,-6,3,0,68,-236,10,68,-236,10,7,5,0,167,160,167,164,1,4953
62.30499506,-7,7,-1,-6,7,-1,-6,3,0,68,-236,10,68,-236,10,7,5,0,164,165,162,167,1,4954
62.316058159,-6,6,-1,-5,6,-1,-4,2,0,68,-236,10,68,-236,10,7,5,0,164,165,162,167,1,4955
62.335102081,-8,5,-1,-7,6,-1,-4,2,0,-84,-62,179,-84,-62,179,7,5,0,162,166,164,166,1,4956
62.348847151,-11,5,-1,-9,6,-1,-1,0,-1,36,-212,155,36,-212,155,7,5,0,162,166,164,166,1,4957
62.360080957,-11,5,-1,-9,6,-1,-1,0,-1,36,-212,155,36,-212,155,7,5,0,169,159,168,162,1,4958
62.368458032,-10,4,-1,-8,6,-1,0,-1,-1,36,-212,155,36,-212,155,7,5,0,169,159,168,162,1,4959
62.393105984,-10,2,-1,-10,5,-1,0,-1,-1,-133,10,199,-133,10,199,7,5,0,159,170,164,165,1,4960
62.398993015,-9,1,-1,-10,4,-1,0,0,0,-80,5,9,-80,5,9,7,5,0,159,170,164,165,1,4961
62.41001296,-9,1,-1,-10,4,-1,0,0,0,-80,5,9,-80,5,9,7,5,0,162,167,170,160,1,4962
62.425857067,-8,1,-1,-9,4,-1,0,1,0,-80,5,9,-80,5,9,7,5,0,162,167,170,160,1,4963
62.440056085,-8,0,-1,-9,3,-1,0,1,0,-71,61,136,-71,61,136,7,5,0,166,164,158,170,1,4964
62.453773022,-6,0,-1,-8,2,-1,1,2,0,-16,172,180,-16,172,180,7,5,0,166,164,158,170,1,4965
62.461974144,-6,0,-1,-8,2,-1,1,2,0,-16,172,180,-16,172,180,7,5,0,165,164,162,167,1,4966
62.473037958,-5,0,-1,-8,2,-1,1,0,0,-16,172,180,-16,172,180,7,5,0,165,164,162,167,1,4967
62.494040966,-3,0,-1,-6,1,-1,0,-2,0,-33,10,183,-33,10,183,7,5,0,163,164,169,162,1,4968
62.504891157,-1,-1,-1,-4,0,-1,-3,-2,0,-83,94,197,-83,94,197,7,5,0,163,164,169,162,1,4969
62.516102075,-1,-1,-1,-4,0,-1,-3,-2,0,-83,94,197,-83,94,197,7,5,0,162,166,158,171,1,4970
62.527276993,-1,-1,-1,-4,0,-1,-2,0,-1,-83,94,197,-83,94,197,7,5,0,162,166,158,171,1,4971
62.545943022,0,0,-1,-3,0,-1,-2,0,-1,58,13,147,58,13,147,7,5,0,158,170,171,159,1,4972
62.556915998,-1,0,-2,-2,0,-2,1,0,-2,-3,-48,196,-3,-48,196,7,5,0,158,170,171,159,1,4973
62.569782019,-1,0,-2,-2,0,-2,1,0,-2,-3,-48,196,-3,-48,196,7,5,0,174,153,174,157,1,4974
62.579144001,-1,0,-1,-2,0,-1,3,1,-1,-3,-48,196,-3,-48,196,7,5,0,174,153,174,157,1,4975
62.605612039,0,1,-1,-1,0,-1,3,1,-1,78,113,53,78,113,53,7,5,0,162,168,160,168,1,4976
62.610000133,-1,0,-1,0,0,-1,1,3,0,-36,-99,41,-36,-99,41,7,5,0,162,168,160,168,1,4977
62.620970964,-1,0,-1,0,0,-1,1,3,0,-36,-99,41,-36,-99,41,7,5,0,162,169,162,164,1,4978
62.633970976,-1,0,-1,0,0,-1,-1,4,0,-36,-99,41,-36,-99,41,7,5,0,162,169,162,164,1,4979
62.652582168,0,2,-1,0,0,-1,-1,4,0,80,25,138,80,25,138,7,5,0,168,163,159,168,1,4980
62.664983988,-3,-1,-1,-1,0,-1,-1,0,2,-192,-156,38,-192,-156,38,7,5,0,168,163,159,168,1,4981
62.673148155,-3,-1,-1,-1,0,-1,-1,0,2,-192,-156,38,-192,-156,38,7,5,0,158,172,162,166,1,4982
62.683905125,-3,-1,-1,-1,0,-1,2,-4,2,-192,-156,38,-192,-156,38,7,5,0,158,172,162,166,1,4983
62.705239057,-5,1,-1,-3,0,-1,3,-4,1,142,-164,102,142,-164,102,7,5,0,168,164,167,159,1,4984
62.71608901,-7,4,-1,-5,1,-1,1,-1,0,181,-137,195,181,-137,195,7,5,0,168,164,167,159,1,4985
62.727097034,-7,4,-1,-5,1,-1,1,-1,0,181,-137,195,181,-137,195,7,5,0,173,155,167,163,1,4986
62.737980127,-6,3,-1,-4,1,-1,-2,2,0,181,-137,195,181,-137,195,7,5,0,173,155,167,163,1,4987
62.757984161,-7,6,-1,-6,3,-1,-2,2,0,210,-36,254,210,-36,254,7,5,0,163,167,170,158,1,4988
62.768370151,-6,6,-1,-6,4,-1,-4,3,0,74,33,124,74,33,124,7,5,0,163,167,170,158,1,4989
62.779045105,-6,6,-1,-6,4,-1,-4,3,0,74,33,124,74,33,124,7,5,0,165,162,157,174,1,4990
62.790062189,-6,6,-1,-5,4,-1,-3,3,0,74,33,124,74,33,124,7,5,0,165,162,157,174,1,4991
62.810098171,-4,6,-1,-5,5,-1,-3,3,0,11,98,213,11,98,213,7,5,0,155,173,167,163,1,4992
62.821000099,-7,6,-1,-6,5,-1,0,0,0,21,-124,111,21,-124,111,7,5,0,155,173,167,163,1,4993
62.832264185,-7,6,-1,-6,5,-1,0,0,0,21,-124,111,21,-124,111,7,5,0,160,170,164,163,1,4994
62.842972994,-6,6,-1,-5,5,-1,4,-1,-1,21,-124,111,21,-124,111,7,5,0,160,170,164,163,1,4995
62.862105131,-9,9,-1,-7,7,-1,4,-1,-1,146,-143,9,146,-143,9,7,5,0,172,156,160,170,1,4996
62.873031139,-10,10,-1,-8,9,-1,5,-1,0,61,-25,112,61,-25,112,7,5,0,172,156,160,170,1,4997
62.884027958,-10,10,-1,-8,9,-1,5,-1,0,61,-25,112,61,-25,112,7,5,0,164,163,174,156,1,4998
62.895080089,-9,9,-1,-7,8,-1,2,0,0,61,-25,112,61,-25,112,7,5,0,164,163,174,156,1,4999
62.915987015,-9,7,-1,-8,8,-1,-3,1,0,-65,-30,137,-65,-30,137,7,5,0,167,163,169,159,1,5000
62.926889181,-9,6,-1,-9,8,-1,-6,2,0,-45,-54,249,-45,-54,249,7,5,0,167,163,169,159,1,5001
62.93851614,-9,6,-1,-9,8,-1,-6,2,0,-45,-54,249,-45,-54,249,7,5,0,170,159,158,171,1,5002
62.949156999,-9,5,-1,-8,7,-1,-4,2,0,-45,-54,249,-45,-54,249,7,5,0,170,159,158,171,1,5003
62.971143961,-7,3,-1,-8,6,-1,-1,1,0,-103,71,230,-103,71,230,7,5,0,153,173,163,169,1,5004
62.979940176,-6,1,-1,-7,5,-1,1,0,0,-169,45,8,-169,45,8,7,5,0,153,173,163,169,1,5005
62.991153955,-6,1,-1,-7,5,-1,1,0,0,-169,45,8,-169,45,8,7,5,0,163,167,158,170,1,5006
63.00191617,-5,1,-1,-6,4,-1,5,-2,-1,-169,45,8,-169,45,8,7,5,0,163,167,158,170,1,5007
63.02108407,-5,2,-1,-6,4,-1,5,-2,-1,104,17,118,104,17,118,7,5,0,162,166,167,164,1,5008
63.03360796,-6,1,-2,-6,4,-2,6,-4,-1,-44,-150,55,-44,-150,55,7,5,0,162,166,167,164,1,5009
63.043008089,-6,1,-2,-6,4,-2,6,-4,-1,-44,-150,55,-44,-150,55,7,5,0,166,161,177,153,1,5010
63.054092169,-6,1,-2,-6,3,-2,3,-2,-1,-44,-150,55,-44,-150,55,7,5,0,166,161,177,153,1,5011
63.073969126,-8,0,-2,-7,3,-2,3,-2,-1,-133,-195,86,-133,-195,86,7,5,0,170,158,160,170,1,5012
63.085031986,-9,-1,-1,-8,1,-1,0,2,0,-249,-209,154,-249,-209,154,7,5,0,170,158,160,170,1,5013
63.096116066,-9,-1,-1,-8,1,-1,0,2,0,-249,-209,154,-249,-209,154,7,5,0,168,163,164,163,1,5014
63.106969118,-8,-1,-1,-7,1,-1,-4,5,0,-249,-209,154,-249,-209,154,7,5,0,168,163,164,163,1,5015
63.126983166,-9,-2,-1,-9,0,-1,-4,5,0,-155,-94,191,-155,-94,191,7,5,0,163,168,160,166,1,5016
63.138537168,-10,-5,-1,-9,-1,-1,-4,1,0,-15,-164,233,-15,-164,233,7,5,0,163,168,160,166,1,5017
63.149010181,-10,-5,-1,-9,-1,-1,-4,1,0,-15,-164,233,-15,-164,233,7,5,0,159,170,162,168,1,5018
63.16013217,-9,-5,-1,-8,-1,-1,-1,-3,2,-15,-164,233,-15,-164,233,7,5,0,159,170,162,168,1,5019
63.179983139,-8,-5,-1,-9,-2,-1,3,-4,1,-20,43,37,-20,43,37,7,5,0,173,159,167,160,1,5020
63.190956116,-8,-7,-1,-9,-4,-1,5,-1,0,-148,-45,163,-148,-45,163,7,5,0,173,159,167,160,1,5021
63.20216918,-8,-7,-1,-9,-4,-1,5,-1,0,-148,-45,163,-148,-45,163,7,5,0,163,166,163,166,1,5022
63.217859983,-8,-7,-1,-8,-4,-1,1,1,0,-148,-45,163,-148,-45,163,7,5,0,163,166,163,166,1,5023
63.232051134,-6,-8,-1,-8,-5,-1,1,1,0,-122,143,254,-122,143,254,7,5,0,172,156,169,162,1,5024
63.246097088,-4,-6,-1,-8,-6,-1,-3,1,0,56,58,165,56,58,165,7,5,0,165,163,169,162,1,5025
63.254233122,-4,-6,-1,-8,-6,-1,-3,1,0,56,58,165,56,58,165,7,5,0,165,163,166,164,1,5026
63.265112162,-4,-6,-2,-7,-6,-2,-6,1,0,56,58,165,56,58,165,7,5,0,161,163,168,166,1,5027
63.284939051,0,-7,-2,-6,-7,-2,-6,1,0,-44,222,172,-44,222,172,7,5,0,162,162,168,166,1,5028
63.296355963,1,-7,-1,-3,-7,-1,-4,1,-2,-78,214,21,-78,214,21,7,5,0,162,162,168,166,1,5029
63.308315039,1,-7,-1,-3,-7,-1,-4,1,-2,-78,214,21,-78,214,21,7,5,0,166,164,166,162,1,5030
63.318134069,1,-6,-1,-3,-7,-1,-1,2,-3,-78,214,21,-78,214,21,7,5,0,166,164,166,162,1,5031
63.338108063,3,-4,-1,-1,-7,-1,-1,2,-3,227,233,44,227,233,44,7,5,0,161,171,157,169,1,5032
63.348971128,7,-3,-1,1,-6,-1,0,1,-1,101,7,170,101,7,170,7,5,0,161,171,157,169,1,5033
63.360089064,7,-3,-1,1,-6,-1,0,1,-1,101,7,170,101,7,170,7,5,0,162,166,165,165,1,5034
63.370877027,6,-3,-1,1,-5,-1,2,-1,1,101,7,170,101,7,170,7,5,0,162,166,165,165,1,5035
63.391067028,8,-1,-1,4,-4,-1,2,-2,2,109,187,232,109,187,232,7,5,0,173,156,173,157,1,5036
63.402039051,8,-1,-1,5,-3,-1,1,0,0,19,13,11,19,13,11,7,5,0,173,156,173,157,1,5037
63.413376093,8,-1,-1,5,-3,-1,1,0,0,19,13,11,19,13,11,7,5,0,165,165,158,170,1,5038
63.424025059,7,0,-1,5,-3,-1,-2,2,-1,19,13,11,19,13,11,7,5,0,165,165,158,170,1,5039
63.443101168,8,-1,-1,7,-2,-1,-2,2,-1,-39,79,41,-39,79,41,7,5,0,171,157,172,158,1,5040
63.454076052,9,-3,-2,7,-3,-2,-5,3,0,-162,96,59,-162,96,59,7,5,0,171,157,172,158,1,5041
63.465036154,9,-3,-2,7,-3,-2,-5,3,0,-162,96,59,-162,96,59,7,5,0,164,163,165,166,1,5042
63.476094961,8,-2,-2,7,-2,-2,-5,2,0,-162,96,59,-162,96,59,7,5,0,164,163,165,166,1,5043
63.496009111,7,0,-2,8,-2,-2,-5,2,0,199,-65,23,199,-65,23,7,5,0,160,169,163,165,1,5044
63.507081032,6,1,-2,8,-1,-2,-3,1,0,158,-50,10,158,-50,10,7,5,0,160,169,163,165,1,5045
63.521136999,6,1,-2,8,-1,-2,-3,1,0,158,-50,10,158,-50,10,7,5,0,160,166,168,164,1,5046
63.52919817,6,1,-2,7,-1,-2,0,0,-1,158,-50,10,158,-50,10,7,5,0,160,166,168,164,1,5047
63.549614191,5,2,-2,7,0,-2,0,0,-1,91,-85,2,91,-85,2,7,5,0,162,169,159,169,1,5048
63.56013608,3,1,-2,6,0,-2,4,0,-1,-118,-79,5,-118,-79,5,7,5,0,162,169,159,169,1,5049
63.571115017,3,1,-2,6,0,-2,4,0,-1,-118,-79,5,-118,-79,5,7,5,0,168,163,166,161,1,5050
63.581850052,3,0,-2,5,0,-2,4,-1,0,-118,-79,5,-118,-79,5,7,5,0,168,163,166,161,1,5051
63.601119041,2,-2,-2,5,0,-2,4,-1,0,-186,-78,173,-186,-78,173,7,5,0,176,153,164,166,1,5052
63.611936092,3,-3,-2,4,-1,-2,0,-1,2,-140,110,7,-140,110,7,7,5,0,176,153,164,166,1,5053
63.62313509,3,-3,-2,4,-1,-2,0,-1,2,-140,110,7,-140,110,7,7,5,0,159,170,166,163,1,5054
63.634386062,3,-3,-2,4,-1,-2,-4,0,1,-140,110,7,-140,110,7,7,5,0,159,170,166,163,1,5055
63.654162168,4,-1,-1,4,-1,-1,-4,1,0,150,142,153,150,142,153,7,5,0,163,168,166,161,1,5056
63.665179014,5,0,-2,5,0,-2,0,2,-1,195,147,74,195,147,74,7,5,0,163,168,166,161,1,5057
63.676144123,5,0,-2,5,0,-2,0,2,-1,195,147,74,195,147,74,7,5,0,170,158,160,169,1,5058
63.687033176,4,0,-1,4,0,-1,3,2,0,195,147,74,195,147,74,7,5,0,170,158,160,169,1,5059
63.706986189,3,0,-1,5,0,-1,3,2,0,31,-83,247,31,-83,247,7,5,0,156,175,166,161,1,5060
63.718414068,3,0,-2,5,0,-2,2,0,1,-11,7,52,-11,7,52,7,5,0,156,175,166,161,1,5061
63.729102135,3,0,-2,5,0,-2,2,0,1,-11,7,52,-11,7,52,7,5,0,170,158,163,167,1,5062
63.740221023,3,0,-2,4,0,-2,0,-1,1,-11,7,52,-11,7,52,7,5,0,170,158,163,167,1,5063
63.760326147,2,2,-2,4,1,-2,0,-2,0,181,-55,27,181,-55,27,7,5,0,170,159,159,169,1,5064
63.77119708,2,2,-2,4,2,-2,-1,-2,-1,14,56,116,14,56,116,7,5,0,170,159,159,169,1,5065
63.782092094,2,2,-2,4,2,-2,-1,-2,-1,14,56,116,14,56,116,7,5,0,163,167,175,153,1,5066
63.793609142,2,2,-1,3,2,-1,-3,-2,-1,14,56,116,14,56,116,7,5,0,163,167,175,153,1,5067
63.813112974,4,4,-1,4,3,-1,-3,-2,-1,173,144,70,173,144,70,7,5,0,171,158,162,166,1,5068
63.828953028,6,4,-2,5,3,-2,-4,0,0,51,214,208,51,214,208,7,5,0,171,158,162,166,1,5069
63.834979057,6,4,-2,5,3,-2,-4,0,0,51,214,208,51,214,208,7,5,0,161,166,163,168,1,5070
63.845973968,6,4,-2,5,3,-2,-3,3,1,51,214,208,51,214,208,7,5,0,161,166,163,168,1,5071
63.866002083,8,4,-2,6,4,-2,-1,2,0,0,206,58,0,206,58,7,5,0,160,168,165,166,1,5072
63.877007007,11,3,-2,8,3,-2,1,-1,-1,-23,37,0,-23,37,0,7,5,0,160,168,165,166,1,5073
63.888689041,11,3,-2,8,3,-2,1,-1,-1,-23,37,0,-23,37,0,7,5,0,169,158,155,175,1,5074
63.899055004,10,3,-2,7,3,-2,2,-3,-1,-23,37,0,-23,37,0,7,5,0,169,158,155,175,1,5075
63.918939113,12,3,-2,10,4,-2,2,-3,-1,59,149,231,59,149,231,7,5,0,163,165,170,161,1,5076
63.929978132,11,3,-2,11,4,-2,0,-3,-1,4,8,184,4,8,184,7,5,0,161,166,176,154,1,5077
63.941069126,11,3,-2,11,4,-2,0,-3,-1,4,8,184,4,8,184,7,5,0,163,168,175,153,1,5078
63.95401907,11,3,-2,10,4,-2,-1,-1,-1,4,8,184,4,8,184,7,5,0,169,161,164,164,1,5079
63.97096014,12,2,-2,12,4,-2,-1,-1,-1,-103,105,54,-103,105,54,7,5,0,167,163,167,161,1,5080
63.982108116,13,4,-2,13,4,-2,-1,3,0,138,179,212,138,179,212,7,5,0,167,163,167,161,1,5081
63.993198156,13,4,-2,13,4,-2,-1,3,0,138,179,212,138,179,212,7,5,0,158,172,163,165,1,5082
64.004067182,13,3,-2,12,4,-2,0,6,1,138,179,212,138,179,212,7,5,0,158,172,163,165,1,5083
64.023946047,13,3,-2,14,4,-2,0,6,1,-64,65,61,-64,65,61,7,5,0,166,163,158,170,1,5084
64.034914017,13,1,-2,14,3,-2,1,3,2,-110,83,229,-110,83,229,7,5,0,166,163,158,170,1,5085
64.046041965,13,1,-2,14,3,-2,1,3,2,-110,83,229,-110,83,229,7,5,0,173,158,163,165,1,5086
64.057692051,12,1,-2,13,3,-2,0,-2,1,-110,83,229,-110,83,229,7,5,0,173,158,163,165,1,5087
64.077844143,9,-1,-2,12,1,-2,-2,-5,0,-162,-169,175,-162,-169,175,7,5,0,162,167,169,160,1,5088
64.087957144,8,-5,-2,12,0,-2,-4,-1,0,-209,-30,139,-209,-30,139,7,5,0,162,167,169,160,1,5089
64.103985071,8,-5,-2,12,0,-2,-4,-1,0,-209,-30,139,-209,-30,139,7,5,0,165,161,166,165,1,5090
64.109984159,7,-4,-2,11,0,-2,-3,2,0,-209,-30,139,-209,-30,139,7,5,0,165,161,166,165,1,5091
64.129763126,6,-5,-2,10,-2,-2,-3,2,0,-67,-51,218,-67,-51,218,7,5,0,162,165,170,160,1,5092
64.140068054,4,-3,-2,9,-3,-2,0,4,-1,43,-43,77,43,-43,77,7,5,0,162,165,170,160,1,5093
64.150917053,4,-3,-2,9,-3,-2,0,4,-1,43,-43,77,43,-43,77,7,5,0,159,173,159,168,1,5094
64.165807009,4,-3,-2,9,-3,-2,2,3,-1,43,-43,77,43,-43,77,7,5,0,159,173,159,168,1,5095
64.183056116,0,-4,-2,6,-4,-2,3,0,0,-71,-192,87,-71,-192,87,7,5,0,167,160,158,172,1,5096
64.193988085,-1,-2,-2,4,-4,-2,4,-1,1,69,-91,187,69,-91,187,7,5,0,167,160,158,172,1,5097
64.207566976,-1,-2,-2,4,-4,-2,4,-1,1,69,-91,187,69,-91,187,7,5,0,169,160,169,160,1,5098
64.215963125,-1,-2,-2,3,-4,-2,1,-2,0,69,-91,187,69,-91,187,7,5,0,169,160,169,160,1,5099
64.235165119,-5,-4,-2,0,-5,-2,1,-2,0,-148,-248,38,-148,-248,38,7,5,0,166,162,159,172,1,5100
64.246067047,-5,-8,-2,-1,-7,-2,-2,-3,-1,-219,-28,166,-219,-28,166,7,5,0,166,162,159,172,1,5101
64.261734962,-5,-8,-2,-1,-7,-2,-2,-3,-1,-219,-28,166,-219,-28,166,7,5,0,167,161,172,158,1,5102
64.268573046,-5,-7,-2,-1,-6,-2,-4,-2,-1,-219,-28,166,-219,-28,166,7,5,0,167,161,172,158,1,5103
64.289955139,-7,-8,-2,-3,-8,-2,-4,-2,-1,-24,-90,209,-24,-90,209,7,5,0,164,167,159,167,1,5104
64.298993111,-5,-7,-2,-4,-9,-2,-3,0,0,29,53,208,29,53,208,7,5,0,164,167,159,167,1,5105
64.310125112,-5,-7,-2,-4,-9,-2,-3,0,0,29,53,208,29,53,208,7,5,0,160,170,160,168,1,5106
64.321691036,-5,-6,-2,-4,-8,-2,0,0,1,29,53,208,29,53,208,7,5,0,160,170,160,168,1,5107
64.341156959,-4,-6,-2,-4,-8,-2,2,0,1,-26,34,15,-26,34,15,7,5,0,162,164,164,168,1,5108
64.356266022,-4,-5,-2,-4,-8,-2,2,-1,0,35,-46,108,35,-46,108,7,5,0,170,157,172,159,1,5109
64.36900115,-4,-5,-2,-4,-7,-2,0,0,-2,35,-46,108,35,-46,108,7,5,0,162,165,165,166,1,5110
64.394514084,-4,-5,-2,-4,-7,-2,0,0,-2,35,-46,108,35,-46,108,7,5,0,164,163,166,165,1,5111
64.404155969,-5,-6,-2,-4,-7,-2,-2,1,-3,-72,-40,143,-72,-40,143,7,5,0,164,163,166,165,1,5112
64.414926052,-5,-6,-2,-4,-7,-2,-2,1,-3,-72,-40,143,-72,-40,143,7,5,0,172,154,173,159,1,5113
64.426099062,-4,-5,-2,-4,-7,-2,-4,3,-3,-72,-40,143,-72,-40,143,7,5,0,172,154,173,159,1,5114
64.445945978,-7,-7,-2,-5,-7,-2,-4,3,-3,-41,-105,101,-41,-105,101,7,5,0,163,168,161,166,1,5115
64.457040071,-9,-3,-2,-6,-7,-2,-4,3,-1,92,-66,30,92,-66,30,7,5,0,163,168,161,166,1,5116
64.469565153,-9,-3,-2,-6,-7,-2,-4,3,-1,92,-66,30,92,-66,30,7,5,0,160,169,162,167,1,5117
64.479031086,-8,-2,-2,-6,-6,-2,-2,2,0,92,-66,30,92,-66,30,7,5,0,160,169,162,167,1,5118
64.500111103,-7,0,-2,-6,-5,-2,-2,2,0,157,90,35,157,90,35,7,5,0,163,165,160,170,1,5119
64.510220051,-6,0,-2,-5,-4,-2,0,0,0,164,69,137,164,69,137,7,5,0,163,165,160,170,1,5120
64.521403074,-6,0,-2,-5,-4,-2,0,0,0,164,69,137,164,69,137,7,5,0,161,170,164,162,1,5121
64.535139084,-6,0,-2,-5,-3,-2,3,-3,0,164,69,137,164,69,137,7,5,0,161,170,164,162,1,5122
64.552026033,-4,0,-2,-4,-2,-2,3,-2,0,-25,85,51,-25,85,51,7,5,0,170,159,167,162,1,5123
64.562968016,-5,1,-2,-4,-1,-2,0,0,0,63,-102,254,63,-102,254,7,5,0,170,159,167,162,1,5124
64.574201107,-5,1,-2,-4,-1,-2,0,0,0,63,-102,254,63,-102,254,7,5,0,168,159,164,167,1,5125
64.585183143,-5,1,-2,-4,-1,-2,-4,2,0,63,-102,254,63,-102,254,7,5,0,168,159,164,167,1,5126
64.603975057,-8,0,-2,-4,-1,-2,-4,2,0,-46,-130,155,-46,-130,155,7,5,0,163,167,169,159,1,5127
64.615060091,-10,1,-2,-6,0,-2,-5,2,0,93,-162,217,93,-162,217,7,5,0,163,167,169,159,1,5128
64.626263142,-10,1,-2,-6,0,-2,-5,2,0,93,-162,217,93,-162,217,7,5,0,168,162,162,166,1,5129
64.637246132,-9,1,-2,-5,0,-2,-2,0,0,93,-162,217,93,-162,217,7,5,0,168,162,162,166,1,5130
64.657435179,-9,2,-2,-6,0,-2,-2,0,0,108,-37,11,108,-37,11,7,5,0,159,170,163,167,1,5131
64.668022156,-10,2,-2,-7,1,-2,0,0,1,-10,-39,168,-10,-39,168,7,5,0,159,170,163,167,1,5132
64.685523033,-10,2,-2,-7,1,-2,0,0,1,-10,-39,168,-10,-39,168,7,5,0,161,171,166,161,1,5133
64.69018197,-9,2,-2,-6,1,-2,2,0,1,-10,-39,168,-10,-39,168,7,5,0,161,171,166,161,1,5134
64.710076094,-7,3,-2,-6,1,-2,2,0,1,49,141,228,49,141,228,7,5,0,170,159,157,172,1,5135
64.720973968,-6,5,-2,-6,2,-2,3,-1,1,85,0,145,85,0,145,7,5,0,170,159,157,172,1,5136
64.731935024,-6,5,-2,-6,2,-2,3,-1,1,85,0,145,85,0,145,7,5,0,162,165,171,160,1,5137
64.749812126,-6,4,-2,-5,2,-2,1,-1,0,85,0,145,85,0,145,7,5,0,162,165,171,160,1,5138
64.763034105,-8,2,-2,-5,3,-2,-1,0,-1,-58,-79,111,-58,-79,111,7,5,0,164,165,170,159,1,5139
64.775359154,-12,3,-2,-7,3,-2,-2,2,-1,60,-233,55,60,-233,55,7,5,0,164,165,170,159,1,5140
64.785175085,-12,3,-2,-7,3,-2,-2,2,-1,60,-233,55,60,-233,55,7,5,0,172,158,157,171,1,5141
64.796075106,-11,3,-2,-7,3,-2,-2,3,0,60,-233,55,60,-233,55,7,5,0,172,158,157,171,1,5142
64.815008163,-12,5,-2,-9,4,-2,-2,3,0,137,-95,4,137,-95,4,7,5,0,159,169,170,159,1,5143
64.825937033,-9,4,-2,-9,5,-2,-1,1,1,-6,98,179,-6,98,179,7,5,0,159,169,170,159,1,5144
64.839874029,-9,4,-2,-9,5,-2,-1,1,1,-6,98,179,-6,98,179,7,5,0,162,165,161,169,1,5145
64.848101139,-9,4,-2,-8,4,-2,0,-1,0,-6,98,179,-6,98,179,7,5,0,162,165,161,169,1,5146
64.868010044,-7,3,-2,-7,5,-2,0,-1,0,-24,195,79,-24,195,79,7,5,0,162,167,163,165,1,5147
64.879106998,-4,3,-2,-6,5,-2,1,-1,0,0,97,228,0,97,228,7,5,0,162,167,163,165,1,5148
64.889993191,-4,3,-2,-6,5,-2,1,-1,0,0,97,228,0,97,228,7,5,0,165,164,168,161,1,5149
64.900840998,-4,3,-2,-5,4,-2,3,0,-1,0,97,228,0,97,228,7,5,0,165,164,168,161,1,5150
64.92712307,-5,0,-2,-5,3,-2,1,0,0,-167,-72,104,-167,-72,104,7,5,0,164,167,167,160,1,5151
64.938426971,-6,0,-2,-4,3,-2,-1,2,1,-9,-63,230,-9,-63,230,7,5,0,164,167,167,160,1,5152
64.949242115,-6,0,-2,-4,3,-2,-1,2,1,-9,-63,230,-9,-63,230,7,5,0,172,157,165,165,1,5153
64.960874081,-6,0,-2,-4,2,-2,-3,3,1,-9,-63,230,-9,-63,230,7,5,0,172,157,165,165,1,5154
64.980993986,-4,-3,-2,-4,1,-2,-2,3,1,-152,46,164,-152,46,164,7,5,0,160,170,164,164,1,5155
64.991964102,-7,-4,-2,-4,0,-2,0,2,0,-74,-174,137,-74,-174,137,7,5,0,160,170,164,164,1,5156
65.003051996,-7,-4,-2,-4,0,-2,0,2,0,-74,-174,137,-74,-174,137,7,5,0,164,164,159,171,1,5157
65.014209986,-7,-4,-2,-4,0,-2,1,0,0,-74,-174,137,-74,-174,137,7,5,0,164,164,159,171,1,5158
65.040063143,-5,-3,-2,-4,-1,-2,2,-1,0,31,37,162,31,37,162,7,5,0,167,161,163,167,1,5159
65.057868004,-9,-4,-2,-6,-2,-2,1,-2,0,-80,-180,93,-80,-180,93,7,5,0,162,168,173,154,1,5160
65.065211058,-9,-4,-2,-6,-2,-2,1,-2,0,-80,-180,93,-80,-180,93,7,5,0,162,168,173,154,1,5161
65.076019049,-8,-3,-2,-5,-2,-2,0,0,-1,-80,-180,93,-80,-180,93,7,5,0,166,165,161,166,1,5162
65.096019029,-10,-2,-2,-7,-2,-2,0,0,-1,76,-100,140,76,-100,140,7,5,0,165,166,164,163,1,5163
65.106897116,-16,-2,-2,-11,-2,-2,0,2,0,1,-26,-12,1,-26,-12,7,5,0,165,166,164,163,1,5164
65.118447065,-16,-2,-2,-11,-2,-2,0,2,0,1,-26,-12,1,-26,-12,7,5,0,170,158,159,171,1,5165
65.129122019,-15,-2,-2,-10,-2,-2,0,2,1,1,-26,-12,1,-26,-12,7,5,0,170,158,159,171,1,5166
65.148996115,-15,-4,-2,-12,-3,-2,-1,0,0,-150,-86,199,-150,-86,199,7,5,0,162,166,171,159,1,5167
65.160063982,-16,-5,-2,-14,-4,-2,0,-1,-1,-102,-177,230,-102,-177,230,7,5,0,162,166,171,159,1,5168
65.170948028,-16,-5,-2,-14,-4,-2,0,-1,-1,-102,-177,230,-102,-177,230,7,5,0,165,167,157,170,1,5169
65.182001114,-15,-5,-2,-13,-3,-2,0,0,-1,-102,-177,230,-102,-177,230,7,5,0,165,167,157,170,1,5170
65.204771995,-15,-5,-2,-14,-4,-2,0,0,-1,-55,24,164,-55,24,164,7,5,0,165,161,169,163,1,5171
65.213199139,-14,-6,-2,-14,-5,-2,0,0,0,-151,19,81,-151,19,81,7,5,0,165,161,169,163,1,5172
65.224374056,-14,-6,-2,-14,-5,-2,0,0,0,-151,19,81,-151,19,81,7,5,0,161,168,170,159,1,5173
65.237689972,-13,-6,-2,-13,-5,-2,0,0,0,-151,19,81,-151,19,81,7,5,0,161,168,170,159,1,5174
65.254059076,-12,-4,-2,-13,-5,-2,0,0,0,115,39,53,115,39,53,7,5,0,167,161,158,172,1,5175
65.268481016,-10,-5,-2,-12,-5,-2,0,0,0,-88,88,211,-88,88,211,7,5,0,167,161,158,172,1,5176
65.276175976,-10,-5,-2,-12,-5,-2,0,0,0,-88,88,211,-88,88,211,7,5,0,166,163,171,158,1,5177
65.287178039,-9,-5,-2,-11,-5,-2,0,1,-1,-88,88,211,-88,88,211,7,5,0,166,163,171,158,1,5178
65.307054996,-9,-7,-2,-11,-6,-2,0,1,-1,-155,29,2,-155,29,2,7,5,0,164,168,161,165,1,5179
65.318300962,-6,-5,-2,-10,-6,-2,0,1,0,75,106,186,75,106,186,7,5,0,164,168,161,165,1,5180
65.329574108,-6,-5,-2,-10,-6,-2,0,1,0,75,106,186,75,106,186,7,5,0,165,164,159,170,1,5181
65.340048075,-6,-5,-2,-9,-6,-2,0,0,1,75,106,186,75,106,186,7,5,0,165,164,159,170,1,5182
65.359970093,-3,-6,-2,-8,-6,-2,0,0,1,-32,96,147,-32,96,147,7,5,0,163,165,166,165,1,5183
65.371087074,-1,-5,-2,-6,-6,-2,0,-2,1,1,149,195,1,149,195,7,5,0,163,165,166,165,1,5184
65.381963014,-1,-5,-2,-6,-6,-2,0,-2,1,1,149,195,1,149,195,7,5,0,168,161,164,165,1,5185
65.393180132,0,-5,-2,-5,-6,-2,0,-2,0,1,149,195,1,149,195,7,5,0,168,161,164,165,1,5186
65.412914038,1,-1,-2,-3,-5,-2,-1,-1,-1,237,165,166,237,165,166,7,5,0,158,170,167,162,1,5187
65.427587986,3,0,-2,0,-3,-2,-2,1,-1,135,129,155,135,129,155,7,5,0,158,170,167,162,1,5188
65.434959173,3,0,-2,0,-3,-2,-2,1,-1,135,129,155,135,129,155,7,5,0,161,166,169,162,1,5189
65.446009159,3,0,-2,0,-3,-2,0,3,0,135,129,155,135,129,155,7,5,0,161,166,169,162,1,5190
65.465027094,1,2,-2,0,-1,-2,0,3,0,121,-136,207,121,-136,207,7,5,0,161,166,165,166,1,5191
65.476021051,1,4,-2,0,0,-2,3,3,-1,216,40,102,216,40,102,7,5,0,171,159,162,166,1,5192
65.486989975,1,4,-2,0,0,-2,3,3,-1,216,40,102,216,40,102,7,5,0,171,159,162,166,1,5193
65.49793601,1,4,-2,0,0,-2,3,1,-2,216,40,102,216,40,102,7,5,0,163,167,156,172,1,5194
65.518007994,2,4,-2,1,2,-2,3,1,-2,5,31,149,5,31,149,7,5,0,165,165,159,169,1,5195
65.529199123,1,5,-2,1,3,-2,0,-1,-1,102,-7,220,102,-7,220,7,5,0,165,165,159,169,1,5196
65.54312396,1,5,-2,1,3,-2,0,-1,-1,102,-7,220,102,-7,220,7,5,0,164,164,172,159,1,5197
65.551018,1,5,-2,1,3,-2,-2,-3,0,102,-7,220,102,-7,220,7,5,0,164,164,172,159,1,5198
65.573042154,3,8,-2,2,5,-2,-2,-3,0,236,151,138,236,151,138,7,5,0,169,162,169,159,1,5199
65.58122611,3,11,-2,3,8,-2,-2,-1,1,229,34,187,229,34,187,7,5,0,169,162,169,159,1,5200
65.592056036,3,11,-2,3,8,-2,-2,-1,1,229,34,187,229,34,187,7,5,0,163,168,158,169,1,5201
65.605206966,3,10,-2,2,7,-2,0,2,0,229,34,187,229,34,187,7,5,0,163,168,158,169,1,5202
65.623970985,2,12,-2,3,9,-2,0,3,1,138,-27,221,138,-27,221,7,5,0,161,166,165,166,1,5203
65.635019064,3,11,-2,3,10,-2,0,1,1,-11,54,238,-11,54,238,7,5,0,161,166,165,166,1,5204
65.646341085,3,11,-2,3,10,-2,0,1,1,-11,54,238,-11,54,238,7,5,0,165,163,164,166,1,5205
65.657122135,3,10,-2,3,10,-2,0,-1,0,-11,54,238,-11,54,238,7,5,0,165,163,164,166,1,5206
65.677145004,5,7,-2,4,10,-2,1,-2,-1,-134,122,124,-134,122,124,7,5,0,162,166,156,173,1,5207
65.688080072,7,7,-2,6,10,-2,2,-3,-1,91,241,26,91,241,26,7,5,0,162,166,156,173,1,5208
65.698945999,7,7,-2,6,10,-2,2,-3,-1,91,241,26,91,241,26,7,5,0,166,160,174,158,1,5209
65.710129022,7,7,-2,5,9,-2,1,-4,-1,91,241,26,91,241,26,7,5,0,166,160,174,158,1,5210
65.729878187,10,5,-2,8,9,-2,1,-4,-1,-83,129,90,-83,129,90,7,5,0,166,163,159,169,1,5211
65.745763063,6,5,-2,8,9,-2,0,-2,-1,22,-116,124,22,-116,124,7,5,0,166,163,159,169,1,5212
65.751085043,6,5,-2,8,9,-2,0,-2,-1,22,-116,124,22,-116,124,7,5,0,165,167,169,158,1,5213
65.762370109,6,4,-2,8,8,-2,-2,0,0,22,-116,124,22,-116,124,7,5,0,165,167,169,158,1,5214
65.782597065,5,5,-2,8,9,-2,-2,0,0,23,-57,247,23,-57,247,7,5,0,168,162,167,161,1,5215
65.792986154,3,6,-2,7,9,-2,-1,2,1,111,-100,212,111,-100,212,7,5,0,168,162,167,161,1,5216
65.80410099,3,6,-2,7,9,-2,-1,2,1,111,-100,212,111,-100,212,7,5,0,155,175,154,174,1,5217
65.82170105,3,6,-2,6,8,-2,0,1,2,111,-100,212,111,-100,212,7,5,0,155,175,154,174,1,5218
65.834927082,1,4,-2,5,8,-2,4,-1,0,-146,-164,77,-146,-164,77,7,5,0,171,160,167,159,1,5219
65.846033096,-1,2,-2,2,6,-2,5,-3,-1,-196,-18,18,-196,-18,18,7,5,0,171,160,167,159,1,5220
65.856969118,-1,2,-2,2,6,-2,5,-3,-1,-196,-18,18,-196,-18,18,7,5,0,173,154,164,166,1,5221
65.868065119,-1,1,-2,2,6,-2,2,-2,-1,-196,-18,18,-196,-18,18,7,5,0,173,154,164,166,1,5222
65.887887001,-1,0,-2,1,4,-2,2,-2,-1,-220,-27,25,-220,-27,25,7,5,0,161,168,166,162,1,5223
65.899141073,0,-1,-2,0,2,-2,-4,0,0,-112,77,88,-112,77,88,7,5,0,161,168,166,162,1,5224
65.910155058,0,-1,-2,0,2,-2,-4,0,0,-112,77,88,-112,77,88,7,5,0,165,163,169,161,1,5225
65.921175003,0,-1,-2,0,2,-2,-6,2,0,-112,77,88,-112,77,88,7,5,0,165,163,169,161,1,5226
65.942155123,0,-2,-2,0,1,-2,-6,2,0,-126,114,147,-126,114,147,7,5,0,161,165,162,170,1,5227
65.951189041,3,-2,-2,1,0,-2,-1,2,0,12,147,129,12,147,129,7,5,0,159,173,163,164,1,5228
65.964615106,3,-2,-2,1,0,-2,-1,2,0,12,147,129,12,147,129,7,5,0,159,173,163,164,1,5229
65.972974062,3,-2,-2,1,0,-2,3,0,-1,12,147,129,12,147,129,7,5,0,169,162,156,171,1,5230
65.993026018,7,-3,-2,2,-1,-2,3,0,-1,-44,89,56,-44,89,56,7,5,0,165,165,159,168,1,5231
66.004198074,5,-3,-2,3,-2,-2,4,-2,0,13,-24,75,13,-24,75,7,5,0,165,165,159,168,1,5232
66.015216112,5,-3,-2,3,-2,-2,4,-2,0,13,-24,75,13,-24,75,7,5,0,168,159,168,163,1,5233
66.025994062,4,-2,-2,3,-2,-2,1,-3,1,13,-24,75,13,-24,75,7,5,0,168,159,168,163,1,5234
66.045431137,6,-6,-2,4,-4,-2,1,-3,1,-214,106,112,-214,106,112,7,5,0,162,167,171,157,1,5235
66.056071997,7,-6,-2,5,-5,-2,-1,-2,0,-7,127,235,-7,127,235,7,5,0,162,167,171,157,1,5236
66.066953182,7,-6,-2,5,-5,-2,-1,-2,0,-7,127,235,-7,127,235,7,5,0,173,156,159,170,1,5237
66.078292131,7,-5,-2,5,-5,-2,-3,1,0,-7,127,235,-7,127,235,7,5,0,173,156,159,170,1,5238
66.099344969,10,-4,-2,7,-5,-2,-3,3,-1,61,12,174,61,12,174,7,5,0,162,166,162,168,1,5239
66.110197067,12,-1,-2,9,-4,-2,-2,1,0,219,202,182,219,202,182,7,5,0,162,166,162,168,1,5240
66.121035099,12,-1,-2,9,-4,-2,-2,1,0,219,202,182,219,202,182,7,5,0,157,173,168,159,1,5241
66.132232189,11,-1,-2,9,-3,-2,0,0,0,219,202,182,219,202,182,7,5,0,157,173,168,159,1,5242
66.154230118,12,2,-2,11,-1,-2,2,-2,0,68,130,148,68,130,148,7,5,0,164,164,154,175,1,5243
66.163092136,11,6,-2,12,0,-2,3,-3,1,195,-20,157,195,-20,157,7,5,0,164,164,154,175,1,5244
66.17396903,11,6,-2,12,0,-2,3,-3,1,195,-20,157,195,-20,157,7,5,0,160,167,166,164,1,5245
66.189726114,10,5,-2,11,0,-2,2,-5,0,195,-20,157,195,-20,157,7,5,0,160,167,166,164,1,5246
66.204076052,9,7,-2,11,3,-2,2,-5,0,167,-104,8,167,-104,8,7,5,0,166,162,161,169,1,5247
66.216897011,7,7,-2,10,5,-2,1,-5,-1,45,-63,43,45,-63,43,7,5,0,166,162,161,169,1,5248
66.225128174,7,7,-2,10,5,-2,1,-5,-1,45,-63,43,45,-63,43,7,5,0,175,154,168,160,1,5249
66.236171961,6,7,-2,10,4,-2,0,-3,-1,45,-63,43,45,-63,43,7,5,0,175,154,168,160,1,5250
66.255922079,9,8,-2,10,6,-2,0,-3,-1,103,155,7,103,155,7,7,5,0,160,169,168,161,1,5251
66.266946077,10,8,-2,11,7,-2,-3,0,0,29,172,245,29,172,245,7,5,0,160,169,168,161,1,5252
66.278254986,10,8,-2,11,7,-2,-3,0,0,29,172,245,29,172,245,7,5,0,164,163,161,170,1,5253
66.289412975,10,7,-2,10,6,-2,-4,2,0,29,172,245,29,172,245,7,5,0,164,163,161,170,1,5254
66.308922052,10,10,-2,11,8,-2,0,0,0,19,148,13,19,148,13,7,5,0,162,167,162,168,1,5255
66.320031166,10,13,-2,11,10,-2,3,-2,0,47,21,140,47,21,140,7,5,0,162,167,162,168,1,5256
66.331043005,10,13,-2,11,10,-2,3,-2,0,47,21,140,47,21,140,7,5,0,159,170,164,165,1,5257
66.342041016,9,12,-2,10,9,-2,5,-4,0,47,21,140,47,21,140,7,5,0,159,170,164,165,1,5258
66.36227107,9,16,-2,11,12,-2,5,-4,0,20,-19,6,20,-19,6,7,5,0,169,159,168,162,1,5259
66.372922182,7,15,-2,10,14,-2,3,-2,0,38,-107,126,38,-107,126,7,5,0,169,159,168,162,1,5260
66.384876966,7,15,-2,10,14,-2,3,-2,0,38,-107,126,38,-107,126,7,5,0,165,165,168,160,1,5261
66.399372101,7,14,-2,9,13,-2,0,0,0,38,-107,126,38,-107,126,7,5,0,165,165,168,160,1,5262
66.414083004,5,13,-2,9,14,-2,0,0,0,-66,-247,153,-66,-247,153,7,5,0,165,163,158,172,1,5263
66.425073147,5,9,-2,7,13,-2,-1,2,0,-202,38,214,-202,38,214,7,5,0,165,163,158,172,1,5264
66.435950041,5,9,-2,7,13,-2,-1,2,0,-202,38,214,-202,38,214,7,5,0,166,161,171,161,1,5265
66.447074175,4,9,-2,7,12,-2,-1,1,-1,-202,38,214,-202,38,214,7,5,0,166,161,171,161,1,5266
66.467067003,6,10,-2,7,12,-2,-1,1,-1,42,72,194,42,72,194,7,5,0,161,168,163,165,1,5267
66.478006124,8,11,-2,7,12,-2,0,0,-1,151,171,198,151,171,198,7,5,0,161,168,163,165,1,5268
66.491177082,8,11,-2,7,12,-2,0,0,-1,151,171,198,151,171,198,7,5,0,166,165,152,175,1,5269
66.499969005,7,10,-2,6,11,-2,0,-1,0,151,171,198,151,171,198,7,5,0,166,165,152,175,1,5270
66.51898098,6,10,-2,7,12,-2,0,-1,0,12,-41,225,12,-41,225,7,5,0,166,163,171,158,1,5271
66.530220985,5,12,-2,6,13,-2,0,-2,1,217,-70,253,217,-70,253,7,5,0,166,163,171,158,1,5272
66.541100979,5,12,-2,6,13,-2,0,-2,1,217,-70,253,217,-70,253,7,5,0,160,170,170,157,1,5273
66.552067995,5,11,-2,6,12,-2,0,-1,2,217,-70,253,217,-70,253,7,5,0,160,170,170,157,1,5274
66.573024988,4,14,-2,5,13,-2,0,2,1,109,-26,94,109,-26,94,7,5,0,170,161,159,168,1,5275
66.584087133,6,14,-2,5,14,-2,0,5,0,63,160,182,63,160,182,7,5,0,170,161,159,168,1,5276
66.593989134,6,14,-2,5,14,-2,0,5,0,63,160,182,63,160,182,7,5,0,171,156,170,161,1,5277
66.605141163,6,13,-2,5,13,-2,-1,3,0,63,160,182,63,160,182,7,5,0,171,156,170,161,1,5278
66.625213146,6,11,-2,6,13,-2,-1,3,0,-118,43,184,-118,43,184,7,5,0,162,168,154,175,1,5279
66.635972023,6,6,-2,6,12,-2,-4,-1,0,-146,-6,85,-146,-6,85,7,5,0,162,168,154,175,1,5280
66.64748311,6,6,-2,6,12,-2,-4,-1,0,-146,-6,85,-146,-6,85,7,5,0,162,166,164,166,1,5281
66.657930136,5,5,-2,6,11,-2,-3,-4,0,-146,-6,85,-146,-6,85,7,5,0,162,166,164,166,1,5282
66.677917004,5,1,-2,6,9,-2,-3,-4,0,-182,-33,120,-182,-33,120,7,5,0,161,168,169,160,1,5283
66.689017057,7,0,-2,6,7,-2,0,-3,0,-41,103,129,-41,103,129,7,5,0,161,168,169,160,1,5284
66.700056076,7,0,-2,6,7,-2,0,-3,0,-41,103,129,-41,103,129,7,5,0,164,164,163,167,1,5285
66.717735052,6,0,-2,6,6,-2,3,-1,0,-41,103,129,-41,103,129,7,5,0,164,164,163,167,1,5286
66.729951143,7,0,-2,7,5,-2,3,-1,0,-28,9,134,-28,9,134,7,5,0,169,158,169,162,1,5287
66.741091967,5,1,-2,6,4,-2,2,1,0,59,-48,139,59,-48,139,7,5,0,169,158,169,162,1,5288
66.752068996,5,1,-2,6,4,-2,2,1,0,59,-48,139,59,-48,139,7,5,0,165,164,162,167,1,5289
66.763017177,5,1,-2,6,4,-2,-1,1,-1,59,-48,139,59,-48,139,7,5,0,165,164,162,167,1,5290
66.782989025,0,0,-2,4,3,-2,-3,0,0,-24,-172,103,-24,-172,103,7,5,0,163,166,161,168,1,5291
66.797876119,2,0,-2,3,1,-2,-1,-1,0,-42,66,-83,-42,66,-83,7,5,0,163,166,161,168,1,5292
66.805448055,2,0,-2,3,1,-2,-1,-1,0,-42,66,-83,-42,66,-83,7,5,0,169,161,167,161,1,5293
66.816136122,2,0,-2,2,1,-2,0,-2,1,-42,66,-83,-42,66,-83,7,5,0,169,161,167,161,1,5294
66.836080074,7,-2,-2,5,-1,-2,0,-2,1,-70,166,-55,-70,166,-55,7,5,0,163,166,164,165,1,5295
66.846999168,10,-3,-2,9,-3,-2,0,0,1,-40,133,-76,-40,133,-76,7,5,0,164,167,164,164,1,5296
66.858103037,10,-3,-2,9,-3,-2,0,0,1,-40,133,-76,-40,133,-76,7,5,0,159,171,172,155,1,5297
66.86964798,9,-2,-2,9,-3,-2,0,1,0,-40,133,-76,-40,133,-76,7,5,0,159,171,172,155,1,5298
66.888920069,11,-4,-2,12,-5,-2,0,1,0,-66,62,99,-66,62,99,7,5,0,168,162,158,169,1,5299
66.899909019,9,-1,-2,11,-4,-2,0,3,0,206,-159,198,206,-159,198,7,5,0,168,162,158,169,1,5300
66.911043167,9,-1,-2,11,-4,-2,0,3,0,206,-159,198,206,-159,198,7,5,0,162,165,159,172,1,5301
66.921878099,8,-1,-2,10,-3,-2,2,1,0,206,-159,198,206,-159,198,7,5,0,162,165,159,172,1,5302
66.941110134,8,1,-2,10,-1,-2,2,1,0,188,0,210,188,0,210,7,5,0,166,161,171,160,1,5303
66.952042103,4,1,-2,8,0,-2,1,-2,0,48,-192,234,48,-192,234,7,5,0,166,161,171,160,1,5304
66.963139057,4,1,-2,8,0,-2,1,-2,0,48,-192,234,48,-192,234,7,5,0,172,158,160,168,1,5305
66.973975181,4,1,-2,7,0,-2,-2,-3,-1,48,-192,234,48,-192,234,7,5,0,172,158,160,168,1,5306
66.993926048,2,2,-2,5,1,-2,-4,0,-1,95,-179,134,95,-179,134,7,5,0,160,171,166,162,1,5307
67.00504303,0,1,-2,3,1,-2,-2,2,0,-29,-235,6,-29,-235,6,7,5,0,160,171,166,162,1,5308
67.016069174,0,1,-2,3,1,-2,-2,2,0,-29,-235,6,-29,-235,6,7,5,0,163,166,173,156,1,5309
67.026968956,0,1,-2,3,1,-2,1,3,1,-29,-235,6,-29,-235,6,7,5,0,163,166,173,156,1,5310
67.047005176,0,0,-2,2,1,-2,1,3,1,-100,54,90,-100,54,90,7,5,0,161,169,157,170,1,5311
67.058505058,1,1,-2,1,1,-2,4,2,1,106,76,101,106,76,101,7,5,0,161,169,157,170,1,5312
67.073652029,1,1,-2,1,1,-2,4,2,1,106,76,101,106,76,101,7,5,0,164,167,160,167,1,5313
67.085669041,0,1,-2,1,1,-2,4,0,0,106,76,101,106,76,101,7,5,0,164,167,160,167,1,5314
67.101235151,2,2,-2,1,2,-2,4,0,0,78,63,212,78,63,212,7,5,0,170,158,161,169,1,5315
67.111035108,0,0,-2,0,2,-2,2,-3,1,-120,-87,216,-120,-87,216,7,5,0,170,158,161,169,1,5316
67.121966123,0,0,-2,0,2,-2,2,-3,1,-120,-87,216,-120,-87,216,7,5,0,165,165,167,161,1,5317
67.133648157,0,0,-2,0,2,-2,0,-4,1,-120,-87,216,-120,-87,216,7,5,0,165,165,167,161,1,5318
67.152004957,-1,3,-2,0,2,-2,0,-4,1,134,-90,168,134,-90,168,7,5,0,161,164,170,163,1,5319
67.164088964,-3,4,-2,-1,3,-2,-2,-2,0,89,-150,28,89,-150,28,7,5,0,161,164,170,163,1,5320
67.173949003,-3,4,-2,-1,3,-2,-2,-2,0,89,-150,28,89,-150,28,7,5,0,171,157,164,166,1,5321
67.184981108,-2,3,-2,-1,3,-2,-2,2,-2,89,-150,28,89,-150,28,7,5,0,171,157,164,166,1,5322
67.205172062,-3,5,-2,-2,4,-2,-2,2,-2,127,-98,78,127,-98,78,7,5,0,161,171,165,162,1,5323
67.215974092,-5,6,-2,-3,5,-2,-1,3,-1,197,-201,166,197,-201,166,7,5,0,161,171,165,162,1,5324
67.22714901,-5,6,-2,-3,5,-2,-1,3,-1,197,-201,166,197,-201,166,7,5,0,160,170,163,165,1,5325
67.238192081,-4,6,-2,-3,4,-2,0,1,0,197,-201,166,197,-201,166,7,5,0,160,170,163,165,1,5326
67.257938146,-4,8,-2,-3,6,-2,2,0,2,32,-8,130,32,-8,130,7,5,0,171,156,156,175,1,5327
67.269083977,-3,10,-2,-4,7,-2,3,-1,1,247,20,30,247,20,30,7,5,0,171,156,156,175,1,5328
67.280229092,-3,10,-2,-4,7,-2,3,-1,1,247,20,30,247,20,30,7,5,0,162,168,167,161,1,5329
67.291218996,-3,9,-2,-3,7,-2,0,-2,-1,247,20,30,247,20,30,7,5,0,162,168,167,161,1,5330
67.311242103,-4,12,-2,-4,9,-2,-2,-4,-1,206,-69,140,206,-69,140,7,5,0,166,165,169,157,1,5331
67.322072029,-6,16,-2,-5,11,-2,-3,-3,0,163,-89,-8,163,-89,-8,7,5,0,166,165,169,157,1,5332
67.332877159,-6,16,-2,-5,11,-2,-3,-3,0,163,-89,-8,163,-89,-8,7,5,0,169,159,171,160,1,5333
67.346148968,-5,15,-2,-4,10,-2,-2,0,0,163,-89,-8,163,-89,-8,7,5,0,169,159,171,160,1,5334
67.363950014,-9,16,-2,-6,14,-2,-2,0,0,58,-114,-57,58,-114,-57,7,5,0,166,166,162,164,1,5335
67.374978065,-4,14,-2,-7,16,-2,-1,4,0,-10,87,28,-10,87,28,7,5,0,166,166,162,164,1,5336
67.386034965,-4,14,-2,-7,16,-2,-1,4,0,-10,87,28,-10,87,28,7,5,0,160,167,154,176,1,5337
67.396968126,-3,13,-2,-6,15,-2,-1,3,0,-10,87,28,-10,87,28,7,5,0,160,167,154,176,1,5338
67.416198969,0,13,-2,-5,17,-2,-1,3,0,-30,159,184,-30,159,184,7,5,0,157,172,170,159,1,5339
67.427145004,3,13,-2,-3,18,-2,0,-1,0,28,89,26,28,89,26,7,5,0,157,172,170,159,1,5340
67.441792965,3,13,-2,-3,18,-2,0,-1,0,28,89,26,28,89,26,7,5,0,168,164,165,161,1,5341
67.44921112,3,12,-2,-3,17,-2,4,-4,0,28,89,26,28,89,26,7,5,0,168,164,165,161,1,5342
67.469617128,3,8,-2,-1,16,-2,3,0,0,-114,24,92,-114,24,92,7,5,0,169,160,162,168,1,5343
67.480065107,0,10,-2,-1,17,-2,-1,4,0,111,-129,8,111,-129,8,7,5,0,169,160,162,168,1,5344
67.492989063,0,10,-2,-1,17,-2,-1,4,0,111,-129,8,111,-129,8,7,5,0,165,162,172,158,1,5345
67.502920151,0,9,-2,-1,16,-2,-5,3,0,111,-129,8,111,-129,8,7,5,0,165,162,172,158,1,5346
67.52205801,-2,10,-2,-3,17,-2,-5,3,0,39,-200,209,39,-200,209,7,5,0,168,161,155,174,1,5347
67.533001184,-5,10,-2,-5,16,-2,-5,0,-1,44,-150,195,44,-150,195,7,5,0,168,161,155,174,1,5348
67.544008016,-5,10,-2,-5,16,-2,-5,0,-1,44,-150,195,44,-150,195,7,5,0,160,169,165,163,1,5349
67.555076122,-4,9,-2,-5,15,-2,-1,-2,0,44,-150,195,44,-150,195,7,5,0,160,169,165,163,1,5350
67.57507205,-6,10,-2,-7,16,-2,-1,-2,0,95,-117,70,95,-117,70,7,5,0,161,170,164,163,1,5351
67.586019993,-8,9,-2,-8,15,-2,1,-2,1,-63,-149,209,-63,-149,209,7,5,0,161,170,164,163,1,5352
67.597579956,-8,9,-2,-8,15,-2,1,-2,1,-63,-149,209,-63,-149,209,7,5,0,164,165,160,168,1,5353
67.607999086,-7,8,-2,-8,14,-2,3,-1,2,-63,-149,209,-63,-149,209,7,5,0,164,165,160,168,1,5354
67.627040148,-9,7,-2,-10,14,-2,3,-1,2,-25,-63,165,-25,-63,165,7,5,0,169,158,172,160,1,5355
67.638370991,-8,10,-2,-10,15,-2,2,0,1,226,5,206,226,5,206,7,5,0,169,158,172,160,1,5356
67.648926973,-8,10,-2,-10,15,-2,2,0,1,226,5,206,226,5,206,7,5,0,166,162,164,166,1,5357
67.660258055,-7,9,-2,-10,14,-2,0,0,-1,226,5,206,226,5,206,7,5,0,166,162,164,166,1,5358
67.679960966,-8,11,-2,-10,14,-2,-3,1,-2,143,-43,166,143,-43,166,7,5,0,161,168,163,166,1,5359
67.691059112,-8,14,-2,-10,16,-2,-3,1,-1,168,-47,120,168,-47,120,7,5,0,161,168,163,166,1,5360
67.702044964,-8,14,-2,-10,16,-2,-3,1,-1,168,-47,120,168,-47,120,7,5,0,166,163,167,162,1,5361
67.714051008,-7,13,-2,-10,15,-2,0,0,0,168,-47,120,168,-47,120,7,5,0,166,163,167,162,1,5362
67.734182119,-5,13,-2,-9,15,-2,2,0,0,46,82,213,46,82,213,7,5,0,158,173,158,169,1,5363
67.744909048,-2,10,-2,-7,14,-2,3,0,0,-199,254,5,-199,254,5,7,5,0,158,173,158,169,1,5364
67.756402016,-2,10,-2,-7,14,-2,3,0,0,-199,254,5,-199,254,5,7,5,0,162,169,167,160,1,5365
67.76701808,-2,9,-2,-6,13,-2,4,-1,1,-199,254,5,-199,254,5,7,5,0,162,169,167,160,1,5366
67.786033153,0,8,-2,-5,13,-2,4,-1,1,-140,205,121,-140,205,121,7,5,0,166,165,157,170,1,5367
67.797041178,1,8,-2,-3,12,-2,5,-2,2,34,252,151,34,252,151,7,5,0,166,165,157,170,1,5368
67.80956912,1,8,-2,-3,12,-2,5,-2,2,34,252,151,34,252,151,7,5,0,168,158,166,165,1,5369
67.819270134,1,7,-2,-2,11,-2,2,-2,2,34,252,151,34,252,151,7,5,0,168,158,166,165,1,5370
67.83892107,0,8,-2,-1,11,-2,2,-2,2,19,-98,193,19,-98,193,7,5,0,171,157,172,159,1,5371
67.849980116,0,8,-2,-1,10,-2,-2,-1,0,89,-9,238,89,-9,238,7,5,0,171,157,172,159,1,5372
67.861019134,0,8,-2,-1,10,-2,-2,-1,0,89,-9,238,89,-9,238,7,5,0,163,165,159,170,1,5373
67.873731136,0,8,-2,0,10,-2,-5,0,-2,89,-9,238,89,-9,238,7,5,0,163,165,159,170,1,5374
67.891065121,0,7,-2,0,10,-2,-5,0,-2,-55,13,194,-55,13,194,7,5,0,157,171,169,161,1,5375
67.905977964,1,3,-2,0,8,-2,-4,1,-2,-232,113,221,-232,113,221,7,5,0,163,166,164,165,1,5376
67.917239189,1,3,-2,0,8,-2,-4,1,-2,-232,113,221,-232,113,221,7,5,0,163,166,164,165,1,5377
67.92871809,1,3,-2,0,7,-2,1,0,0,-232,113,221,-232,113,221,7,5,0,161,170,161,166,1,5378
67.948014974,1,1,-2,1,6,-2,1,0,0,-118,-12,56,-118,-12,56,7,5,0,162,169,163,165,1,5379
67.959321976,2,0,-2,2,4,-2,6,0,0,-102,182,198,-102,182,198,7,5,0,162,169,163,165,1,5380
67.96915698,2,0,-2,2,4,-2,6,0,0,-102,182,198,-102,182,198,7,5,0,167,163,163,165,1,5381
67.980091095,2,0,-2,2,4,-2,5,-1,1,-102,182,198,-102,182,198,7,5,0,167,163,163,165,1,5382
68.000001192,3,0,-2,3,3,-2,5,-1,1,-118,85,74,-118,85,74,7,5,0,177,154,162,166,1,5383
68.011160135,3,-1,-2,3,2,-2,0,-2,1,-73,70,111,-73,70,111,7,5,0,177,154,162,166,1,5384
68.025815964,3,-1,-2,3,2,-2,0,-2,1,-73,70,111,-73,70,111,7,5,0,160,168,161,169,1,5385
68.03296709,3,-1,-2,3,2,-2,-4,-2,1,-73,70,111,-73,70,111,7,5,0,160,168,161,169,1,5386
68.053022146,3,-4,-2,4,0,-2,-4,-2,1,-209,22,247,-209,22,247,7,5,0,160,166,167,164,1,5387
68.063987017,5,-6,-2,5,-1,-2,-4,-2,0,-229,193,202,-229,193,202,7,5,0,160,166,167,164,1,5388
68.075010061,5,-6,-2,5,-1,-2,-4,-2,0,-229,193,202,-229,193,202,7,5,0,160,165,170,163,1,5389
68.086176157,5,-5,-2,4,-1,-2,0,-1,-2,-229,193,202,-229,193,202,7,5,0,160,165,170,163,1,5390
68.110352993,7,-8,-2,6,-3,-2,0,-1,-2,-24,251,9,-24,251,9,7,5,0,166,165,166,161,1,5391
68.115926981,9,-9,-2,7,-5,-2,4,1,-3,-133,210,119,-133,210,119,7,5,0,166,165,166,161,1,5392
68.127340078,9,-9,-2,7,-5,-2,4,1,-3,-133,210,119,-133,210,119,7,5,0,168,162,163,165,1,5393
68.145749092,8,-8,-2,7,-4,-2,3,3,-1,-133,210,119,-133,210,119,7,5,0,168,162,163,165,1,5394
68.158390045,9,-9,-2,8,-6,-2,0,2,1,-167,187,40,-167,187,40,7,5,0,170,156,159,174,1,5395
68.170830011,10,-8,-2,10,-7,-2,-1,0,2,14,73,175,14,73,175,7,5,0,170,156,159,174,1,5396
68.180174112,10,-8,-2,10,-7,-2,-1,0,2,14,73,175,14,73,175,7,5,0,156,174,167,161,1,5397
68.191159963,10,-8,-2,9,-6,-2,0,-3,0,14,73,175,14,73,175,7,5,0,156,174,167,161,1,5398
68.211009025,11,-6,-2,11,-7,-2,0,-3,0,106,79,25,106,79,25,7,5,0,169,156,161,172,1,5399
68.222179174,7,-4,-2,10,-7,-2,0,-3,-2,115,-200,183,115,-200,183,7,5,0,169,156,161,172,1,5400
68.238289118,7,-4,-2,10,-7,-2,0,-3,-2,115,-200,183,115,-200,183,7,5,0,165,161,163,169,1,5401
68.244219065,6,-4,-2,9,-6,-2,0,-3,-3,115,-200,183,115,-200,183,7,5,0,165,161,163,169,1,5402
68.264101028,6,-4,-2,9,-6,-2,0,-3,-3,-5,-13,24,-5,-13,24,7,5,0,163,169,167,159,1,5403
68.274929047,5,-6,-2,8,-7,-2,-1,-2,-2,-196,-82,108,-196,-82,108,7,5,0,163,169,167,159,1,5404
68.286061048,5,-6,-2,8,-7,-2,-1,-2,-2,-196,-82,108,-196,-82,108,7,5,0,168,163,163,163,1,5405
68.297969103,4,-5,-2,8,-6,-2,-1,-1,0,-196,-82,108,-196,-82,108,7,5,0,168,163,163,163,1,5406
68.315984011,7,-7,-2,8,-7,-2,-1,-1,0,-112,153,230,-112,153,230,7,5,0,163,167,166,162,1,5407
68.330006122,6,-7,-2,8,-8,-2,0,0,2,-21,-3,206,-21,-3,206,7,5,0,163,167,166,162,1,5408
68.338309049,6,-7,-2,8,-8,-2,0,0,2,-21,-3,206,-21,-3,206,7,5,0,159,169,168,162,1,5409
68.349128961,6,-6,-2,8,-7,-2,1,2,2,-21,-3,206,-21,-3,206,7,5,0,159,169,168,162,1,5410
68.369026184,4,-5,-2,7,-7,-2,2,2,0,51,-108,225,51,-108,225,7,5,0,164,163,159,172,1,5411
68.380041122,0,-3,-2,5,-6,-2,1,0,-2,88,-164,75,88,-164,75,7,5,0,164,163,159,172,1,5412
68.391072988,0,-3,-2,5,-6,-2,1,0,-2,88,-164,75,88,-164,75,7,5,0,171,156,168,163,1,5413
68.402048111,0,-2,-2,4,-6,-2,0,-1,-3,88,-164,75,88,-164,75,7,5,0,171,156,168,163,1,5414
68.422003984,0,-5,-2,4,-7,-2,0,-1,-3,-124,6,175,-124,6,175,7,5,0,161,165,159,172,1,5415
68.432996988,2,-5,-2,4,-7,-2,-2,-3,-2,-37,154,237,-37,154,237,7,5,0,161,165,159,172,1,5416
68.44393301,2,-5,-2,4,-7,-2,-2,-3,-2,-37,154,237,-37,154,237,7,5,0,162,167,162,167,1,5417
68.455067158,2,-5,-2,3,-6,-2,-2,-3,-1,-37,154,237,-37,154,237,7,5,0,162,167,162,167,1,5418
68.474065065,4,-3,-2,5,-6,-2,-2,-3,-1,133,194,213,133,194,213,7,5,0,169,163,166,160,1,5419
68.485310078,7,-2,-2,7,-5,-2,0,-3,0,43,226,204,43,226,204,7,5,0,169,163,166,160,1,5420
68.496123075,7,-2,-2,7,-5,-2,0,-3,0,43,226,204,43,226,204,7,5,0,167,166,165,160,1,5421
68.507601023,7,-2,-2,6,-5,-2,0,-1,2,43,226,204,43,226,204,7,5,0,167,166,165,160,1,5422
68.527059078,8,-1,-2,8,-4,-2,0,-1,2,54,47,210,54,47,210,7,5,0,158,169,170,161,1,5423
68.538263082,9,0,-2,9,-3,-2,0,2,3,36,147,20,36,147,20,7,5,0,158,169,170,161,1,5424
68.550394058,9,0,-2,9,-3,-2,0,2,3,36,147,20,36,147,20,7,5,0,166,161,166,165,1,5425
68.560284138,8,0,-2,8,-3,-2,0,4,1,36,147,20,36,147,20,7,5,0,166,161,166,165,1,5426
68.579959154,10,-3,-2,10,-3,-2,0,4,1,-55,37,74,-55,37,74,7,5,0,166,161,163,168,1,5427
68.591233969,9,-4,-2,10,-3,-2,0,3,-2,-82,-33,32,-82,-33,32,7,5,0,166,161,163,168,1,5428
68.601953983,8,-3,-2,10,-3,-2,0,0,-4,-82,-33,32,-82,-33,32,7,5,0,162,168,160,168,1,5429
68.634303093,8,-2,-2,10,-2,-2,-2,-3,-1,99,21,48,99,21,48,7,5,0,161,166,162,168,1,5430
68.645055055,8,-2,-2,10,-2,-2,0,-4,0,-47,91,15,-47,91,15,7,5,0,161,166,162,168,1,5431
68.656105995,8,-2,-2,10,-2,-2,0,-4,0,-47,91,15,-47,91,15,7,5,0,164,167,166,162,1,5432
68.667148113,8,-2,-2,9,-2,-2,2,-3,1,-47,91,15,-47,91,15,7,5,0,164,167,166,162,1,5433
68.6861341,7,0,-2,10,-1,-2,2,-3,1,129,-46,231,129,-46,231,7,5,0,162,167,162,166,1,5434
68.696953058,8,1,-2,9,0,-2,4,-1,0,132,76,33,132,76,33,7,5,0,166,162,162,168,1,5435
68.70799613,8,1,-2,9,0,-2,4,-1,0,132,76,33,132,76,33,7,5,0,166,162,162,168,1,5436
68.725450992,7,0,-2,9,0,-2,2,-1,0,132,76,33,132,76,33,7,5,0,170,161,167,160,1,5437
68.739053011,7,1,-2,9,0,-2,2,-1,0,71,41,70,71,41,70,7,5,0,168,163,165,162,1,5438
68.749896049,7,0,-2,9,0,-2,0,0,0,-113,16,23,-113,16,23,7,5,0,168,163,165,162,1,5439
68.765701055,7,0,-2,9,0,-2,0,0,0,-113,16,23,-113,16,23,7,5,0,165,165,166,162,1,5440
68.772057056,7,0,-2,8,0,-2,-2,0,1,-113,16,23,-113,16,23,7,5,0,165,165,166,162,1,5441
68.791969061,8,-1,-2,9,0,-2,-2,0,1,-103,102,37,-103,102,37,7,5,0,164,165,168,162,1,5442
68.802945137,10,-3,-2,10,0,-2,-2,1,0,-88,103,107,-88,103,107,7,5,0,164,165,168,162,1,5443
68.815572023,10,-3,-2,10,0,-2,-2,1,0,-88,103,107,-88,103,107,7,5,0,159,169,167,164,1,5444
68.825158119,9,-2,-2,9,0,-2,0,3,0,-88,103,107,-88,103,107,7,5,0,159,169,167,164,1,5445
68.845906973,7,0,-2,9,0,-2,2,2,-1,115,-73,115,115,-73,115,7,5,0,165,163,161,169,1,5446
68.855981111,7,1,-2,9,0,-2,3,0,-1,68,14,183,68,14,183,7,5,0,165,163,161,169,1,5447
68.867148161,7,1,-2,9,0,-2,3,0,-1,68,14,183,68,14,183,7,5,0,166,162,165,165,1,5448
68.878117084,6,1,-2,8,0,-2,1,-2,0,68,14,183,68,14,183,7,5,0,166,162,165,165,1,5449
68.8981781,5,3,-2,7,1,-2,-1,-2,0,104,-28,137,104,-28,137,7,5,0,175,154,170,159,1,5450
68.909013033,2,2,-2,6,1,-2,-4,0,0,-47,-158,199,-47,-158,199,7,5,0,175,154,170,159,1,5451
