TiempoEjecucion,AnguloPitch,AnguloRoll,AnguloYaw,G_Pitch,G_Roll,G_Yaw,G_Pitch_filtrada,G_Roll_filtrada,G_Yaw_filtrada,Ax,Ay,Az,Ax_filtrada,Ay_filtrada,Az_filtrada,posZ,posZ_filtrada,velZ,motorDelantero,motorTrasero,motorDerecho,motorIzquierdo,EstadoEncendido,MensajesRecibidos
56.380887031,-6,-9,-5,-11,-3,-14,1,6,1,44,11,212,-14,-25,10,195,15,-1,214,163,193,208,1,4732
56.39113307,-6,-8,-5,6,-1,3,0,6,1,-63,-168,185,-17,-34,15,195,15,-1,176,216,194,192,1,4733
56.401287078,-6,-8,-5,1,3,1,0,6,0,100,-91,71,-1,-33,10,195,15,-1,199,191,201,187,1,4734
56.42861104,-6,-7,-5,0,3,-5,0,3,-1,-20,-160,187,-8,-48,9,195,15,-1,194,191,198,195,1,4735
56.437369108,-6,-7,-5,3,2,2,0,1,-2,169,-47,87,5,-34,1,195,15,-1,190,201,194,193,1,4736
56.446820974,-6,-6,-5,9,2,-2,0,0,-3,-238,12,64,2,-23,244,195,15,-1,183,204,197,194,1,4737
56.455910921,-6,-6,-5,-3,-15,3,0,0,-3,38,105,91,15,-11,232,195,15,-1,209,183,168,218,1,4738
56.483796119,-6,-5,-5,2,1,0,1,0,-2,-7,95,128,19,-12,226,195,15,-1,187,201,210,180,1,4739
56.492969989,-6,-5,-5,-4,-15,-1,2,0,-1,163,155,235,26,4,236,195,15,-1,203,184,171,219,1,4740
56.503210067,-5,-4,-5,0,14,0,3,0,0,214,253,202,37,15,234,195,15,-1,191,199,220,160,1,4741
56.511994123,-5,-3,-5,16,-1,-4,3,-1,0,-43,-127,77,40,20,242,195,15,-1,168,218,182,211,1,4742
56.540102958,-4,-2,-5,0,10,2,2,-2,1,255,134,134,43,33,227,195,15,-1,208,182,212,176,1,4743
56.55291295,-3,-1,-5,0,5,1,1,-3,0,107,93,132,51,56,227,195,15,-1,197,193,192,196,1,4744
56.559003114,-2,0,-5,-2,2,7,1,-2,0,-84,53,69,52,54,213,195,15,-1,201,194,190,193,1,4745
56.568144083,-1,0,-5,-11,-4,9,1,0,0,62,161,225,53,75,218,195,15,-1,212,184,183,199,1,4746
56.595941066,0,1,-5,8,6,1,2,2,0,-99,34,-222,58,70,203,195,15,-1,173,217,208,180,1,4747
56.60562396,0,2,-4,-20,-7,7,1,4,0,-16,208,245,54,68,209,195,15,-1,220,160,175,208,1,4748
56.615029096,2,3,-4,8,-2,5,0,5,2,-105,-121,162,48,56,217,195,15,-1,167,220,194,190,1,4749
56.623953104,3,3,-4,-4,3,-3,-1,4,4,212,-139,150,61,46,200,195,15,-1,206,180,203,189,1,4750
56.652225017,3,4,-4,4,-19,3,-3,2,6,-7,117,240,46,54,198,195,15,-1,186,206,162,220,1,4751
56.660954952,4,5,-4,6,3,0,-4,0,6,160,132,48,52,60,177,195,15,-1,189,200,216,173,1,4752
56.674154996,5,5,-4,10,-19,-2,-4,-2,5,-60,-60,107,52,53,185,195,15,-1,184,203,163,220,1,4753
56.679970026,6,6,-4,-10,-3,2,-2,-4,3,141,9,6,42,71,195,195,15,-1,220,171,204,183,1,4754
56.707869052,7,6,-4,15,5,2,0,-6,2,-138,-5,92,49,66,203,195,15,-1,163,220,206,181,1,4755
56.717067003,7,7,-4,-3,-2,-1,2,-7,0,121,-25,100,46,67,204,195,15,-1,212,175,187,203,1,4756
56.726825952,8,7,-4,3,13,6,4,-7,0,0,246,195,58,78,223,195,15,-1,189,205,214,170,1,4757
56.736675024,9,8,-4,0,-7,-1,5,-6,0,179,-166,179,52,65,227,195,15,-1,196,192,173,217,1,4758
56.767821073,9,8,-4,6,1,3,5,-3,0,-157,123,131,45,79,228,195,15,-1,187,205,202,184,1,4759
56.772900104,10,8,-4,-5,-5,0,3,0,1,-62,-183,236,33,62,228,195,15,-1,207,182,185,204,1,4760
56.783260107,10,8,-4,-6,0,-2,2,1,1,29,115,167,24,68,239,195,15,-1,199,188,199,192,1,4761
56.791934967,10,8,-4,-7,-3,6,1,2,2,151,-220,198,34,63,232,195,15,-1,203,191,187,197,1,4762
56.819907903,11,8,-4,-9,14,-1,0,2,2,57,88,-1,24,61,225,195,15,-1,201,187,220,170,1,4763
56.828977108,11,7,-4,-9,-8,1,-1,0,1,-227,-192,5,7,47,219,195,15,-1,202,188,169,218,1,4764
56.838831901,11,7,-4,1,14,0,-3,0,1,55,117,-24,27,50,214,195,15,-1,183,205,220,166,1,4765
56.848144054,11,7,-4,1,3,2,-5,-1,0,80,-184,93,28,33,195,195,15,-1,195,197,187,200,1,4766
56.87598896,11,7,-4,15,-5,-9,-6,0,0,80,147,165,37,38,227,195,15,-1,169,212,187,209,1,4767
56.885957002,11,7,-4,4,2,9,-6,1,0,181,-180,-43,47,19,200,195,15,-1,204,192,199,182,1,4768
56.894913911,10,8,-4,9,-5,-1,-4,3,0,-10,45,195,52,40,201,195,15,-1,183,205,185,206,1,4769
56.904109001,10,8,-4,-11,0,3,-1,4,0,27,-141,204,55,40,204,195,15,-1,220,170,197,189,1,4770
56.932039022,10,8,-4,7,-9,-3,3,3,0,177,32,8,64,36,192,195,15,-1,172,215,182,209,1,4771
56.940900087,10,9,-4,-13,0,1,6,1,0,99,-203,58,61,19,206,195,15,-1,220,168,202,186,1,4772
56.950961113,10,10,-4,1,2,-5,7,0,0,-201,-69,42,54,31,202,195,15,-1,179,205,201,192,1,4773
56.960309028,10,10,-4,1,8,10,5,-2,0,228,-61,22,59,15,203,195,15,-1,198,200,200,180,1,4774
56.988106012,9,10,-4,-2,-4,3,2,-4,0,-155,4,214,58,41,209,195,15,-1,200,191,180,207,1,4775
56.997028112,9,11,-4,10,6,3,-1,-3,0,56,143,156,55,49,212,195,15,-1,179,213,207,179,1,4776
57.009443998,10,11,-4,-2,0,2,-3,-1,0,55,83,-11,70,41,189,195,15,-1,208,183,187,200,1,4777
57.016216039,10,12,-4,-10,-5,0,-4,0,1,-225,164,195,50,58,190,195,15,-1,207,182,186,203,1,4778
57.044182062,10,12,-4,8,1,2,-2,2,2,172,-163,60,66,31,186,195,15,-1,174,216,201,187,1,4779
57.052928924,10,12,-4,-9,-10,-4,0,3,3,-76,-90,27,66,35,189,195,15,-1,214,171,180,213,1,4780
57.062820911,10,12,-4,5,1,0,0,2,3,-34,75,222,63,20,179,195,15,-1,178,210,205,184,1,4781
57.072458028,10,13,-4,-7,2,5,1,0,2,-68,-193,244,52,22,194,195,15,-1,212,182,195,189,1,4782
57.103976011,9,13,-4,1,5,5,0,-1,1,-103,91,82,43,9,198,195,15,-1,189,204,198,186,1,4783
57.109837055,9,13,-4,1,11,17,0,-2,0,24,3,8,56,19,198,195,15,-1,200,203,200,175,1,4784
57.118813991,9,13,-4,3,4,-2,-1,-3,0,-88,135,237,36,7,211,195,15,-1,190,197,194,197,1,4785
57.12827301,8,13,-4,-5,-8,-2,-2,-1,1,253,-190,80,45,7,210,195,15,-1,205,182,179,213,1,4786
57.155909061,8,13,-4,7,8,-3,-1,1,3,108,-203,227,46,-10,201,195,15,-1,177,209,216,176,1,4787
57.164935112,7,13,-3,-3,-7,10,-1,4,4,107,37,86,42,0,207,195,15,-1,209,188,173,208,1,4788
57.174827098,6,13,-3,-3,-6,0,0,5,5,94,163,86,48,-6,202,195,15,-1,196,192,192,198,1,4789
57.183881044,6,13,-3,0,3,19,0,4,4,63,146,154,37,8,212,195,15,-1,198,206,197,176,1,4790
57.211894035,5,12,-3,7,-9,-5,1,2,3,-123,81,206,22,10,222,195,15,-1,182,203,180,214,1,4791
57.220976114,5,12,-3,0,4,1,0,0,2,-37,175,86,15,29,223,195,15,-1,203,188,209,179,1,4792
57.235965967,5,11,-3,2,-8,-9,0,-2,2,-116,-149,241,19,25,221,195,15,-1,186,195,182,215,1,4793
57.240274906,5,11,-3,-6,1,9,0,-4,3,78,107,164,12,34,215,195,15,-1,210,186,199,182,1,4794
57.268063068,6,10,-3,-11,-9,2,0,-4,3,79,-186,161,23,11,212,195,15,-1,207,184,178,209,1,4795
57.277146101,5,10,-3,0,-2,-3,0,-4,2,-48,0,180,18,4,213,195,15,-1,184,202,201,191,1,4796
57.286823988,5,10,-3,-9,-9,0,0,-3,1,103,3,194,8,0,237,195,15,-1,208,181,183,207,1,4797
57.296205997,5,9,-3,3,11,2,-1,-2,0,-12,48,224,18,7,238,195,15,-1,183,208,218,169,1,4798
57.324193,4,9,-3,12,0,2,-3,-3,0,212,-215,199,20,4,2,195,15,-1,179,212,185,202,1,4799
57.332976102,4,9,-3,14,9,5,-4,-3,0,-150,141,-46,17,16,229,195,15,-1,186,207,207,178,1,4800
57.34285593,4,8,-3,0,2,5,-4,-2,0,142,84,128,25,17,237,195,15,-1,208,185,188,197,1,4801
57.352080106,4,8,-3,-9,-5,7,-2,-1,0,-71,6,-26,25,27,210,195,15,-1,212,183,181,201,1,4802
57.380099058,4,8,-3,-12,-10,2,1,1,1,174,7,237,39,22,231,195,15,-1,206,185,182,205,1,4803
57.389091968,4,8,-3,-10,-8,8,4,2,3,57,25,-94,41,23,213,195,15,-1,203,193,188,194,1,4804
57.399084091,4,8,-3,-11,3,3,5,3,4,44,224,192,47,28,223,195,15,-1,204,188,205,181,1,4805
57.410305976,5,8,-3,20,2,-8,2,1,5,-246,-192,10,22,28,220,195,15,-1,152,220,198,198,1,4806
57.435821056,5,8,-3,-5,13,1,-1,0,6,-79,84,169,13,55,230,195,15,-1,220,170,213,175,1,4807
57.444989919,6,8,-3,18,0,-4,-5,-3,5,-145,-193,86,0,43,230,195,15,-1,161,220,183,209,1,4808
57.454972982,6,7,-3,-4,8,-1,-7,-3,3,237,5,147,8,48,246,195,15,-1,216,172,209,182,1,4809
57.46729207,6,7,-3,-2,-5,7,-5,-2,1,-17,-55,49,-8,38,228,195,15,-1,198,197,176,207,1,4810
57.492012977,6,6,-3,-10,-11,-4,-1,1,0,3,88,115,10,51,236,195,15,-1,205,180,185,208,1,4811
57.500993013,7,6,-3,-5,-2,0,2,3,-2,-66,-136,164,8,36,227,195,15,-1,194,195,200,190,1,4812
57.510917902,7,5,-3,-6,-11,-1,4,4,-2,222,82,119,25,60,234,195,15,-1,198,190,181,209,1,4813
57.519906044,7,5,-3,0,13,6,3,3,-1,-71,-137,-117,18,48,220,195,15,-1,193,202,220,163,1,4814
57.547861099,8,5,-3,-2,0,2,0,0,0,89,-64,156,18,54,219,195,15,-1,199,192,181,206,1,4815
57.563883066,8,6,-3,-6,19,8,-3,-3,0,-79,-37,101,17,52,228,195,15,-1,205,191,220,160,1,4816
57.566988945,8,6,-3,12,0,-1,-6,-4,1,194,207,187,21,62,228,195,15,-1,170,218,180,210,1,4817
57.576034069,9,6,-3,-5,2,0,-7,-3,2,13,155,6,23,55,230,195,15,-1,213,177,198,191,1,4818
57.603878974,9,5,-3,2,-18,-1,-5,0,3,78,-129,12,16,59,208,195,15,-1,186,202,165,220,1,4819
57.612939119,9,5,-3,-5,1,-11,-3,3,3,28,136,-47,25,59,220,195,15,-1,201,179,216,182,1,4820
57.622927904,10,5,-3,-4,-5,-7,0,6,3,25,132,179,19,61,223,195,15,-1,194,190,189,206,1,4821
57.632462978,10,5,-3,-1,-1,9,1,5,1,54,-67,244,25,58,236,195,15,-1,197,200,192,189,1,4822
57.660289049,10,5,-3,1,10,8,2,2,0,14,224,151,17,68,232,195,15,-1,195,201,208,174,1,4823
57.669944047,11,5,-3,0,-10,6,0,-1,-2,-85,62,176,10,70,2,195,15,-1,199,195,168,216,1,4824
57.682272911,11,5,-3,2,11,3,0,-4,-3,-17,217,170,7,70,1,195,15,-1,191,201,218,167,1,4825
57.689039945,11,5,-3,8,0,-5,-2,-5,-1,-69,-154,208,16,72,11,195,15,-1,182,202,188,205,1,4826
57.716038942,11,4,-3,-14,10,4,-2,-3,0,165,86,170,28,72,254,195,15,-1,220,168,208,177,1,4827
57.726470947,12,4,-3,6,-9,1,-1,0,3,-45,-114,187,33,76,4,195,15,-1,174,217,171,217,1,4828
57.734873056,12,5,-3,-4,-2,0,0,2,5,97,15,224,26,76,251,195,15,-1,206,183,198,191,1,4829
57.744781971,12,5,-3,1,-11,0,0,4,5,-8,38,157,27,81,13,195,15,-1,189,200,179,210,1,4830
57.774080991,13,5,-3,10,3,-3,1,4,3,38,59,-158,28,80,242,195,15,-1,179,207,210,182,1,4831
57.782167911,13,5,-3,-4,0,2,0,2,1,36,-49,113,33,71,253,195,15,-1,211,180,192,195,1,4832
57.791211128,13,5,-3,10,7,-1,0,0,0,16,141,56,23,74,237,195,15,-1,174,214,206,184,1,4833
57.800823926,13,5,-3,-18,6,4,0,-3,-1,48,-133,123,29,74,249,195,15,-1,220,160,196,189,1,4834
57.827934026,14,5,-3,-3,2,-2,0,-4,-1,98,103,163,30,83,249,195,15,-1,183,204,194,197,1,4835
57.838392019,13,5,-3,-17,10,-1,1,-2,-1,-137,73,-10,27,88,231,195,15,-1,218,170,209,181,1,4836
57.847197055,14,5,-3,0,5,7,0,0,0,76,67,156,21,94,229,195,15,-1,183,212,190,192,1,4837
57.856863975,14,5,-3,2,4,-12,-1,3,0,43,-42,73,22,84,232,195,15,-1,185,193,202,198,1,4838
57.883904933,15,5,-3,14,0,-15,-4,6,0,-22,57,152,4,93,252,195,15,-1,169,207,196,205,1,4839
57.893918037,16,5,-3,14,-6,-6,-6,7,0,-75,188,151,0,96,6,195,15,-1,182,202,189,205,1,4840
57.903013944,16,4,-3,5,1,-5,-6,7,0,-67,192,48,-4,99,0,195,15,-1,196,189,203,190,1,4841
57.91300702,16,4,-3,-4,-5,-3,-3,5,-3,-17,-19,138,-8,102,250,195,15,-1,204,182,186,206,1,4842
57.939927101,17,4,-3,-2,-1,0,1,2,-6,95,101,180,-4,108,252,195,15,-1,194,195,197,192,1,4843
57.949822902,17,3,-3,-7,0,-2,6,0,-8,-158,-137,114,-8,98,249,195,15,-1,203,184,196,195,1,4844
57.960603952,17,3,-3,-5,2,0,8,-2,-8,-40,217,186,-9,98,250,195,15,-1,197,193,198,191,1,4845
57.968822002,17,2,-3,-1,-4,0,7,-4,-7,-118,-7,160,-11,105,247,195,15,-1,192,198,185,203,1,4846
57.996203899,18,2,-3,-7,8,2,4,-3,-4,55,21,118,-4,89,245,195,15,-1,206,185,211,177,1,4847
58.006793022,18,2,-3,-1,0,1,0,-2,-2,-129,-207,115,-8,85,241,195,15,-1,191,199,187,201,1,4848
58.015017986,18,2,-3,-8,3,0,-5,-1,0,167,138,-58,-5,78,227,195,15,-1,206,182,200,190,1,4849
58.024921894,18,1,-3,2,4,3,-7,0,1,-62,-203,187,5,66,215,195,15,-1,185,207,197,189,1,4850
58.054312944,18,1,-3,0,-3,1,-8,2,2,57,41,203,-6,65,234,195,15,-1,196,194,185,203,1,4851
58.061968088,18,1,-3,3,1,5,-6,3,2,-82,60,47,-12,83,217,195,15,-1,192,201,198,187,1,4852
58.070876121,18,1,-3,1,-12,0,-4,3,1,152,177,141,-5,72,222,195,15,-1,194,194,174,216,1,4853
58.080768108,18,1,-3,-3,-6,7,-1,2,1,-129,0,94,-14,79,233,195,15,-1,203,191,193,191,1,4854
58.108413934,18,0,-3,1,0,4,0,1,1,19,1,122,-18,74,218,195,15,-1,191,201,197,188,1,4855
58.118039131,18,0,-3,5,-4,-6,1,0,2,-158,-56,46,-19,68,221,195,15,-1,185,198,192,203,1,4856
58.127170085,18,0,-3,-2,6,2,2,-3,2,117,-183,242,-17,42,212,195,15,-1,203,188,206,181,1,4857
58.136899948,17,0,-3,10,2,-1,2,-5,2,-176,146,169,-28,52,204,195,15,-1,176,212,194,197,1,4858
58.165090084,17,0,-3,-11,2,-4,1,-5,2,90,-74,162,2,45,205,195,15,-1,218,167,198,194,1,4859
58.174467086,17,0,-3,2,0,-1,1,-4,1,-165,126,88,-1,55,215,195,15,-1,181,207,193,197,1,4860
58.183816909,17,0,-3,-5,0,-10,1,-1,0,55,-207,145,16,35,219,195,15,-1,201,180,198,200,1,4861
58.192910909,16,0,-3,11,-4,-8,0,0,-1,-183,39,136,8,38,219,195,15,-1,169,214,191,204,1,4862
58.22084403,16,0,-3,-10,0,0,0,2,-2,-95,-110,182,0,1,219,195,15,-1,220,169,197,191,1,4863
58.23010993,15,0,-3,9,-9,0,0,3,-4,28,-53,162,8,-6,209,195,15,-1,172,217,180,208,1,4864
58.240051984,13,0,-3,-9,-1,4,0,2,-5,85,-253,66,14,-30,203,195,15,-1,218,174,199,187,1,4865
58.249032974,12,0,-3,6,0,-12,0,0,-5,-44,87,176,5,-25,204,195,15,-1,171,208,202,197,1,4866
58.276870966,11,0,-3,-5,4,-6,0,-2,-4,176,79,8,11,-22,198,195,15,-1,206,178,204,190,1,4867
58.286968946,9,0,-3,-1,6,-1,0,-3,-3,-160,130,77,10,-5,196,195,15,-1,191,197,201,190,1,4868
58.295799016,9,0,-3,4,4,-3,0,-4,-2,37,71,-30,16,-9,198,195,15,-1,185,201,197,194,1,4869
58.304906129,8,0,-3,6,-6,8,0,-2,-2,-67,-104,32,16,-4,190,195,15,-1,193,203,178,204,1,4870
58.333038091,7,1,-3,-6,0,-5,0,0,-2,-54,129,71,10,-12,196,195,15,-1,207,177,202,191,1,4871
58.343008995,6,1,-3,0,0,2,0,2,-2,-195,228,118,5,-4,200,195,15,-1,190,201,192,195,1,4872
58.352128028,6,1,-3,-7,-5,-5,0,3,-2,-59,139,128,-5,-5,212,195,15,-1,203,181,189,204,1,4873
58.3625319,5,1,-3,-2,5,2,0,3,-1,60,205,41,3,4,197,195,15,-1,193,198,207,180,1,4874
58.388936042,5,1,-3,1,-2,0,0,1,0,151,-94,92,10,0,208,195,15,-1,190,199,185,204,1,4875
58.399106979,4,1,-3,-4,8,0,0,0,0,-54,72,4,15,18,219,195,15,-1,203,186,210,180,1,4876
58.407905101,4,1,-3,1,-4,0,-1,-1,0,158,-234,71,17,16,223,195,15,-1,188,200,180,209,1,4877
58.420035123,4,1,-3,0,0,-4,-2,-1,0,43,39,80,28,23,231,195,15,-1,195,191,199,193,1,4878
58.444991111,4,2,-3,7,-8,-3,-3,-1,0,87,-14,202,15,13,233,195,15,-1,181,205,183,209,1,4879
58.454945087,4,2,-3,4,0,3,-2,0,0,19,178,133,37,3,223,195,15,-1,196,196,201,185,1,4880
58.464204072,4,2,-3,0,0,6,-1,0,-1,70,-138,122,25,7,221,195,15,-1,200,194,193,191,1,4881
58.473865032,4,3,-3,1,4,2,0,0,-1,91,123,-138,39,11,208,195,15,-1,193,197,200,187,1,4882
58.500912904,4,3,-3,-9,5,3,2,0,-1,129,-93,211,50,24,196,195,15,-1,211,181,197,189,1,4883
58.512160062,4,4,-3,6,-4,2,3,-1,0,-46,-227,71,47,29,192,195,15,-1,177,214,182,205,1,4884
58.51996994,4,4,-3,-10,11,3,3,-1,1,54,199,203,45,51,199,195,15,-1,217,175,214,172,1,4885
58.529928922,5,5,-3,11,-6,-8,2,0,2,-37,92,96,58,51,195,195,15,-1,166,216,178,218,1,4886
58.558058977,6,6,-3,-4,2,0,0,1,3,208,232,135,47,59,214,195,15,-1,211,178,204,185,1,4887
58.566900014,6,6,-3,6,-7,-3,-1,2,3,-120,-77,31,49,49,224,195,15,-1,180,206,182,210,1,4888
58.577603101,7,6,-3,-6,3,3,-1,2,2,56,176,48,50,67,241,195,15,-1,210,181,205,181,1,4889
58.585858106,7,7,-3,-11,7,17,-1,2,0,-230,-133,166,42,65,248,195,15,-1,213,190,195,180,1,4890
58.613894939,8,7,-3,-6,-4,1,0,1,0,181,230,219,54,83,242,195,15,-1,196,195,181,207,1,4891
58.622873067,8,7,-3,-18,6,-2,0,0,-1,-72,-148,115,60,64,242,195,15,-1,215,172,209,181,1,4892
58.633994102,9,8,-3,11,-4,-5,-1,0,0,42,251,213,65,70,234,195,15,-1,161,220,185,209,1,4893
58.642592906,9,8,-3,8,5,-2,-3,0,2,-58,-15,126,59,59,238,195,15,-1,190,197,207,184,1,4894
58.670048952,9,9,-3,2,-2,1,-5,0,3,-74,192,148,48,73,241,195,15,-1,199,191,186,202,1,4895
58.678936958,10,9,-3,8,0,0,-6,1,3,142,126,188,57,63,237,195,15,-1,183,206,198,191,1,4896
58.688844919,10,9,-3,0,-10,3,-4,1,2,140,168,200,57,83,244,195,15,-1,205,187,177,209,1,4897
58.698152065,11,9,-3,-12,-5,1,-1,1,0,-37,-68,87,52,65,244,195,15,-1,213,177,194,193,1,4898
58.7259171,11,9,-3,6,-7,-2,2,0,-1,103,201,186,53,89,243,195,15,-1,174,213,189,202,1,4899
58.736798048,12,9,-3,-4,-7,-8,4,-1,-2,63,-65,98,43,77,254,195,15,-1,203,179,192,203,1,4900
58.744925975,12,9,-3,6,6,-1,4,-3,-1,71,-26,91,43,82,253,195,15,-1,180,208,211,180,1,4901
58.75408101,12,9,-3,7,3,-1,3,-5,0,-34,-37,-123,36,74,253,195,15,-1,188,199,195,196,1,4902
58.784214019,13,9,-3,0,0,2,0,-6,0,38,159,158,32,87,8,195,15,-1,202,189,191,196,1,4903
58.791505098,13,9,-3,8,0,0,0,-5,-1,-157,-101,6,26,80,4,195,15,-1,182,207,193,196,1,4904
58.800841093,13,9,-3,0,7,0,0,-3,-1,0,217,151,24,81,2,195,15,-1,202,188,206,182,1,4905
58.810642957,14,8,-4,8,-5,-14,0,-1,-2,-142,-69,125,18,73,3,195,15,-1,177,201,186,215,1,4906
58.838026046,14,8,-4,-15,12,1,2,1,-2,60,62,190,24,65,249,195,15,-1,220,166,218,170,1,4907
58.850043058,14,8,-4,5,-12,-17,4,3,-1,-6,-231,236,29,57,247,195,15,-1,166,209,172,220,1,4908
58.856800079,14,7,-4,-18,1,2,4,3,-2,18,142,-5,28,42,231,195,15,-1,220,163,206,181,1,4909
58.865803003,13,7,-4,4,6,5,3,3,-3,159,-157,19,47,41,236,195,15,-1,174,219,201,183,1,4910
58.893842935,13,8,-4,-4,0,3,0,1,-4,225,82,130,49,34,232,195,15,-1,206,186,187,200,1,4911
58.902934074,13,8,-4,6,8,4,-2,0,-5,-137,195,194,46,51,249,195,15,-1,184,209,206,180,1,4912
58.912823915,13,8,-4,-1,-8,0,-4,0,-4,137,72,77,51,42,242,195,15,-1,202,187,175,214,1,4913
58.922624111,12,8,-4,3,1,-3,-5,0,-2,-2,-69,43,41,39,251,195,15,-1,186,199,205,187,1,4914
58.950828075,12,8,-4,-9,-6,1,-4,0,0,130,-14,-42,51,29,228,195,15,-1,212,178,184,204,1,4915
58.958914995,12,9,-4,-11,-3,-1,-2,1,2,-185,166,168,35,31,240,195,15,-1,203,185,195,196,1,4916
58.968883037,11,8,-4,-5,-9,-6,0,0,2,7,-154,101,28,2,235,195,15,-1,191,193,186,207,1,4917
58.978328943,10,8,-4,13,10,0,0,0,2,-155,169,233,22,14,230,195,15,-1,169,219,219,171,1,4918
59.005852937,10,8,-4,0,-8,-9,0,-1,0,31,-37,148,18,2,215,195,15,-1,201,181,177,220,1,4919
59.015101909,9,8,-4,11,7,0,-2,-3,-1,-102,6,198,10,18,207,195,15,-1,178,212,212,176,1,4920
59.025126934,9,8,-4,3,4,1,-2,-3,-3,183,-25,140,16,6,197,195,15,-1,199,191,195,193,1,4921
59.038990974,9,7,-4,-8,-2,-5,-1,-3,-4,-60,98,36,15,12,218,195,15,-1,209,176,189,204,1,4922
59.062177896,8,7,-4,-7,-5,-3,0,-1,-4,180,-190,205,22,-4,220,195,15,-1,197,189,190,202,1,4923
59.07119894,7,7,-4,-6,-1,-4,2,0,-3,11,-114,94,30,7,225,195,15,-1,196,189,199,193,1,4924
59.081310033,7,7,-4,-14,2,0,3,1,-2,156,-153,220,38,-11,228,195,15,-1,211,178,199,190,1,4925
59.089894056,6,7,-4,21,9,0,2,1,-2,-194,157,-13,35,0,221,195,15,-1,151,220,206,182,1,4926
59.117897033,6,7,-4,-2,14,5,0,1,-1,205,-21,136,30,-3,218,195,15,-1,218,175,206,179,1,4927
59.127031087,6,7,-4,17,0,0,-3,0,-1,-216,-25,65,19,-6,210,195,15,-1,167,220,183,205,1,4928
59.136933088,5,7,-4,-2,10,6,-4,1,-1,219,-2,167,16,-13,218,195,15,-1,215,179,206,177,1,4929
59.145915985,4,7,-4,6,-5,0,-3,2,0,-86,83,215,4,-1,215,195,15,-1,184,206,178,211,1,4930
59.174037933,4,6,-4,-14,-7,-11,0,4,0,24,25,202,7,-17,232,195,15,-1,216,164,192,206,1,4931
59.182943105,3,6,-4,-1,-4,13,3,6,2,-105,52,47,9,-24,225,195,15,-1,190,209,188,190,1,4932
59.197541952,3,6,-4,-14,-4,0,6,6,2,209,111,232,12,-22,232,195,15,-1,216,174,191,197,1,4933
59.202079057,2,6,-4,-6,6,14,5,4,2,-225,140,57,14,-11,233,195,15,-1,197,203,202,176,1,4934
59.229957103,2,5,-4,-1,8,6,1,0,2,167,107,71,16,-5,251,195,15,-1,194,200,199,184,1,4935
59.239959001,1,5,-3,0,5,7,-2,-2,2,-168,43,50,16,0,233,195,15,-1,195,200,193,190,1,4936
59.249217033,1,5,-3,2,13,19,-7,-3,3,-89,121,215,12,40,238,195,15,-1,199,206,202,171,1,4937
59.258795023,2,5,-3,10,4,-13,-9,-2,5,40,14,140,21,45,234,195,15,-1,176,202,195,204,1,4938
59.286072969,2,5,-3,0,-4,-2,-8,0,7,58,37,115,23,61,245,195,15,-1,201,186,186,205,1,4939
59.296000003,3,5,-4,12,-1,-13,-4,4,8,1,16,-45,28,62,233,195,15,-1,172,207,201,198,1,4940
59.305000066,4,5,-4,-3,-7,-1,0,7,8,64,115,121,35,82,244,195,15,-1,209,179,184,206,1,4941
59.314498901,5,5,-4,4,-4,1,4,8,5,-7,-64,232,25,74,241,195,15,-1,186,205,194,194,1,4942
59.342245101,6,5,-4,3,2,7,7,6,0,24,66,83,30,99,235,195,15,-1,197,198,198,184,1,4943
59.352070093,7,5,-4,-4,-10,0,8,2,-3,-68,140,188,26,112,240,195,15,-1,203,185,177,213,1,4944
59.361712932,8,5,-4,0,10,9,7,-1,-5,-9,-42,156,17,117,237,195,15,-1,196,201,215,166,1,4945
59.369909048,9,5,-4,-4,-6,-6,4,-5,-5,-41,117,-116,25,115,232,195,15,-1,199,185,179,215,1,4946
59.397867918,11,5,-4,-15,0,5,1,-6,-2,62,249,101,18,129,243,195,15,-1,216,177,198,187,1,4947
59.412229061,12,5,-4,-6,-1,1,0,-5,0,84,191,142,33,153,247,195,15,-1,191,199,192,196,1,4948
59.416996002,13,5,-4,-5,-2,-5,-3,-3,3,79,255,53,26,166,254,195,15,-1,196,189,195,199,1,4949
59.427863121,14,5,-4,14,-5,-12,-5,-1,4,-28,69,159,29,165,8,195,15,-1,163,216,193,206,1,4950
59.454071998,16,5,-4,9,11,-8,-6,0,3,30,-165,161,16,155,249,195,15,-1,190,192,219,177,1,4951
59.464177131,17,5,-4,3,-4,2,-6,0,1,175,-125,173,30,146,242,195,15,-1,198,193,177,210,1,4952
59.472966909,18,5,-4,6,3,0,-4,0,-2,16,122,81,33,147,247,195,15,-1,187,202,204,185,1,4953
59.482031106,19,5,-4,-7,-1,0,0,0,-5,141,-114,82,52,121,236,195,15,-1,211,178,190,200,1,4954
59.51000595,19,5,-4,0,-3,-10,3,0,-6,127,210,220,50,127,231,195,15,-1,183,198,194,203,1,4955
59.52374196,20,6,-4,-9,1,1,6,0,-6,-167,-27,-80,50,110,224,195,15,-1,210,181,200,188,1,4956
59.528891086,20,6,-4,1,-1,-2,6,0,-5,-68,5,12,51,104,214,195,15,-1,183,204,192,199,1,4957
59.538042068,20,6,-4,-6,7,2,4,0,-3,-13,-225,254,48,80,220,195,15,-1,207,185,205,182,1,4958
59.566419124,20,7,-4,7,-2,3,1,0,-1,-117,-90,200,39,60,211,195,15,-1,180,212,183,204,1,4959
59.575860023,20,7,-4,9,7,1,-2,0,0,-13,158,162,26,55,221,195,15,-1,187,203,207,181,1,4960
59.588292121,20,7,-4,2,-10,-3,-4,0,0,-118,110,86,4,54,220,195,15,-1,197,189,174,218,1,4961
59.59418106,19,7,-4,1,2,2,-4,0,0,-79,131,47,13,77,223,195,15,-1,195,197,206,181,1,4962
59.622004985,19,6,-4,-2,-9,1,-1,0,0,3,210,185,0,71,228,195,15,-1,200,190,177,211,1,4963
59.631714105,19,6,-4,3,0,-7,1,0,0,176,122,9,12,83,232,195,15,-1,184,198,204,191,1,4964
59.640882015,19,6,-4,-9,0,3,4,0,0,225,-60,162,23,82,233,195,15,-1,213,179,195,192,1,4965
59.649971962,19,5,-4,-3,-5,-4,5,-1,0,-64,115,236,22,82,250,195,15,-1,190,195,188,205,1,4966
59.677839994,19,5,-4,-11,-12,0,4,-2,0,156,-66,109,27,67,251,195,15,-1,208,181,180,209,1,4967
59.687920093,19,5,-4,3,-1,-2,1,-3,0,103,107,56,28,75,3,195,15,-1,179,208,204,188,1,4968
59.697021961,18,5,-4,-3,0,11,-1,-4,-1,145,-159,225,31,54,12,195,15,-1,207,191,191,189,1,4969
59.7074759,18,5,-4,9,13,-8,-4,-4,-1,-45,10,62,30,64,250,195,15,-1,174,208,219,177,1,4970
59.735765934,18,6,-4,-11,20,3,-6,-4,-1,164,-55,172,37,70,251,195,15,-1,220,171,213,174,1,4971
59.744900941,18,6,-4,16,5,-7,-5,-3,0,-15,-14,147,15,75,6,195,15,-1,157,220,189,206,1,4972
59.756030082,18,6,-4,-10,8,3,-3,0,0,212,-197,207,12,59,0,195,15,-1,220,166,201,186,1,4973
59.76187396,17,5,-4,7,-10,0,-1,3,0,-237,170,149,-6,86,16,195,15,-1,175,214,171,217,1,4974
59.789952039,17,5,-4,-6,-9,1,1,7,0,37,-51,102,1,73,23,195,15,-1,210,179,189,199,1,4975
59.800339937,17,4,-4,0,-16,0,2,9,0,110,47,182,15,90,36,195,15,-1,189,200,177,212,1,4976
59.809109926,17,4,-4,-9,-4,-1,3,8,0,171,-141,47,27,70,38,195,15,-1,208,180,202,189,1,4977
59.817919969,17,4,-4,10,11,1,1,4,0,-83,-147,242,23,74,37,195,15,-1,172,218,215,173,1,4978
59.845978975,16,4,-4,-8,1,-1,0,-1,0,58,141,36,45,85,29,195,15,-1,215,172,188,202,1,4979
59.85494399,16,5,-4,-5,18,4,-1,-6,0,-186,-198,108,49,67,26,195,15,-1,198,195,220,166,1,4980
59.865077972,16,5,-4,1,1,-2,-2,-8,0,161,7,5,63,62,22,195,15,-1,186,201,182,209,1,4981
59.87523508,16,6,-4,11,10,1,-3,-6,0,-149,150,122,60,63,26,195,15,-1,179,210,209,179,1,4982
59.902045011,16,6,-4,0,-9,0,-2,-1,0,-83,-71,28,55,36,18,195,15,-1,204,185,172,217,1,4983
59.911633014,15,6,-4,4,1,-2,-1,4,0,57,152,104,62,25,10,195,15,-1,187,199,206,185,1,4984
59.928291082,14,7,-4,-3,-7,2,0,8,0,-31,-58,79,49,25,249,195,15,-1,204,187,181,206,1,4985
59.930537939,14,7,-4,-12,-1,1,1,9,0,53,236,242,68,31,249,195,15,-1,211,179,198,190,1,4986
59.958211898,13,8,-4,-5,0,14,2,7,0,18,12,212,74,35,242,195,15,-1,198,202,189,189,1,4987
59.967621088,13,8,-4,1,-5,-7,2,2,0,173,-183,-8,77,8,225,195,15,-1,185,198,189,206,1,4988
59.978641033,12,9,-4,5,12,-2,0,-1,0,-34,-1,168,68,15,210,195,15,-1,187,200,220,171,1,4989
59.986916065,11,9,-4,13,3,-7,-1,-4,1,179,-220,-50,80,-8,204,195,15,-1,176,207,192,203,1,4990
60.014140129,10,10,-4,0,13,3,-3,-5,1,-90,47,221,67,-3,207,195,15,-1,208,184,210,176,1,4991
60.022922992,10,11,-4,20,-3,-4,-3,-3,1,-37,-62,134,78,-5,206,195,15,-1,162,220,179,213,1,4992
60.033200025,9,11,-4,-4,6,1,-1,0,0,10,84,92,68,21,200,195,15,-1,219,172,207,181,1,4993
60.042601108,9,12,-4,6,-12,-6,2,4,0,57,-92,119,83,8,199,195,15,-1,178,206,172,220,1,4994
60.069864988,8,13,-4,-9,11,-2,6,6,-2,98,62,-179,86,13,172,195,15,-1,213,174,220,168,1,4995
60.079108953,8,13,-4,0,-9,-12,8,6,-2,59,98,161,84,3,171,195,15,-1,182,197,176,220,1,4996
60.090169906,7,14,-4,-8,2,-4,8,5,-3,28,-161,111,89,2,161,195,15,-1,206,180,208,184,1,4997
60.097892999,7,15,-4,5,6,0,6,2,-3,-228,-151,62,82,2,165,195,15,-1,179,210,202,187,1,4998
60.125869989,6,16,-4,-8,-1,-3,2,0,-4,183,35,-131,76,9,157,195,15,-1,210,176,188,204,1,4999
60.13499999,6,17,-5,3,6,-1,-1,-2,-4,-229,196,220,73,29,175,195,15,-1,181,207,207,183,1,5000
60.144828081,6,17,-5,0,1,-3,-4,-1,-5,175,-220,3,74,18,162,195,15,-1,195,190,192,200,1,5001
60.156150102,6,18,-5,3,1,-5,-5,0,-4,-5,165,171,81,6,152,195,15,-1,187,198,198,196,1,5002
60.181946039,6,18,-5,-2,-9,-4,-4,1,-4,75,-228,231,89,11,149,195,15,-1,200,185,181,212,1,5003
60.190961122,6,19,-4,5,0,7,-2,2,-3,64,-135,118,77,-3,150,195,15,-1,187,208,199,184,1,5004
60.200868129,5,20,-4,-7,-9,3,0,3,-2,95,-35,10,83,-14,159,195,15,-1,212,180,180,207,1,5005
60.211998939,5,20,-4,10,9,3,1,2,-2,-21,108,86,54,-21,164,195,15,-1,174,217,215,172,1,5006
60.237957,4,20,-4,6,-2,1,2,0,-1,123,-113,100,46,-27,171,195,15,-1,193,197,183,205,1,5007
60.247083902,3,20,-5,11,5,-7,2,-2,0,-237,-143,56,26,-25,187,195,15,-1,181,202,208,188,1,5008
60.25998497,2,19,-5,-1,0,-5,2,-3,0,185,-111,48,37,-31,194,195,15,-1,204,180,192,201,1,5009
60.265906095,2,18,-5,3,-1,-12,2,-3,1,-175,-166,88,19,-28,201,195,15,-1,183,196,198,201,1,5010
60.293898105,1,17,-5,-11,5,5,3,-1,1,141,-71,214,31,-34,214,195,15,-1,217,177,202,183,1,5011
60.302887916,0,16,-5,4,-10,1,4,0,0,23,-170,89,34,-39,198,195,15,-1,179,211,173,214,1,5012
60.313019037,0,16,-5,-11,3,-1,4,1,-2,-12,253,162,32,-44,215,195,15,-1,214,174,210,181,1,5013
60.322046995,0,15,-5,10,-3,-6,2,2,-4,-32,-223,120,28,-50,202,195,15,-1,167,216,188,206,1,5014
60.349847078,-1,15,-5,4,1,-1,0,1,-4,93,-159,171,15,-61,220,195,15,-1,196,192,200,190,1,5015
60.359040021,-2,14,-4,1,0,5,-1,0,-4,38,-67,84,14,-82,216,195,15,-1,198,195,190,195,1,5016
60.368864059,-4,13,-4,3,5,2,-2,-1,-2,75,21,155,3,-73,218,195,15,-1,192,199,203,184,1,5017
60.379230976,-5,12,-4,1,-1,0,-1,-2,-1,0,-179,222,15,-75,226,195,15,-1,194,194,188,201,1,5018
60.405868053,-5,12,-5,-5,-15,-8,0,-2,0,-15,22,-80,5,-88,229,195,15,-1,201,181,175,220,1,5019
60.415041923,-6,11,-5,8,3,-8,2,-1,0,-54,71,201,14,-94,215,195,15,-1,173,209,216,180,1,5020
60.424901962,-8,10,-5,-7,-10,-10,3,0,0,30,-149,74,6,-91,218,195,15,-1,209,172,180,217,1,5021
60.433902978,-9,10,-5,-10,3,3,3,0,0,135,-53,2,13,-102,210,195,15,-1,205,187,207,179,1,5022
60.461930036,-10,9,-5,-1,-2,-1,2,-1,-2,66,-209,68,13,-101,215,195,15,-1,187,201,189,202,1,5023
60.47082591,-11,9,-5,-13,0,7,0,-3,-4,150,179,-187,17,-85,199,195,15,-1,217,178,192,191,1,5024
60.480818033,-12,8,-5,0,3,6,-2,-4,-5,-83,-89,230,8,-75,210,195,15,-1,186,209,198,185,1,5025
60.49002099,-12,8,-5,14,0,-3,-4,-4,-4,3,209,-208,35,-70,183,195,15,-1,172,215,193,198,1,5026
60.517859935,-13,8,-5,-8,1,0,-6,-3,-2,-222,-46,66,18,-67,181,195,15,-1,219,170,197,192,1,5027
60.527110099,-13,8,-5,12,-1,-7,-6,-1,0,-57,166,208,27,-51,176,195,15,-1,167,217,193,202,1,5028
60.537283897,-13,8,-5,-13,-3,-3,-4,0,2,118,-30,173,23,-47,169,195,15,-1,220,163,192,200,1,5029
60.546205997,-13,8,-5,11,-4,2,-1,1,3,-187,17,31,23,-38,179,195,15,-1,167,220,190,197,1,5030
60.573870897,-13,8,-5,5,12,4,1,1,2,164,128,22,24,-28,170,195,15,-1,197,195,215,171,1,5031
60.582952976,-13,8,-5,5,1,7,3,1,0,53,-5,141,25,-20,185,195,15,-1,195,200,184,199,1,5032
60.596278905,-12,8,-5,1,16,0,4,0,-1,185,217,197,35,-21,174,195,15,-1,197,193,217,171,1,5033
60.602267026,-12,8,-5,-5,0,-8,4,0,-1,127,-184,-13,43,-19,167,195,15,-1,201,181,184,211,1,5034
60.630022048,-12,8,-5,-14,3,0,4,0,0,135,-68,238,58,-15,171,195,15,-1,211,178,199,190,1,5035
60.639055013,-11,9,-4,-1,-10,3,3,3,0,-3,-95,35,56,-16,181,195,15,-1,186,205,175,211,1,5036
60.648874044,-11,10,-4,-19,-2,10,1,5,1,74,63,-20,69,-14,172,195,15,-1,220,171,196,185,1,5037
60.6582129,-10,10,-4,12,4,8,-1,5,2,164,-40,116,77,-7,167,195,15,-1,163,220,200,182,1,5038
60.686017036,-10,11,-4,2,1,-1,-4,4,2,49,69,-104,80,-5,166,195,15,-1,200,188,193,197,1,5039
60.695008993,-9,12,-4,11,1,-3,-6,2,2,-42,-165,40,81,-17,170,195,15,-1,178,209,197,194,1,5040
60.707845926,-8,13,-5,7,0,-8,-7,0,2,39,-252,-186,81,-22,157,195,15,-1,190,193,195,201,1,5041
60.71412301,-8,14,-5,0,-1,-11,-5,-1,3,-2,-81,57,62,-23,173,195,15,-1,198,182,198,200,1,5042
60.741235971,-8,14,-5,-4,-4,5,-1,-2,2,66,-63,60,62,-29,160,195,15,-1,203,190,187,198,1,5043
60.75012803,-8,15,-5,-8,3,-4,3,-1,0,-77,25,178,50,-24,191,195,15,-1,201,184,205,187,1,5044
60.759849071,-8,15,-5,-5,-3,-2,6,0,-1,-23,-168,30,53,-28,181,195,15,-1,195,192,188,203,1,5045
60.771810054,-8,15,-5,-8,5,-5,6,0,-4,135,228,63,47,-27,207,195,15,-1,200,185,208,186,1,5046
60.796862125,-8,15,-5,-1,-1,0,3,0,-5,-71,-178,172,55,-46,200,195,15,-1,190,200,187,202,1,5047
60.808752059,-9,15,-5,-2,1,-6,0,0,-5,153,188,0,65,-45,202,195,15,-1,194,190,201,194,1,5048
60.815850019,-9,15,-5,5,0,0,-5,0,-4,-14,-6,134,46,-57,200,195,15,-1,185,205,192,196,1,5049
60.824943065,-9,15,-5,13,2,-1,-7,0,-3,245,83,77,67,-53,202,195,15,-1,179,210,199,191,1,5050
60.852929115,-9,15,-5,-1,3,0,-7,0,-2,-233,2,63,48,-60,192,195,15,-1,207,182,197,192,1,5051
60.862802028,-10,15,-5,6,0,2,-4,0,-1,176,153,143,54,-52,179,195,15,-1,185,206,191,196,1,5052
60.872061014,-10,15,-5,-9,1,0,0,0,-1,186,-70,222,54,-66,180,195,15,-1,214,176,196,193,1,5053
60.880927085,-11,15,-5,-7,-11,-2,3,1,0,-1,8,135,47,-43,200,195,15,-1,197,191,177,213,1,5054
60.909126997,-11,15,-5,0,-2,0,5,1,0,43,37,23,30,-38,203,195,15,-1,188,201,200,189,1,5055
60.918941974,-11,14,-5,-8,-9,-5,5,0,0,55,101,56,33,-3,204,195,15,-1,205,179,184,210,1,5056
60.932636976,-10,14,-5,4,0,-9,2,0,0,75,-16,193,20,-7,227,195,15,-1,177,205,208,189,1,5057
60.940731048,-10,13,-5,-3,10,10,-1,-2,0,5,149,147,12,2,229,195,15,-1,207,190,206,175,1,5058
60.964936018,-9,12,-5,-9,1,-5,-4,-4,0,-224,-15,25,-1,-1,248,195,15,-1,203,182,190,203,1,5059
60.975135088,-8,12,-5,0,8,3,-5,-4,-1,168,-62,70,9,3,249,195,15,-1,188,203,204,182,1,5060
60.983946085,-8,11,-5,-4,-3,-5,-5,-3,-2,-241,-151,215,-4,8,14,195,15,-1,198,186,185,209,1,5061
60.993884086,-7,10,-5,0,-3,0,-4,0,-2,-115,29,196,2,26,8,195,15,-1,190,199,192,197,1,5062
61.02216506,-6,9,-5,8,-9,12,-3,2,-1,106,20,9,4,43,18,195,15,-1,187,212,178,201,1,5063
61.031047105,-5,9,-5,-3,-6,-6,-2,3,0,-55,174,16,5,38,10,195,15,-1,204,180,196,199,1,5064
61.040834903,-4,8,-5,6,-5,3,-1,3,0,-221,-151,35,-4,39,10,195,15,-1,184,208,191,196,1,5065
61.050045013,-3,7,-5,-2,-3,5,0,1,0,197,83,-35,-1,31,248,195,15,-1,206,187,191,194,1,5066
61.08043313,-2,7,-5,7,2,-2,0,-2,1,-35,-106,127,0,48,3,195,15,-1,179,208,203,188,1,5067
61.086954116,-1,6,-5,-1,1,2,1,-5,1,-34,-7,170,-8,38,255,195,15,-1,204,187,194,193,1,5068
61.096971988,-1,6,-5,9,14,-4,2,-7,2,-99,68,120,0,55,11,195,15,-1,177,209,216,176,1,5069
61.112181901,0,5,-5,-10,4,-18,2,-6,2,131,23,40,-5,52,9,195,15,-1,211,163,196,208,1,5070
61.134027957,0,5,-5,8,6,-12,3,-3,1,-138,-67,43,-1,35,21,195,15,-1,168,211,206,193,1,5071
61.143826007,0,4,-5,-10,-2,-1,2,0,0,235,-172,-58,1,19,11,195,15,-1,217,171,185,205,1,5072
61.152909994,1,4,-5,7,0,5,2,4,-3,-81,119,205,-11,28,10,195,15,-1,177,217,194,190,1,5073
61.162806987,1,4,-5,-2,-12,0,1,7,-6,226,27,201,0,17,13,195,15,-1,204,185,176,213,1,5074
61.189928054,1,3,-5,2,3,-2,0,7,-8,-154,14,22,-9,15,0,195,15,-1,187,200,211,180,1,5075
61.200107097,1,3,-5,2,-4,1,0,5,-8,156,-120,204,-4,-7,251,195,15,-1,194,196,185,203,1,5076
61.209037065,1,2,-5,10,13,-4,0,1,-5,134,40,152,-2,7,236,195,15,-1,179,206,219,173,1,5077
61.21905899,1,2,-5,1,3,3,0,-1,-2,118,-209,68,3,-10,219,195,15,-1,202,190,187,199,1,5078
61.246490955,1,2,-5,-2,4,2,1,-3,0,147,176,82,22,12,209,195,15,-1,200,191,198,189,1,5079
61.255854129,1,3,-5,-1,6,6,2,-3,1,-89,-58,-81,9,12,189,195,15,-1,197,197,199,186,1,5080
61.264946937,1,2,-5,-4,-7,-9,3,0,2,165,16,81,29,33,195,195,15,-1,196,185,182,215,1,5081
61.276109933,2,3,-5,0,0,1,3,2,1,-122,-27,-9,29,17,185,195,15,-1,191,200,201,187,1,5082
61.302871942,2,3,-5,7,3,4,2,5,1,149,-49,43,31,14,174,195,15,-1,186,207,198,187,1,5083
61.312968015,2,4,-5,3,-4,-4,1,5,0,-102,50,73,29,8,164,195,15,-1,193,192,187,206,1,5084
61.330419063,2,4,-5,2,-6,6,0,4,0,177,-8,217,49,15,160,195,15,-1,197,197,186,198,1,5085
61.333416938,2,5,-5,-5,0,3,0,2,0,-66,-116,-55,35,5,159,195,15,-1,206,185,200,187,1,5086
61.358793973,2,5,-5,-13,-13,-2,0,0,0,162,197,20,45,20,153,195,15,-1,209,178,175,216,1,5087
61.368074893,3,6,-5,2,5,0,0,-2,0,6,137,87,47,40,162,195,15,-1,180,209,213,176,1,5088
61.377839088,3,7,-5,-7,-4,0,0,-3,1,30,-131,111,54,30,162,195,15,-1,207,182,183,206,1,5089
61.387331008,4,8,-5,-1,6,0,0,-4,1,-185,7,-9,38,29,146,195,15,-1,191,198,209,180,1,5090
61.419878006,4,8,-5,-2,-5,5,-1,-4,1,36,-70,197,47,42,154,195,15,-1,199,195,178,207,1,5091
61.423892021,5,9,-5,-1,-3,-2,-3,-3,1,173,124,71,44,70,161,195,15,-1,194,193,195,196,1,5092
61.434034109,6,9,-5,-1,0,0,-5,-2,0,158,-198,119,56,54,169,195,15,-1,195,194,196,193,1,5093
61.446962118,7,9,-5,13,1,-2,-5,-1,0,-20,154,-114,43,60,141,195,15,-1,173,214,198,193,1,5094
61.470911979,8,10,-5,-8,3,1,-4,0,0,59,58,-44,54,62,137,195,15,-1,219,172,199,189,1,5095
61.480171918,9,11,-5,0,0,-6,-2,0,0,85,39,31,51,70,129,195,15,-1,184,200,194,201,1,5096
61.489871978,10,11,-5,-18,0,-2,0,0,0,191,-20,42,53,54,123,195,15,-1,220,166,196,195,1,5097
61.499073982,11,12,-5,0,-3,7,1,0,0,80,120,174,51,71,128,195,15,-1,181,214,186,197,1,5098
61.527023077,12,12,-5,0,-1,-2,1,0,0,67,234,3,47,61,137,195,15,-1,194,193,197,194,1,5099
61.539797067,13,13,-5,5,-2,1,0,0,-1,-21,174,209,51,73,152,195,15,-1,187,203,190,197,1,5100
61.545991897,14,13,-5,7,9,-1,-2,0,-1,224,39,228,54,61,146,195,15,-1,187,201,212,179,1,5101
61.554902076,14,13,-5,0,-5,-1,-4,0,-1,-79,-116,151,56,57,167,195,15,-1,200,188,179,212,1,5102
61.582864999,14,14,-5,-5,10,-12,-3,0,0,-40,25,174,46,60,187,195,15,-1,197,181,220,179,1,5103
61.592344999,15,13,-5,1,-1,9,-1,0,0,-78,168,189,48,66,205,195,15,-1,192,204,180,201,1,5104
61.601854085,15,13,-5,0,8,-7,0,0,0,36,0,108,41,67,212,195,15,-1,193,190,211,184,1,5105
61.610997915,15,13,-5,2,0,1,2,1,0,-37,-3,172,42,72,237,195,15,-1,191,199,188,200,1,5106
61.638864994,15,13,-5,6,-4,-2,3,2,-1,-243,84,243,22,67,235,195,15,-1,186,201,189,202,1,5107
61.648200988,15,12,-5,-2,2,-5,2,3,-2,11,220,35,35,58,220,195,15,-1,202,183,204,190,1,5108
61.660950899,15,12,-5,5,-4,2,1,3,-2,-12,43,58,20,67,217,195,15,-1,185,206,185,203,1,5109
61.667474985,15,12,-5,-4,1,-3,0,3,-2,61,159,125,32,74,224,195,15,-1,204,183,203,189,1,5110
61.694876909,15,11,-5,0,-1,-2,0,1,-2,-159,115,170,22,84,209,195,15,-1,189,198,191,200,1,5111
61.703988075,16,11,-5,2,-3,-9,0,0,-2,208,126,-2,24,71,206,195,15,-1,188,193,194,203,1,5112
61.713870048,16,10,-5,0,-4,3,1,-1,-1,31,-167,137,18,72,194,195,15,-1,198,194,190,197,1,5113
61.723292112,16,10,-5,-4,0,-2,1,-1,-2,165,89,121,27,69,206,195,15,-1,201,186,198,193,1,5114
61.754292964,16,10,-5,11,-6,2,0,-2,-2,-65,58,205,21,82,231,195,15,-1,174,217,184,203,1,5115
61.761085033,16,9,-5,-1,2,-3,0,-2,-2,-105,49,137,11,82,236,195,15,-1,205,181,206,186,1,5116
61.769855976,17,9,-5,12,3,0,0,-2,-2,-127,-3,87,-4,83,251,195,15,-1,175,214,197,192,1,5117
61.779796123,17,8,-5,-6,-1,-4,0,-2,-2,-24,-24,142,-9,63,250,195,15,-1,212,173,192,201,1,5118
61.807042121,17,7,-5,7,4,1,1,-2,-1,-115,109,93,-18,57,254,195,15,-1,179,211,202,186,1,5119
61.822859048,16,7,-5,-8,3,2,2,-1,0,230,108,31,-5,54,2,196,15,-1,215,178,196,192,1,5120
61.83191204,16,6,-5,1,4,-9,3,0,0,-196,-209,-3,-26,41,247,196,15,-1,183,201,203,196,1,5121
61.859836101,15,5,-5,0,4,-5,3,1,0,198,144,255,-13,54,239,196,15,-1,196,191,201,194,1,5122
61.869038105,15,5,-5,6,-5,0,2,2,-1,-98,-177,-84,-16,44,213,196,15,-1,186,206,183,208,1,5123
61.878901004,15,4,-5,-4,-1,-2,0,3,-1,47,175,228,-9,57,215,196,15,-1,207,181,199,194,1,5124
61.888050079,15,3,-5,1,-1,-6,0,3,-2,-29,-96,135,-13,52,204,196,15,-1,186,200,196,200,1,5125
61.915977001,15,3,-5,-1,-2,0,0,3,-2,172,111,171,-2,58,204,196,15,-1,199,192,193,198,1,5126
61.924962997,15,3,-6,0,-2,-9,0,1,-3,105,132,-21,14,60,190,196,15,-1,190,193,198,201,1,5127
61.93581891,15,3,-6,1,-1,0,0,0,-3,152,221,19,9,61,203,196,15,-1,194,197,196,195,1,5128
61.944370985,15,3,-6,10,-6,0,0,-1,-3,-55,-213,81,19,48,204,196,15,-1,181,210,187,205,1,5129
61.972017049,15,3,-6,-7,0,-3,0,-3,-4,80,208,4,20,50,210,196,15,-1,214,174,204,190,1,5130
61.981440067,15,3,-5,0,-2,6,1,-3,-3,5,-219,192,28,33,224,196,15,-1,193,203,188,197,1,5131
61.990854024,14,3,-6,0,4,-8,1,-3,-3,39,68,40,20,31,226,196,15,-1,192,191,208,190,1,5132
61.999989032,14,3,-6,2,11,1,1,-3,-2,184,-151,34,28,31,234,196,15,-1,191,201,209,182,1,5133
62.031906127,13,3,-6,10,-2,-5,1,-2,-1,-134,84,104,13,31,233,196,15,-1,179,207,184,212,1,5134
62.037009,13,4,-6,2,6,-5,0,0,-1,125,93,130,22,20,229,196,15,-1,198,189,209,186,1,5135
62.046924114,12,4,-6,7,-8,0,0,1,0,22,-59,122,29,15,229,196,15,-1,186,204,177,214,1,5136
62.055902957,12,4,-6,-7,-8,6,1,2,-1,-88,-17,149,31,14,232,196,15,-1,215,181,188,198,1,5137
62.084315061,11,4,-6,-8,0,4,2,3,-2,79,-32,-17,36,26,224,196,15,-1,204,191,200,188,1,5138
62.093766927,11,4,-6,-4,1,2,3,2,-2,167,206,144,50,31,226,196,15,-1,196,197,198,191,1,5139
62.102876901,10,5,-6,-2,2,1,3,0,-1,-53,-30,15,36,11,213,196,15,-1,195,197,198,193,1,5140
62.112082958,10,5,-6,0,6,5,1,-1,0,-3,20,215,45,36,224,196,15,-1,197,199,200,186,1,5141
62.14003992,10,6,-6,2,-5,7,0,-3,1,-150,72,40,28,32,226,196,15,-1,194,203,179,206,1,5142
62.152389049,10,6,-6,-5,1,0,-3,-2,3,-11,97,161,32,59,238,196,15,-1,205,186,202,189,1,5143
62.158915996,10,6,-6,8,-1,3,-4,-1,4,16,-174,23,31,28,228,196,15,-1,180,213,190,198,1,5144
62.168802976,10,6,-6,2,-5,-1,-4,0,4,78,131,133,36,40,228,196,15,-1,198,191,190,202,1,5145
62.196387052,10,6,-6,2,-2,-4,-2,1,4,-23,-136,11,26,27,207,196,15,-1,192,195,198,197,1,5146
62.205806016,9,6,-5,-2,-1,2,0,1,3,45,61,60,23,24,211,196,15,-1,202,191,194,195,1,5147
62.216675996,9,6,-5,1,-3,-2,1,0,2,115,-212,252,21,2,223,196,15,-1,191,199,192,201,1,5148
62.225142955,9,6,-5,-7,-2,1,3,-1,0,2,-91,154,37,8,213,196,15,-1,208,184,195,195,1,5149
62.252124071,8,6,-6,11,5,-8,3,-2,0,63,-166,-45,36,-9,198,196,15,-1,169,216,209,189,1,5150
62.264138937,7,6,-5,-8,0,1,2,-3,-1,105,-163,10,41,-7,176,196,15,-1,219,173,190,200,1,5151
62.273170948,6,7,-5,10,2,-8,0,-3,-1,108,-51,76,45,-25,178,196,15,-1,169,216,203,195,1,5152
62.280884027,5,7,-5,-4,3,2,0,-2,-2,-97,-78,187,31,-22,173,196,15,-1,213,180,199,191,1,5153
62.307874918,5,8,-6,16,-9,-4,0,0,-2,-27,32,32,36,-24,169,196,15,-1,165,220,180,214,1,5154
62.318870067,4,8,-6,3,-1,-2,0,0,-2,-55,-40,86,27,-31,154,196,15,-1,203,186,202,191,1,5155
62.327194929,3,8,-6,6,-15,-5,1,1,-2,-59,-57,203,23,-31,158,196,15,-1,187,200,176,220,1,5156
62.336798906,2,8,-6,6,-5,-5,3,1,-2,-94,-39,-49,23,-32,136,196,15,-1,189,198,202,194,1,5157
62.364746093,1,8,-6,1,-1,-6,5,0,-3,59,-25,182,22,-32,158,196,15,-1,196,190,200,196,1,5158
62.379837036,0,8,-6,-5,1,-8,6,-3,-3,-105,-149,-35,8,-49,137,198,15,-1,204,184,205,198,1,5159
62.393394947,-1,8,-6,-6,4,-5,7,-5,-3,-60,-125,84,7,-41,153,198,15,-1,200,190,206,194,1,5160
62.417007923,-2,7,-6,0,-6,6,6,-7,-4,-121,-252,120,-10,-68,148,198,15,-1,195,205,181,209,1,5161
62.427999019,-3,6,-6,3,3,-3,3,-6,-5,-87,-28,133,-7,-73,140,198,15,-1,190,202,209,189,1,5162
62.442840099,-5,6,-6,6,-3,0,0,-4,-5,-13,26,198,-7,-77,155,199,15,-1,191,205,191,207,1,5163
62.469909906,-6,5,-6,0,-5,-3,-1,-2,-5,-183,-45,58,-17,-70,144,199,15,-1,204,190,194,205,1,5164
62.479845047,-8,4,-6,0,4,0,-2,0,-3,154,-58,138,-13,-80,157,199,15,-1,199,198,210,187,1,5165
62.488893985,-9,4,-6,12,-7,-1,-2,0,-2,80,93,20,-8,-68,170,199,15,-1,179,217,184,214,1,5166
62.498873949,-10,3,-6,-10,13,-3,0,0,0,223,82,143,0,-67,187,199,15,-1,220,171,220,173,1,5167
62.525866985,-11,3,-6,18,-4,-8,1,0,0,118,-227,40,0,-68,176,199,15,-1,159,220,184,220,1,5168
62.536564111,-11,3,-6,-13,8,-7,3,-1,0,55,-44,-83,-9,-65,164,199,15,-1,220,161,218,185,1,5169
62.545066118,-12,2,-6,14,-1,-9,3,-1,-1,47,-139,20,-10,-64,168,199,15,-1,162,220,194,211,1,5170
62.556329011,-13,2,-6,-3,0,0,3,0,-2,252,-11,68,-3,-57,171,199,15,-1,216,181,200,197,1,5171
62.582751989,-13,2,-6,2,5,-5,3,1,-4,-41,-237,166,-10,-53,188,199,15,-1,190,202,208,194,1,5172
62.592176914,-13,1,-6,-6,-5,7,2,2,-6,-5,-52,51,-18,-52,181,199,15,-1,212,190,183,208,1,5173
62.601094961,-13,1,-6,5,-7,-4,1,3,-6,-164,134,123,-25,-47,198,199,15,-1,183,211,193,207,1,5174
62.612262964,-13,0,-6,-8,-6,6,1,2,-6,-123,-60,-175,-29,-60,185,199,15,-1,219,183,192,200,1,5175
62.63789606,-14,0,-6,5,8,-2,0,1,-4,-64,169,212,-29,-49,199,199,15,-1,182,213,218,181,1,5176
62.648348093,-14,0,-6,5,-8,7,0,0,-1,-7,-115,138,-37,-66,208,199,15,-1,199,204,176,215,1,5177
62.657017946,-14,-1,-6,0,12,3,0,-2,0,64,185,175,-37,-42,208,199,15,-1,203,197,220,171,1,5178
62.666858911,-14,-1,-6,6,2,8,0,-3,2,-56,-80,134,-35,-39,229,199,15,-1,193,211,188,203,1,5179
62.694962978,-13,-2,-6,0,0,1,0,-3,3,196,135,252,-22,-13,224,199,15,-1,205,193,198,199,1,5180
62.703792095,-12,-2,-6,11,5,2,1,-1,4,-36,-165,43,-17,-9,233,199,15,-1,183,216,205,190,1,5181
62.712939024,-12,-2,-6,-6,0,4,2,0,4,113,119,207,-7,10,237,199,15,-1,220,181,192,202,1,5182
62.723573923,-11,-2,-6,-13,-1,9,3,3,4,-105,-127,222,-12,-9,238,199,15,-1,216,188,194,196,1,5183
62.750946044,-10,-2,-6,-9,1,4,3,4,4,197,106,9,6,-1,249,199,15,-1,203,197,199,194,1,5184
62.763216018,-10,-2,-6,-8,-5,-2,2,4,4,246,94,173,11,5,250,199,15,-1,203,192,190,209,1,5185
62.7699759,-9,-2,-6,0,8,6,0,3,4,-95,148,250,2,8,249,199,15,-1,193,210,214,178,1,5186
62.778896093,-8,-1,-6,7,7,-12,-3,1,4,91,-160,93,-4,-3,234,199,15,-1,183,204,208,199,1,5187
62.806936979,-7,-1,-6,0,-12,3,-6,0,3,-92,-106,224,-14,2,230,199,15,-1,205,195,172,220,1,5188
62.815922021,-7,-1,-6,11,8,-1,-7,0,3,164,98,11,-9,9,235,199,15,-1,182,213,220,175,1,5189
62.825933933,-6,-1,-6,-3,-16,1,-6,0,1,14,-223,16,-11,5,248,199,15,-1,213,185,166,220,1,5190
62.839937925,-5,-1,-6,12,-7,-12,-3,0,0,71,-22,88,-20,4,249,199,15,-1,172,215,206,201,1,5191
62.862952947,-5,-2,-6,-16,2,2,1,0,-1,29,-134,188,-16,-2,237,199,15,-1,220,164,208,188,1,5192
62.872165918,-4,-2,-6,7,-3,2,4,0,-2,-115,-18,67,-9,-1,238,199,15,-1,175,220,191,205,1,5193
62.882066011,-4,-2,-6,-23,4,0,6,-2,-3,58,-190,35,1,-17,233,199,15,-1,220,158,209,189,1,5194
62.891168117,-4,-2,-6,7,-1,2,5,-3,-3,-34,-49,135,6,-4,6,199,15,-1,169,220,192,203,1,5195
62.919025898,-4,-1,-6,0,10,-5,2,-4,-2,219,13,149,20,-11,246,199,15,-1,201,191,218,183,1,5196
62.92820096,-4,-1,-6,10,2,1,-1,-3,-1,14,10,12,34,7,239,199,15,-1,184,215,193,203,1,5197
62.937927007,-3,0,-6,7,11,-10,-4,-1,0,250,95,51,43,-10,220,199,15,-1,193,196,218,188,1,5198
62.948065996,-3,0,-6,0,-9,7,-5,1,0,-237,-22,121,34,-7,220,199,15,-1,208,195,172,219,1,5199
62.974932909,-3,0,-6,-15,-6,-4,-3,4,0,218,81,88,35,-22,224,199,15,-1,218,175,199,202,1,5200
62.984262943,-3,1,-6,0,-11,7,0,5,0,-153,87,176,42,-10,218,199,15,-1,190,213,183,208,1,5201
62.99399209,-3,1,-6,-13,-12,-2,2,5,-1,139,-142,191,43,-35,230,199,15,-1,217,178,191,208,1,5202
63.003159999,-3,2,-6,10,3,2,3,2,-1,-27,-7,61,35,-42,209,199,15,-1,173,220,213,182,1,5203
63.030896902,-4,2,-6,-2,0,-12,1,-1,-1,91,-173,174,29,-56,205,199,15,-1,206,181,201,206,1,5204
63.041206121,-5,3,-6,5,13,-6,-1,-5,0,-71,173,66,13,-52,199,199,15,-1,185,207,220,181,1,5205
63.049966096,-5,3,-6,6,3,-1,-4,-7,0,26,-47,26,32,-75,188,199,15,-1,193,203,194,205,1,5206
63.059068918,-6,3,-6,-2,8,-5,-4,-7,0,-176,86,206,19,-50,194,199,15,-1,205,187,210,191,1,5207
63.086951971,-7,4,-6,-10,-9,-4,-3,-3,-1,174,-190,133,45,-54,189,199,15,-1,210,184,179,220,1,5208
63.096863985,-7,4,-6,3,-6,0,0,0,-3,3,227,189,37,-48,198,199,15,-1,185,212,196,201,1,5209
63.105981111,-8,4,-6,-12,-10,-2,1,4,-5,219,-9,54,47,-50,187,199,15,-1,219,177,189,210,1,5210
63.119882106,-8,5,-6,10,0,1,2,5,-5,-85,-135,58,39,-55,186,199,15,-1,174,220,206,190,1,5211
63.142862081,-9,5,-6,-3,1,6,1,4,-5,201,-14,-6,48,-49,176,199,15,-1,215,187,199,193,1,5212
63.15308094,-9,6,-6,13,-10,-6,0,0,-3,70,-120,183,57,-54,195,199,15,-1,173,219,184,218,1,5213
63.165214061,-9,7,-6,0,12,6,-1,-3,-1,97,70,57,59,-41,183,199,15,-1,213,189,220,168,1,5214
63.172096014,-9,7,-6,4,-2,-11,-2,-6,0,-247,-59,174,49,-42,185,199,15,-1,187,201,189,218,1,5215
63.199225902,-10,8,-6,-10,-3,-5,0,-6,1,60,73,151,54,-39,185,199,15,-1,215,178,197,204,1,5216
63.208897113,-10,8,-6,1,6,1,1,-4,1,-31,-41,127,51,-54,203,199,15,-1,188,210,211,185,1,5217
63.217931032,-10,9,-6,-5,-4,-8,2,-1,0,50,113,98,54,-53,206,199,15,-1,205,185,190,214,1,5218
63.228188037,-10,9,-6,0,-6,3,3,0,-1,-143,-207,95,59,-63,205,199,15,-1,196,203,191,203,1,5219
63.254925012,-11,10,-6,7,5,4,1,2,-3,-54,-85,19,45,-71,188,199,15,-1,189,212,210,183,1,5220
63.264868021,-11,10,-6,10,5,-2,0,2,-4,-25,192,70,52,-66,196,199,15,-1,188,207,204,195,1,5221
63.274358987,-12,10,-6,10,4,0,-1,1,-4,-212,174,104,34,-50,191,199,15,-1,192,205,200,197,1,5222
63.284167051,-12,10,-6,0,10,-4,-1,0,-3,131,45,198,55,-34,198,199,15,-1,205,189,212,189,1,5223
63.312247037,-12,10,-6,-13,-9,-5,0,0,-1,-117,-21,140,44,-27,197,199,15,-1,216,177,179,220,1,5224
63.320903062,-12,11,-6,-12,0,7,2,0,0,46,10,171,50,-22,189,199,15,-1,209,194,203,188,1,5225
63.329967975,-11,11,-6,-7,-11,6,4,1,0,-43,-182,57,34,-16,203,199,15,-1,202,200,178,213,1,5226
63.339978933,-11,11,-6,-7,-9,0,4,2,0,133,91,111,49,-16,211,199,15,-1,203,193,194,203,1,5227
63.367784977,-10,11,-6,3,3,1,1,2,0,-105,-164,144,23,-14,212,199,15,-1,188,211,211,185,1,5228
63.376854896,-10,10,-6,-3,-10,-7,-3,0,0,80,131,79,26,-6,219,199,15,-1,203,188,183,220,1,5229
63.387141943,-9,10,-6,8,13,6,-7,-2,0,-189,-229,145,6,-5,237,199,15,-1,186,216,220,167,1,5230
63.395817041,-9,9,-6,2,4,0,-9,-5,1,28,11,210,12,14,244,199,15,-1,202,195,194,203,1,5231
63.424006938,-8,9,-6,5,6,1,-7,-6,1,-138,128,153,-4,47,9,199,15,-1,193,205,204,192,1,5232
63.433180093,-6,8,-6,2,7,3,-4,-4,1,-174,212,61,-17,64,3,199,15,-1,201,199,203,191,1,5233
63.452497959,-5,8,-6,5,12,0,0,-1,0,39,-1,173,-19,60,22,199,15,-1,192,204,212,186,1,5234
63.45493102,-4,7,-6,-8,-6,-6,3,3,0,-62,64,0,-10,66,0,199,15,-1,212,179,181,220,1,5235
63.479866027,-2,6,-6,-6,3,0,6,6,0,-33,187,219,-28,72,16,199,15,-1,201,196,209,187,1,5236
63.492698907,-1,5,-6,-6,-6,-4,5,8,0,49,-151,78,-24,79,1,199,15,-1,201,193,187,213,1,5237
63.50201106,0,4,-6,-3,-3,-6,3,8,0,87,-12,185,-35,73,18,199,15,-1,196,196,202,200,1,5238
63.50791502,0,3,-6,-2,10,5,0,6,0,-35,-180,87,-29,75,5,199,15,-1,202,200,214,178,1,5239
63.53594613,1,3,-6,3,4,-12,-3,3,-1,38,102,33,-25,84,6,199,15,-1,185,201,202,205,1,5240
63.545042038,2,2,-6,1,13,2,-5,0,-2,29,18,180,-22,75,254,199,15,-1,201,199,215,180,1,5241
63.55490303,3,2,-6,-3,-8,-9,-6,-1,-3,-25,-107,-55,-12,61,234,199,15,-1,201,189,178,220,1,5242
63.568109989,4,1,-6,-3,-8,4,-5,0,-3,44,131,75,-17,65,240,199,15,-1,203,197,192,202,1,5243
63.592224121,5,1,-6,0,-11,-2,-2,1,-3,18,95,51,2,71,249,199,15,-1,195,200,189,210,1,5244
63.600914955,6,1,-6,0,0,0,0,2,-3,-119,2,191,-5,58,6,199,15,-1,199,199,208,189,1,5245
63.611594915,6,1,-6,-1,-9,0,0,2,-2,28,76,25,-2,71,5,199,15,-1,200,197,185,213,1,5246
63.620955944,7,1,-6,0,20,3,0,0,-2,91,25,81,-4,68,247,199,15,-1,199,201,220,158,1,5247
63.64786005,7,1,-6,0,3,-3,0,-2,-1,22,-86,228,1,72,7,199,15,-1,198,196,189,211,1,5248
63.657921075,8,1,-6,5,9,2,0,-4,0,112,-57,23,3,49,248,199,15,-1,192,207,208,187,1,5249
63.666955947,8,1,-6,-2,6,5,-1,-4,0,111,250,154,18,73,236,199,15,-1,209,192,199,194,1,5250
63.676937103,9,1,-6,1,-3,2,-1,-1,0,101,136,168,22,67,233,199,15,-1,195,204,186,209,1,5251
63.703959941,9,1,-6,-12,-7,-5,0,3,0,151,-69,144,36,44,233,199,15,-1,215,178,193,208,1,5252
63.713861942,9,1,-6,0,-15,2,0,6,1,4,-189,224,45,24,228,199,15,-1,189,210,180,215,1,5253
63.723187923,9,2,-6,-10,-7,-1,0,7,1,76,36,161,47,26,215,199,15,-1,213,182,200,198,1,5254
63.732845068,9,3,-6,-4,-19,4,0,5,1,-166,145,149,42,30,222,199,15,-1,199,202,174,219,1,5255
63.760145902,9,3,-6,1,5,10,-2,0,1,-26,-19,190,42,20,221,199,15,-1,197,208,219,169,1,5256
63.770039081,8,4,-6,-7,-3,-3,-3,-5,0,52,-83,120,42,23,236,199,15,-1,209,186,189,210,1,5257
63.779228925,8,4,-6,0,21,12,-5,-10,1,80,15,67,42,37,217,199,15,-1,197,210,220,158,1,5258
63.794852972,8,5,-6,6,12,5,-5,-12,1,31,-119,97,58,40,230,199,15,-1,191,210,197,196,1,5259
63.816004991,8,5,-6,-10,11,-1,-5,-9,3,64,137,-8,59,42,228,199,15,-1,219,177,206,193,1,5260
63.825870037,8,6,-6,2,6,11,-4,-3,4,13,0,225,59,41,243,199,15,-1,191,216,194,193,1,5261
63.834973096,8,6,-6,-12,-9,0,-2,3,5,35,192,-6,62,56,246,199,15,-1,219,178,179,218,1,5262
63.844832897,9,7,-6,-2,-7,3,0,10,6,115,12,234,65,50,254,199,15,-1,193,207,193,201,1,5263
63.872831106,9,7,-6,6,0,-6,0,13,5,-45,-210,-80,49,35,234,199,15,-1,184,208,209,193,1,5264
63.882843017,8,7,-6,-16,-8,7,-1,11,5,57,251,109,58,47,230,199,15,-1,220,171,181,209,1,5265
63.892447948,9,8,-6,14,-3,-13,-2,6,3,-110,-51,75,51,41,233,199,15,-1,158,220,206,202,1,5266
63.902305126,9,8,-6,0,3,-2,-3,0,2,-77,79,32,43,31,243,199,15,-1,210,185,208,192,1,5267
63.931824922,8,8,-6,0,-8,-11,-3,-5,0,-135,255,207,35,48,229,199,15,-1,194,194,188,218,1,5268
63.938251018,9,8,-5,-1,10,7,-2,-8,-1,157,70,251,37,67,241,199,15,-1,204,199,218,172,1,5269
63.94789195,9,8,-5,12,0,-5,-1,-8,-3,-42,-57,153,29,52,253,199,15,-1,177,216,191,210,1,5270
63.957097053,9,8,-6,-14,2,-5,0,-5,-4,46,238,60,27,57,248,199,15,-1,220,164,206,196,1,5271
63.984827041,9,8,-5,10,10,18,1,-2,-5,17,-54,52,20,58,243,199,15,-1,178,220,204,179,1,5272
63.993878126,10,8,-6,-8,0,-9,2,1,-4,250,40,132,32,69,239,199,15,-1,216,173,193,212,1,5273
64.003993988,10,8,-6,9,3,9,2,3,-2,-37,-40,1,26,65,244,199,15,-1,181,220,201,188,1,5274
64.01295495,10,8,-6,8,-5,1,1,5,0,242,212,254,47,69,249,199,15,-1,194,204,186,210,1,5275
64.04105997,11,8,-6,14,-4,-2,0,5,1,-168,86,3,40,74,240,199,15,-1,183,212,197,201,1,5276
64.049930095,11,8,-6,-4,-5,0,0,4,2,9,6,127,38,91,240,199,15,-1,217,180,194,202,1,5277
64.060148954,12,8,-6,5,4,-3,2,2,3,-216,-121,71,23,72,253,199,15,-1,185,209,210,189,1,5278
64.069086074,12,7,-6,-10,0,-5,4,0,3,37,-93,82,10,73,252,199,15,-1,217,175,198,203,1,5279
64.097100019,12,7,-6,0,0,-3,5,-2,1,-115,106,56,1,71,12,199,15,-1,188,207,198,201,1,5280
64.106771945,12,7,-6,-5,-3,-4,5,-3,0,-94,-180,72,-3,62,5,199,15,-1,205,188,196,205,1,5281
64.119652986,12,6,-6,-7,-3,-5,4,-3,-2,64,143,148,-2,60,25,199,15,-1,204,189,198,203,1,5282
64.126039028,12,5,-6,6,4,0,1,-2,-3,137,-82,215,-1,55,11,199,15,-1,182,215,208,189,1,5283
64.153072118,12,5,-6,4,3,-7,-1,-1,-4,106,144,93,6,73,20,199,15,-1,194,197,203,200,1,5284
64.16290307,13,5,-6,17,2,1,-4,0,-4,-153,-18,19,-4,47,16,199,15,-1,178,220,198,198,1,5285
64.172019004,12,4,-6,-4,-1,-9,-4,0,-4,112,90,89,7,54,3,199,15,-1,215,174,198,207,1,5286
64.182126998,12,4,-6,0,-10,5,-2,0,-4,-79,206,175,6,60,254,199,15,-1,197,204,183,210,1,5287
64.212276935,12,4,-6,-9,-4,-6,0,0,-3,173,99,140,22,52,7,199,15,-1,210,182,203,200,1,5288
64.218749046,12,4,-6,3,3,0,4,0,-3,11,-9,45,15,35,10,199,15,-1,185,212,208,189,1,5289
64.227893114,12,4,-6,-8,1,-4,5,0,-2,212,49,112,27,41,251,199,15,-1,213,180,199,202,1,5290
64.238003015,12,4,-6,14,3,-4,4,-1,-2,-155,126,70,17,35,8,199,15,-1,168,220,205,195,1,5291
64.265028953,11,4,-6,-1,6,-2,2,-2,-2,-5,-45,78,3,23,10,199,15,-1,211,183,207,193,1,5292
64.280060052,11,4,-6,12,0,-1,0,-2,-2,-5,96,163,-8,26,24,199,15,-1,178,218,194,204,1,5293
64.283996105,11,3,-6,-4,5,0,-1,-1,-2,-13,-235,224,-7,16,22,199,15,-1,216,181,207,190,1,5294
64.293936014,10,3,-6,8,-2,-7,-1,0,-2,-8,68,182,-20,9,19,199,15,-1,179,212,193,210,1,5295
64.321024894,10,2,-6,-9,-8,-2,0,2,-3,97,-9,109,-7,-8,11,199,15,-1,218,177,189,210,1,5296
64.33220601,9,2,-6,10,-8,-11,2,4,-3,219,-190,-57,3,-31,245,199,15,-1,171,217,198,209,1,5297
64.34000802,8,2,-6,-11,0,0,4,3,-3,134,-41,69,20,-27,245,199,15,-1,220,173,206,191,1,5298
64.350260019,7,2,-6,1,-7,-4,4,1,-3,67,-241,54,22,-34,244,199,15,-1,185,208,189,212,1,5299
64.377059936,6,2,-6,-5,12,3,3,-1,-3,-1,-17,91,28,-40,233,199,15,-1,209,191,220,172,1,5300
64.386941909,4,3,-6,-2,5,3,0,-3,-4,152,10,80,40,-31,233,199,15,-1,199,201,195,199,1,5301
64.396205902,4,3,-6,1,11,5,-1,-4,-4,-84,-72,248,33,-41,225,199,15,-1,197,204,209,183,1,5302
64.406239032,3,3,-6,11,0,3,-3,-3,-3,-37,-180,174,24,-46,223,199,15,-1,184,215,187,207,1,5303
64.433789014,2,4,-6,-13,4,4,-3,0,-1,-209,30,17,8,-39,232,199,15,-1,220,171,204,189,1,5304
64.442951917,1,3,-6,4,-6,2,-2,3,0,-1,247,66,3,-13,234,199,15,-1,182,217,184,211,1,5305
64.454494953,0,3,-6,-12,-6,7,-1,6,3,57,144,109,13,-10,248,199,15,-1,220,179,191,199,1,5306
64.462558031,0,3,-6,7,-6,0,0,7,4,-43,-21,124,15,-22,246,199,15,-1,177,220,193,204,1,5307
64.490149021,0,3,-6,1,0,-1,0,5,5,119,-163,70,12,-35,229,199,15,-1,201,195,205,193,1,5308
64.498840093,0,3,-6,7,-6,-1,0,2,5,94,70,67,16,-18,230,199,15,-1,189,207,189,209,1,5309
64.509119987,0,3,-6,3,0,4,0,-1,4,119,-72,53,11,-37,240,199,15,-1,201,199,200,193,1,5310
64.520040988,-1,3,-6,9,-8,0,0,-5,2,-37,-95,239,17,-48,249,199,15,-1,188,209,187,210,1,5311
64.548329114,-1,3,-6,-9,0,-2,0,-6,1,3,20,238,43,-19,244,199,15,-1,219,176,205,194,1,5312
64.555141925,-1,3,-6,6,-1,4,2,-6,0,66,64,201,47,-21,246,199,15,-1,183,217,195,198,1,5313
64.564876079,-2,4,-6,-2,8,5,3,-5,0,73,-7,-37,51,-10,233,199,15,-1,209,192,210,183,1,5314
64.573875904,-2,4,-6,-5,8,15,4,-3,0,70,36,170,55,1,232,199,15,-1,211,198,198,187,1,5315
64.601869106,-1,5,-6,-5,-3,9,3,-1,0,203,68,126,61,17,246,199,15,-1,207,198,183,206,1,5316
64.61187601,-1,6,-6,-7,0,0,2,0,2,-89,14,124,45,28,255,199,15,-1,204,192,202,195,1,5317
64.620865106,-1,6,-6,-2,-9,3,0,1,4,125,-83,192,45,26,248,199,15,-1,197,203,182,212,1,5318
64.630057096,0,6,-6,2,3,0,-2,3,6,-34,-15,62,40,37,249,199,15,-1,192,205,211,186,1,5319
64.657917976,0,6,-6,-5,0,0,-4,2,7,145,-222,-102,47,27,239,199,15,-1,209,188,194,202,1,5320
64.666943073,0,7,-6,6,11,9,-5,1,7,-9,7,236,39,26,234,199,15,-1,189,216,213,176,1,5321
64.676856994,0,7,-6,0,0,-3,-5,0,5,31,-31,186,45,28,231,199,15,-1,201,192,191,209,1,5322
64.686136007,1,7,-6,1,-2,-6,-3,-1,3,-84,46,64,30,40,238,199,15,-1,195,197,197,205,1,5323
64.713964939,1,7,-6,1,-8,-1,-1,0,1,87,86,-46,57,30,222,199,15,-1,197,199,188,210,1,5324
64.723787069,2,8,-6,0,2,-9,0,0,0,141,232,166,77,29,227,199,15,-1,197,192,214,190,1,5325
64.733042001,2,8,-6,7,-6,4,1,0,0,-66,-168,172,58,13,217,199,15,-1,189,212,185,209,1,5326
64.742821931,2,9,-6,0,2,5,2,1,-1,243,62,33,73,30,213,199,15,-1,207,194,205,188,1,5327
64.770112991,3,10,-6,-9,9,16,2,0,-2,-71,-24,137,63,37,229,199,15,-1,218,192,204,180,1,5328
64.783761978,3,10,-6,-1,-2,-5,1,0,-2,-162,-105,101,50,16,231,199,15,-1,190,202,189,213,1,5329
64.789220094,3,10,-6,0,7,-2,1,-1,-1,-106,-36,183,39,30,224,199,15,-1,195,200,213,186,1,5330
64.798958063,3,10,-6,-9,-6,-4,0,-1,0,-65,-84,200,37,31,210,199,15,-1,211,182,185,216,1,5331
64.826221942,4,10,-6,12,-2,6,-1,0,3,72,-51,47,28,14,213,199,15,-1,175,220,197,194,1,5332
64.83663392,3,10,-6,-12,-4,0,-2,1,3,-93,-207,106,20,1,208,199,15,-1,220,170,194,203,1,5333
64.845005035,3,9,-6,11,-5,6,-2,1,3,-172,-218,249,8,-9,222,199,15,-1,174,220,190,201,1,5334
64.855058908,3,9,-6,-5,-5,7,-2,1,2,230,-128,-10,16,-30,213,199,15,-1,219,184,192,199,1,5335
64.885339021,2,8,-6,17,12,1,-1,0,1,-22,-192,17,5,-43,195,199,15,-1,168,220,220,174,1,5336
64.893006086,1,8,-6,-2,2,0,0,-2,1,49,27,254,11,-42,202,199,15,-1,217,179,191,206,1,5337
64.901770114,0,8,-6,3,6,0,1,-3,1,-73,-29,166,1,-40,200,199,15,-1,190,206,206,191,1,5338
64.910826921,0,7,-6,-12,8,12,2,-3,2,94,-3,20,21,-39,185,199,15,-1,220,182,202,186,1,5339
64.93880105,-1,7,-6,0,2,-4,3,-1,3,231,122,125,25,-22,210,199,15,-1,186,208,197,203,1,5340
64.947896003,-1,7,-6,4,2,7,3,1,3,132,63,145,32,-19,205,199,15,-1,195,207,197,194,1,5341
64.957909107,-1,7,-6,0,-5,-2,2,4,3,9,65,112,31,-14,214,199,15,-1,200,195,189,210,1,5342
64.966851949,-1,7,-6,14,-3,6,0,6,3,16,7,203,49,-16,208,199,15,-1,180,220,195,197,1,5343
64.994826078,-2,8,-6,-6,-7,-3,0,6,2,206,-81,163,42,-24,232,199,15,-1,219,175,191,209,1,5344
65.005824089,-2,8,-6,9,-1,-13,-1,4,2,-23,-33,65,21,-38,227,199,15,-1,173,213,208,200,1,5345
65.013895034,-2,7,-6,-6,-12,-1,0,1,1,15,-67,5,25,-33,231,199,15,-1,216,180,182,217,1,5346
65.022862911,-3,7,-6,4,8,-4,2,-2,0,56,156,165,16,-28,238,199,15,-1,184,209,220,177,1,5347
65.05102396,-3,7,-6,-16,-2,-3,3,-5,-1,46,-129,132,34,-33,225,199,15,-1,220,168,189,211,1,5348
65.059953928,-3,7,-6,5,11,0,3,-6,-3,191,80,119,52,-24,213,199,15,-1,176,220,218,179,1,5349
65.073427915,-3,8,-6,-13,6,4,2,-6,-4,109,-160,-30,76,-30,202,199,15,-1,220,175,197,197,1,5350
65.080354929,-4,9,-6,12,1,-5,0,-3,-5,-211,84,73,68,-9,209,199,15,-1,166,220,198,203,1,5351
65.106909036,-3,9,-6,-7,0,10,-2,0,-4,26,-165,-6,79,-14,193,199,15,-1,220,181,193,196,1,5352
65.117106914,-3,10,-6,10,-12,0,-4,3,-3,-12,201,75,83,5,179,199,15,-1,177,220,179,217,1,5353
65.125873088,-3,11,-6,-4,-2,10,-4,5,0,83,-15,236,96,2,178,199,15,-1,218,187,201,188,1,5354
65.13519907,-3,12,-6,3,-10,0,-3,5,1,-250,-93,141,72,4,186,199,15,-1,189,207,185,213,1,5355
65.162858009,-2,13,-6,-5,10,0,-1,3,3,60,88,164,89,18,206,199,15,-1,211,187,220,174,1,5356
65.17287898,-2,13,-6,4,-6,-9,1,0,4,45,-100,144,88,12,213,199,15,-1,183,206,184,220,1,5357
65.181843996,-1,14,-6,-1,16,0,2,-3,4,52,55,47,95,16,220,199,15,-1,204,193,220,168,1,5358
65.192269086,-1,15,-6,9,0,-13,2,-5,3,-14,173,73,77,25,235,199,15,-1,178,208,188,219,1,5359
65.222678899,0,15,-6,0,11,0,2,-4,1,10,77,56,78,23,219,199,15,-1,208,189,216,181,1,5360
65.228895902,0,15,-6,-4,-3,-5,1,-2,-1,118,-235,123,78,8,231,199,15,-1,202,190,186,216,1,5361
65.239875078,0,15,-6,0,1,10,0,1,-4,28,154,-94,78,12,208,199,15,-1,200,205,199,190,1,5362
65.248105049,0,16,-6,0,-2,11,0,5,-5,9,70,167,78,15,219,199,15,-1,203,204,189,199,1,5363
65.275118112,0,16,-6,1,9,0,0,6,-5,21,216,-80,69,30,194,199,15,-1,196,201,215,182,1,5364
65.284940958,0,16,-6,1,-1,7,0,6,-3,0,-117,253,96,26,203,199,15,-1,200,203,185,206,1,5365
65.293986082,1,17,-6,0,-2,-5,0,4,0,-101,8,-169,90,43,182,199,15,-1,198,194,198,203,1,5366
65.305763959,1,17,-6,-9,0,-2,0,2,3,167,-47,154,95,7,194,199,15,-1,211,184,202,197,1,5367
65.331073999,1,18,-6,9,-4,0,0,0,6,-113,-67,-37,75,-2,185,199,15,-1,177,220,192,205,1,5368
65.343818903,1,18,-6,0,3,-5,0,0,6,55,-83,177,68,-10,188,199,15,-1,204,189,209,192,1,5369
65.350023984,1,18,-6,8,-3,-2,0,0,4,-139,219,171,43,8,198,199,15,-1,186,209,192,207,1,5370
65.360001087,1,18,-6,5,5,0,0,0,1,157,-72,204,61,-12,205,199,15,-1,198,200,209,188,1,5371
65.386930942,1,18,-6,0,0,-1,0,0,-1,-52,162,-44,32,4,203,199,15,-1,203,193,194,205,1,5372
65.396865129,1,17,-6,-8,2,4,1,0,-3,61,160,159,35,2,220,199,15,-1,212,189,202,192,1,5373
65.406212091,1,16,-6,-6,-8,-6,3,0,-4,-218,-6,98,20,15,213,199,15,-1,199,193,186,216,1,5374
65.415910959,1,16,-6,-4,2,0,3,0,-3,141,73,191,40,36,228,199,15,-1,199,197,209,188,1,5375
65.443815946,1,15,-6,3,-4,-2,2,0,-2,-62,249,84,21,44,224,199,15,-1,189,206,190,208,1,5376
65.455852031,2,15,-6,-10,8,9,0,0,0,36,48,43,33,64,219,199,15,-1,220,184,211,179,1,5377
65.466201067,3,14,-6,9,-1,-2,-2,0,0,-118,-92,247,25,57,217,199,15,-1,175,220,191,208,1,5378
65.473073005,3,14,-6,-6,4,9,-4,0,0,90,217,156,30,59,208,199,15,-1,220,184,203,187,1,5379
65.499920129,4,13,-6,11,-4,-6,-4,0,0,-206,-94,42,6,50,220,199,15,-1,174,218,190,212,1,5380
65.508990049,5,12,-6,3,-10,-3,-4,0,1,-99,86,-44,-4,67,199,199,15,-1,201,193,188,212,1,5381
65.518930912,6,11,-6,10,-1,-5,-2,0,1,-167,52,109,-14,62,209,199,15,-1,184,208,207,194,1,5382
65.528496027,7,10,-6,-7,0,0,0,0,1,184,-190,-58,-5,48,185,199,15,-1,217,180,200,197,1,5383
65.558546066,7,9,-6,10,5,-3,3,0,0,-152,-3,79,-13,37,206,199,15,-1,176,218,209,191,1,5384
65.565006971,7,8,-6,-8,-5,7,4,-1,0,-41,-168,129,-28,35,187,199,15,-1,220,180,182,209,1,5385
65.575155019,7,7,-6,4,2,-2,5,-2,-2,-123,213,207,-29,32,218,199,15,-1,183,212,209,190,1,5386
65.584135055,8,6,-6,13,-11,0,4,-2,-2,19,28,87,-37,49,215,199,15,-1,183,215,179,217,1,5387
65.612088918,8,5,-6,-6,8,3,3,-2,-2,-119,-35,56,-37,63,233,199,15,-1,220,178,219,175,1,5388
65.620899915,8,4,-6,2,0,2,2,-1,-1,-6,-71,1,-40,64,237,199,15,-1,191,209,191,203,1,5389
65.630916118,9,3,-6,-11,6,4,1,0,0,149,93,33,-26,70,242,199,15,-1,219,182,206,188,1,5390
65.643393039,9,2,-6,1,-3,-1,0,0,1,57,-4,223,-31,74,243,199,15,-1,186,209,188,211,1,5391
65.66801095,10,2,-6,-6,12,-1,0,0,2,177,87,22,-7,83,247,199,15,-1,210,186,220,177,1,5392
65.682024955,10,1,-6,10,-1,-1,0,1,3,87,-207,61,-5,65,242,199,15,-1,177,219,187,212,1,5393
65.691998958,11,1,-6,-12,2,0,-1,2,2,95,174,-102,10,86,232,199,15,-1,220,171,204,194,1,5394
65.696183919,11,1,-6,12,3,10,-2,2,1,-60,-127,120,0,63,215,199,15,-1,174,220,198,191,1,5395
65.724287033,12,1,-6,-7,-5,11,-2,3,0,169,144,72,11,58,202,199,15,-1,220,182,182,206,1,5396
65.732937097,12,1,-6,2,0,-1,-2,3,0,-193,-72,172,-12,39,196,199,15,-1,188,208,205,193,1,5397
65.742895126,12,1,-6,-1,-7,7,-1,3,0,216,121,87,3,50,188,199,15,-1,207,197,183,208,1,5398
65.75198102,12,1,-6,4,0,-9,0,1,2,-77,-251,44,-4,27,195,199,15,-1,186,203,208,197,1,5399
65.780004978,12,1,-6,-8,-9,-4,0,0,3,239,-177,-67,17,22,177,199,15,-1,213,180,187,214,1,5400
65.790038108,12,1,-6,8,6,0,0,-1,4,84,56,2,27,21,192,199,15,-1,179,217,217,181,1,5401
65.802819013,11,1,-6,-15,-7,0,0,-3,4,191,-144,70,44,-1,203,199,15,-1,220,170,181,215,1,5402
65.809351921,10,2,-6,14,7,-2,0,-4,2,-7,5,38,35,8,220,199,15,-1,163,220,217,182,1,5403
65.83634901,10,3,-6,-7,2,13,0,-4,0,166,-154,104,51,1,209,199,15,-1,220,180,191,195,1,5404
65.845973968,9,4,-6,8,8,2,-1,-3,-2,-93,163,101,48,17,220,199,15,-1,180,218,208,188,1,5405
65.85487008,9,4,-6,5,7,12,-1,-1,-2,228,-180,207,66,-2,207,199,15,-1,202,205,198,189,1,5406
65.86493206,8,5,-6,6,-6,-4,0,0,-1,67,68,40,68,0,192,199,15,-1,192,202,185,216,1,5407
65.892147064,8,6,-6,-12,-5,1,0,3,1,63,-193,139,77,-7,196,199,15,-1,220,175,195,200,1,5408
65.902152061,7,7,-6,2,-4,0,2,4,4,84,140,-60,82,2,180,199,15,-1,185,212,196,201,1,5409
65.910973072,6,8,-6,-10,-1,-1,3,4,6,57,27,205,90,-13,189,199,15,-1,216,180,200,198,1,5410
65.920808076,6,9,-6,8,2,-2,3,3,6,-38,-73,-37,73,-29,163,199,15,-1,176,219,205,194,1,5411
65.948178052,5,10,-6,4,10,7,1,0,4,43,34,-34,66,-45,160,199,15,-1,202,201,208,182,1,5412
65.957878112,3,11,-6,-1,0,-8,0,-1,2,-143,-179,44,54,-43,159,199,15,-1,202,189,192,211,1,5413
65.966958999,2,12,-6,3,14,4,-1,-2,0,113,77,241,55,-48,177,199,15,-1,194,207,220,174,1,5414
65.977462053,1,12,-6,1,-4,0,-1,-1,-1,-125,-126,13,52,-48,184,199,15,-1,199,198,179,219,1,5415
66.004934072,0,12,-6,-7,-3,-5,-1,0,-1,182,182,200,53,-33,190,199,15,-1,209,184,200,201,1,5416
66.015620946,0,12,-6,9,-5,3,0,3,-1,18,-86,45,63,-34,197,199,15,-1,180,220,192,202,1,5417
66.024114131,-1,13,-6,-9,-4,-2,1,5,0,47,145,193,55,-33,202,199,15,-1,219,176,197,201,1,5418
66.032881975,-1,13,-6,5,0,9,1,4,0,25,-156,128,60,-28,206,199,15,-1,186,218,198,192,1,5419
66.060992956,-1,13,-6,16,12,-2,1,2,0,73,244,233,52,-7,221,199,15,-1,177,218,219,180,1,5420
66.069988966,-1,13,-6,-2,2,-1,0,0,0,-47,-64,246,45,-13,234,199,15,-1,216,180,192,207,1,5421
66.084219932,-2,13,-6,4,-4,-8,0,-2,0,15,-66,-6,36,3,217,199,15,-1,187,203,193,210,1,5422
66.08901596,-1,13,-6,0,5,11,1,-2,0,41,-200,15,39,-7,216,199,15,-1,208,198,207,181,1,5423
66.116859912,-1,12,-6,-9,-2,-3,2,-1,0,-179,-85,-179,21,-3,202,199,15,-1,210,184,191,209,1,5424
66.127912044,-1,12,-5,-7,9,13,3,0,0,-46,86,10,24,5,197,199,15,-1,207,200,210,176,1,5425
66.139934063,-1,12,-5,-5,-12,2,3,2,0,-149,-121,238,5,8,199,199,15,-1,201,198,172,220,1,5426
66.145010948,-1,11,-5,-13,0,-2,1,3,0,-63,219,210,-1,15,220,199,15,-1,213,182,209,190,1,5427
66.172868013,-1,10,-5,2,-5,-3,-1,3,1,-142,-47,144,-11,10,207,199,15,-1,183,211,192,207,1,5428
66.182358026,-1,9,-6,-8,0,-5,-4,1,2,126,37,147,-9,17,231,199,15,-1,211,181,206,195,1,5429
66.192352056,0,8,-6,6,-6,2,-7,0,3,-83,-70,41,-42,0,222,199,15,-1,182,217,186,208,1,5430
66.200860023,0,7,-6,13,-5,-8,-8,-2,2,9,241,129,-14,28,244,199,15,-1,181,209,200,204,1,5431
66.228884935,0,6,-6,9,0,-4,-7,-3,0,-81,-3,82,-33,26,249,199,15,-1,194,199,204,196,1,5432
66.242521047,0,5,-6,5,-2,-7,-4,-4,-1,84,214,214,-9,46,245,199,15,-1,196,195,197,206,1,5433
66.24793291,1,5,-6,10,-2,0,0,-4,-3,-22,-72,113,-15,26,252,199,15,-1,186,210,197,201,1,5434
66.257843971,1,4,-6,-19,-2,4,4,-4,-4,2,-67,-69,3,29,235,199,15,-1,220,162,195,198,1,5435
66.28512597,1,4,-6,3,-4,7,8,-3,-5,-215,118,229,-16,13,249,199,15,-1,180,220,191,200,1,5436
66.296009063,1,3,-6,-17,-4,0,9,-2,-5,-58,-8,-110,-20,17,228,199,15,-1,220,169,195,202,1,5437
66.304292917,1,2,-6,0,0,-2,7,-2,-3,-10,119,189,-23,28,241,199,15,-1,181,214,203,196,1,5438
66.314274072,2,2,-6,1,11,0,2,-2,0,18,-175,-86,-23,27,217,199,15,-1,196,200,217,181,1,5439
66.341119051,2,1,-6,6,9,-5,-2,-2,1,21,55,168,-26,30,227,199,15,-1,188,204,205,197,1,5440
66.351552009,3,1,-6,6,3,3,-6,-1,2,-63,-154,78,-26,13,218,199,15,-1,195,204,194,200,1,5441
66.36087203,3,0,-6,8,-2,-13,-7,0,2,-169,121,185,-36,23,241,199,15,-1,187,200,198,210,1,5442
66.369972944,3,0,-6,-9,-12,0,-5,1,1,28,-65,165,-36,17,248,199,15,-1,220,177,182,215,1,5443
66.39803195,3,0,-6,0,0,2,-1,3,-1,51,164,86,-25,29,18,199,15,-1,193,207,208,187,1,5444
66.406960964,3,0,-6,-10,-3,3,2,4,-3,140,-117,111,-15,6,23,199,15,-1,215,185,192,203,1,5445
66.416887998,3,-1,-6,-7,-1,-14,5,3,-4,24,189,146,-7,22,19,199,15,-1,195,191,205,203,1,5446
66.425082922,3,-1,-6,2,2,9,4,0,-4,-22,-125,189,-5,4,18,199,15,-1,193,212,200,189,1,5447
66.453028917,3,-1,-6,6,13,8,1,-2,-3,-69,1,-12,-1,32,10,199,15,-1,194,210,213,178,1,5448
66.462054014,3,0,-6,16,6,0,-2,-3,-1,-76,159,209,-11,26,13,199,15,-1,180,217,198,199,1,5449
66.472002029,3,-1,-6,-8,4,1,-4,-3,0,99,99,-25,10,60,240,199,15,-1,220,173,200,196,1,5450
66.480967998,4,0,-6,3,9,5,-4,0,1,136,24,193,3,49,230,199,15,-1,188,213,206,186,1,5451
66.509071111,5,0,-6,-15,-5,9,-2,2,2,-47,-170,28,18,41,241,199,15,-1,220,177,179,211,1,5452
66.518887043,5,0,-6,3,-1,-4,1,6,3,-25,-23,106,0,29,235,199,15,-1,179,214,203,198,1,5453
66.53228712,5,0,-6,-12,-9,0,3,8,3,131,-88,253,7,28,229,199,15,-1,220,177,185,212,1,5454
66.538238048,5,0,-6,7,-10,-15,3,7,3,-216,-24,246,-16,17,245,199,15,-1,170,215,197,212,1,5455
66.564858913,5,0,-6,-8,-12,9,1,4,3,28,-60,87,-3,-3,225,199,15,-1,220,183,184,206,1,5456
66.574927091,5,0,-6,3,0,-5,-1,0,1,56,-191,49,1,-13,233,199,15,-1,184,209,210,191,1,5457
66.583909034,4,0,-6,3,-11,3,-4,-4,0,18,-154,168,3,-39,219,199,15,-1,198,202,181,214,1,5458
66.597398996,3,0,-6,6,19,7,-5,-8,-1,17,131,200,3,-24,234,199,15,-1,195,208,220,157,1,5459
66.621042013,2,0,-6,-5,10,6,-4,-10,-2,138,-199,181,9,-49,222,199,15,-1,215,187,195,196,1,5460
66.630861997,1,0,-6,10,14,-4,-1,-9,-2,-119,-219,83,6,-40,209,199,15,-1,176,217,213,188,1,5461
66.640319109,1,0,-6,-10,11,7,0,-5,0,115,11,186,20,-45,196,199,15,-1,220,177,200,191,1,5462
66.649997949,0,0,-6,1,-7,-6,2,0,1,-188,-220,171,9,-40,197,199,15,-1,185,206,181,220,1,5463
66.678086996,0,0,-6,-7,-13,2,3,6,3,78,-26,169,23,-50,201,199,15,-1,212,187,183,212,1,5464
66.688184976,-1,0,-6,-3,-17,1,2,10,4,-57,-6,170,13,-44,191,199,15,-1,198,201,183,213,1,5465
66.696808099,-2,1,-6,0,-4,6,0,10,3,101,209,205,17,-43,194,199,15,-1,199,203,205,187,1,5466
66.706027984,-3,1,-6,7,5,1,-1,6,2,-27,-156,155,17,-45,179,199,15,-1,187,211,210,186,1,5467
66.73386693,-4,1,-6,-3,12,9,-3,0,1,55,170,14,23,-49,193,199,15,-1,215,190,209,180,1,5468
66.7429111,-4,2,-6,6,15,5,-4,-6,0,120,-94,230,33,-62,195,199,15,-1,187,214,208,184,1,5469
66.752931118,-5,2,-6,7,15,-1,-3,-9,1,-43,42,8,26,-65,209,199,15,-1,192,204,210,188,1,5470
66.762790918,-6,3,-6,-5,5,-4,-1,-7,2,196,201,144,29,-56,219,199,15,-1,212,182,196,205,1,5471
66.791951894,-6,3,-6,5,3,-1,1,-1,4,-141,-252,-38,24,-60,203,199,15,-1,185,210,199,199,1,5472
66.798913002,-7,3,-6,-6,-1,-2,3,6,4,62,-57,95,42,-62,215,199,15,-1,211,184,195,204,1,5473
66.80883193,-8,4,-6,0,-8,0,4,12,3,-53,41,71,32,-55,206,199,15,-1,194,203,186,210,1,5474
66.81844592,-8,4,-6,0,-1,5,3,14,1,123,143,198,49,-34,217,199,15,-1,201,201,201,191,1,5475
66.845945119,-8,5,-6,-7,-10,-6,2,12,0,-197,-172,-100,38,-27,207,199,15,-1,207,185,187,215,1,5476
66.854974985,-8,5,-6,-5,3,0,0,6,-2,113,76,71,41,-13,221,199,15,-1,200,196,213,184,1,5477
66.864923954,-8,5,-6,-3,3,-7,-1,0,-2,48,-104,177,42,-11,222,199,15,-1,196,195,203,199,1,5478
66.87489891,-8,6,-6,-10,8,0,-3,-5,-2,92,4,0,46,-4,224,199,15,-1,212,185,209,188,1,5479
66.902200937,-7,6,-6,10,1,-5,-4,-7,-1,-47,-52,103,37,2,233,199,15,-1,171,220,196,206,1,5480
66.911083936,-7,6,-6,-10,10,1,-5,-6,-1,17,-22,-21,56,12,228,199,15,-1,220,175,212,184,1,5481
66.921261072,-6,7,-6,5,-6,0,-5,-2,-1,-121,10,133,45,12,238,199,15,-1,183,215,181,216,1,5482
66.933424949,-5,7,-6,2,3,7,-4,2,-2,191,99,29,64,28,218,199,15,-1,202,201,206,185,1,5483
66.95816493,-4,8,-6,0,0,-3,-3,5,-2,-180,-86,176,38,12,219,199,15,-1,198,196,197,203,1,5484
66.967181921,-4,8,-6,3,-5,10,-1,7,-1,132,234,9,47,24,211,199,15,-1,199,206,186,203,1,5485
66.977880954,-3,8,-6,-3,-9,8,0,6,0,137,32,208,49,15,224,199,15,-1,209,195,186,205,1,5486
66.985933065,-3,8,-6,-7,-6,1,1,3,1,105,61,43,56,26,218,199,15,-1,208,191,197,199,1,5487
67.014008045,-2,9,-6,-8,4,-4,1,0,3,11,-120,242,54,12,217,199,15,-1,203,191,213,188,1,5488
67.023180007,-2,9,-6,-3,3,-2,1,-3,4,-135,-135,5,41,9,193,199,15,-1,197,199,201,198,1,5489
67.033062934,-1,9,-6,0,8,-2,0,-5,5,24,244,221,57,7,216,199,15,-1,196,199,210,189,1,5490
67.042463064,-1,10,-6,16,0,-8,-2,-5,4,-60,-53,196,31,-5,206,199,15,-1,170,220,196,208,1,5491
67.069956064,-1,10,-6,-12,10,0,-4,-3,2,184,100,148,48,25,228,199,15,-1,220,167,214,183,1,5492
67.079838037,0,10,-6,11,-6,-7,-4,0,0,-38,-95,205,17,23,221,199,15,-1,169,220,183,220,1,5493
67.088867902,0,9,-6,-6,10,2,-3,3,-2,101,-68,127,37,17,224,199,15,-1,218,181,218,177,1,5494
67.09907794,0,9,-6,4,-5,5,-1,5,-4,-251,-5,234,19,-2,213,199,15,-1,188,213,179,213,1,5495
67.125975132,0,9,-6,-16,0,-4,1,6,-5,224,121,170,40,24,226,199,15,-1,220,168,205,195,1,5496
67.135895013,0,9,-6,0,-4,6,2,5,-4,-149,185,208,27,30,233,199,15,-1,186,216,188,203,1,5497
67.145075082,0,9,-6,-2,0,2,2,3,-2,184,126,-47,33,41,222,199,15,-1,203,196,201,194,1,5498
67.155031919,1,9,-6,5,7,4,0,1,0,-39,-83,32,14,11,223,199,15,-1,190,211,209,185,1,5499
67.182284116,1,8,-6,4,3,6,-1,-1,1,99,-159,-29,21,6,204,199,15,-1,199,203,195,197,1,5500
67.192548036,1,8,-5,3,8,4,-3,-2,3,4,120,116,8,26,224,199,15,-1,199,201,207,187,1,5501
67.201175928,2,8,-5,8,0,11,-3,-1,4,-249,-48,184,1,10,226,199,15,-1,193,213,185,202,1,5502
67.211745977,2,7,-5,1,2,-4,-1,0,4,1,226,23,-7,17,239,199,15,-1,201,192,205,196,1,5503
67.237926006,2,7,-5,-9,-6,1,0,2,5,-102,-172,32,-3,25,219,199,15,-1,215,183,185,211,1,5504
67.248121023,2,6,-5,-4,3,4,3,4,5,-75,121,138,-13,19,238,199,15,-1,198,202,208,185,1,5505
67.25833106,2,5,-5,-10,-12,-2,4,4,4,-203,-170,26,-31,9,216,199,15,-1,210,185,178,220,1,5506
67.266865015,2,4,-5,-1,1,1,4,3,3,179,226,252,-27,18,239,199,15,-1,193,206,211,185,1,5507
67.294857025,2,4,-5,-1,-5,0,1,1,2,-100,-63,209,-32,20,250,199,15,-1,200,198,189,208,1,5508
67.304920911,2,3,-5,0,14,5,-2,-1,1,160,149,197,-18,47,4,199,15,-1,199,203,220,170,1,5509
67.313915014,3,3,-5,8,8,10,-5,-3,0,52,66,139,-29,39,0,199,15,-1,190,215,195,194,1,5510
67.322851896,3,2,-5,8,-4,-4,-6,-3,0,74,80,99,-9,58,8,199,15,-1,192,202,186,214,1,5511
67.350986957,4,2,-5,7,-5,-7,-5,-2,0,-58,46,180,-22,43,10,199,15,-1,191,200,197,206,1,5512
67.362186908,4,1,-5,0,-9,0,-2,0,2,-52,32,129,-10,62,6,199,15,-1,206,191,188,209,1,5513
67.371551036,5,1,-5,3,-1,4,1,2,2,-145,179,21,-35,74,13,199,15,-1,194,206,202,192,1,5514
67.378925085,6,0,-5,-15,-2,-3,5,3,2,-57,-233,56,-25,76,4,199,15,-1,220,171,198,202,1,5515
67.407027006,6,0,-5,3,6,-10,7,1,1,-110,210,155,-42,67,4,199,15,-1,176,213,215,190,1,5516
67.416867017,6,0,-5,-24,-2,2,6,-1,0,66,-184,17,-31,49,237,199,15,-1,220,160,189,206,1,5517
67.427206993,7,0,-5,14,10,0,3,-3,-1,-128,125,142,-47,49,3,199,15,-1,157,220,215,182,1,5518
67.435857057,7,-1,-5,4,0,3,0,-4,-2,243,-234,163,-20,54,253,199,15,-1,205,194,189,205,1,5519
67.463083028,7,-1,-5,6,4,-14,-4,-2,-3,-68,-5,-62,-28,61,252,199,15,-1,187,198,211,198,1,5520
67.473131895,8,-2,-5,5,-2,3,-6,0,-3,-58,75,242,-31,46,245,199,15,-1,197,203,189,205,1,5521
67.482592105,8,-2,-5,8,-2,-10,-5,2,-2,99,9,82,-14,62,240,199,15,-1,186,203,201,204,1,5522
67.492187976,8,-2,-5,-14,-1,8,-2,4,-2,-160,-207,213,-22,40,249,199,15,-1,220,173,195,195,1,5523
67.518889904,8,-2,-5,9,11,-1,2,4,-2,120,132,133,-11,69,254,199,15,-1,171,220,218,181,1,5524
67.52900505,9,-2,-5,-13,-1,-2,5,3,-2,-156,170,29,-15,71,249,199,15,-1,220,169,187,212,1,5525
67.538039922,9,-2,-5,-10,5,1,6,1,-2,-146,201,140,-12,90,255,199,15,-1,204,195,208,188,1,5526
67.54801011,10,-2,-5,5,5,5,4,0,-1,-1,-26,113,-21,77,235,199,15,-1,184,217,200,193,1,5527
67.577956914,10,-2,-5,-1,0,1,1,0,-1,-62,167,65,-19,89,228,199,15,-1,206,192,192,203,1,5528
67.584962129,11,-2,-5,4,8,5,-2,1,0,-162,190,-10,-35,78,217,199,15,-1,192,209,210,183,1,5529
67.593910932,12,-3,-5,-10,-3,0,-5,2,0,35,91,12,-23,79,211,199,15,-1,218,179,186,210,1,5530
67.603892087,12,-3,-5,-4,3,-3,-6,3,2,1,4,162,-27,62,201,199,15,-1,196,198,207,193,1,5531
67.631791114,13,-3,-5,-2,4,-5,-4,4,2,68,-36,-25,-21,58,178,199,15,-1,197,196,205,196,1,5532
67.643577098,13,-3,-5,-5,-2,-5,-3,4,2,90,4,174,-13,44,181,199,15,-1,203,190,194,208,1,5533
67.651531934,13,-3,-5,0,-2,0,-1,3,2,118,30,150,0,37,174,199,15,-1,194,203,197,200,1,5534
67.659930944,13,-3,-5,1,-3,-5,-1,2,0,-95,-33,240,-2,34,183,199,15,-1,194,199,198,204,1,5535
67.692173004,12,-3,-5,-5,0,14,-2,1,-1,178,206,105,11,34,181,199,15,-1,213,195,196,190,1,5536
67.696931123,13,-3,-5,11,-3,-5,-3,0,-3,-120,-3,9,2,43,181,199,15,-1,175,217,195,206,1,5537
67.706877946,13,-2,-5,4,0,9,-3,0,-3,92,-38,45,13,35,176,199,15,-1,206,199,199,190,1,5538
67.715879917,12,-2,-5,6,-3,0,-2,-1,-2,-48,-28,242,-1,45,180,199,15,-1,192,206,193,204,1,5539
67.74400711,13,-2,-5,-13,-1,8,0,-2,0,102,64,58,7,61,199,199,15,-1,220,177,195,195,1,5540
67.753464937,13,-1,-5,1,-4,-8,1,-2,1,158,194,233,18,80,198,199,15,-1,181,208,197,207,1,5541
67.764287948,13,-1,-5,-9,3,-3,3,-2,3,158,106,79,21,85,198,199,15,-1,213,181,209,191,1,5542
67.77224493,14,0,-5,4,7,-4,3,-1,4,-19,-46,42,28,80,189,199,15,-1,181,212,209,192,1,5543
67.800051927,15,0,-5,1,7,0,1,-1,3,117,151,-37,28,68,181,199,15,-1,201,196,203,194,1,5544
67.809860944,15,0,-6,-6,3,-1,0,0,1,213,-68,72,46,56,183,199,15,-1,209,187,198,200,1,5545
67.818980932,15,1,-6,6,2,3,-2,0,0,67,44,203,57,48,199,199,15,-1,185,215,198,196,1,5546
67.828759908,15,2,-5,-1,-4,3,-3,2,-3,120,-68,223,63,46,204,199,15,-1,207,193,188,206,1,5547
67.855798006,15,3,-6,5,-4,-3,-3,4,-3,-66,-65,115,63,35,194,199,15,-1,188,206,198,202,1,5548
67.866080999,14,4,-6,0,-2,-1,-2,4,-3,70,-172,180,75,16,204,199,15,-1,202,194,198,200,1,5549
67.875083923,14,5,-6,8,1,-1,0,4,-1,-7,-96,163,60,7,198,199,15,-1,185,210,204,194,1,5550
67.886002063,13,6,-6,-11,0,3,1,2,0,161,-131,123,68,-12,209,199,15,-1,220,176,196,198,1,5551
67.912122964,12,7,-6,9,6,-1,2,0,1,-140,122,-11,57,-4,210,199,15,-1,174,220,209,190,1,5552
67.922482013,10,7,-5,-16,5,2,3,-2,1,51,-1,220,55,-17,225,199,15,-1,220,166,201,194,1,5553
67.930958032,9,8,-6,18,3,-8,2,-2,0,-48,115,-106,47,-13,212,199,15,-1,153,220,202,202,1,5554
67.940962076,8,8,-5,-3,10,10,1,-1,0,138,-222,118,59,-9,206,199,15,-1,220,182,207,182,1,5555
67.968025922,8,9,-5,2,-2,-2,0,1,0,-102,156,209,44,-12,211,199,15,-1,191,204,187,212,1,5556
67.980482101,7,9,-5,4,5,12,0,3,0,-204,177,55,40,-3,226,199,15,-1,200,207,204,183,1,5557
67.9873209,6,9,-5,3,-13,0,0,5,0,-128,244,174,29,10,233,199,15,-1,197,199,174,220,1,5558
67.996872901,6,9,-5,0,0,-5,0,6,0,8,-237,80,32,0,238,199,15,-1,200,193,211,190,1,5559
68.024811029,6,9,-5,4,-18,-5,2,5,2,31,-132,21,29,-22,236,199,15,-1,190,203,172,220,1,5560
68.034050941,5,8,-5,5,1,4,3,2,2,7,-2,199,21,-44,234,199,15,-1,196,205,215,178,1,5561
68.044104099,4,8,-5,-5,-15,-6,3,-1,2,-65,-128,191,10,-56,240,199,15,-1,209,183,176,220,1,5562
68.052896022,3,8,-5,11,12,-6,3,-5,1,154,203,3,19,-31,225,199,15,-1,175,218,220,169,1,5563
68.080943107,2,8,-5,-4,11,3,2,-8,0,110,-51,192,18,-54,249,199,15,-1,216,184,204,190,1,5564
68.090084075,1,7,-5,15,10,-6,2,-8,-2,76,-95,-171,11,-55,224,199,15,-1,169,220,207,195,1,5565
68.103934049,0,7,-5,-13,19,11,2,-6,-3,32,-8,173,10,-70,210,199,15,-1,220,170,214,174,1,5566
68.109138011,0,7,-5,5,-9,-10,2,-2,-3,104,106,246,9,-62,211,199,15,-1,175,214,173,220,1,5567
68.136954069,-2,6,-5,-23,0,-1,2,3,-3,241,-3,2,24,-71,218,199,15,-1,220,158,206,192,1,5568
68.14587593,-2,6,-6,9,-12,-10,2,8,-2,-25,8,167,19,-62,230,199,15,-1,160,220,184,220,1,5569
68.155962944,-3,6,-6,-19,-1,-9,0,10,-1,144,-81,51,27,-74,225,199,15,-1,220,158,211,193,1,5570
68.166361093,-4,6,-6,11,-15,0,-1,9,0,-239,132,218,7,-48,217,199,15,-1,165,220,176,220,1,5571
68.192910909,-5,6,-6,-2,14,0,-3,4,-2,31,76,183,28,-51,226,199,15,-1,212,185,220,163,1,5572
68.203073024,-5,5,-6,-2,-11,0,-5,-1,-3,-69,-91,21,22,-42,216,199,15,-1,199,198,169,220,1,5573
68.214304924,-6,6,-6,3,19,6,-6,-6,-5,226,158,131,36,-40,228,199,15,-1,194,208,220,157,1,5574
68.220986127,-6,6,-6,5,3,7,-5,-8,-5,65,-189,170,32,-39,231,199,15,-1,196,207,185,207,1,5575
68.249063015,-6,6,-6,-10,2,-12,-2,-6,-4,161,-186,92,45,-56,238,199,15,-1,214,173,204,203,1,5576
68.258801937,-7,6,-6,4,-1,0,0,-2,-1,134,-19,210,62,-78,233,199,15,-1,183,214,194,202,1,5577
68.26793003,-7,7,-6,-14,-4,-3,1,2,1,-23,62,201,68,-87,221,199,15,-1,220,171,195,205,1,5578
68.279381036,-8,7,-6,11,0,-4,1,6,2,-110,-102,191,62,-81,227,199,15,-1,168,220,203,197,1,5579
68.304868936,-9,8,-6,-7,10,0,0,7,2,8,114,-216,73,-68,202,199,15,-1,219,179,214,183,1,5580
68.314919948,-10,9,-6,-5,3,-3,0,5,0,-184,-3,187,64,-81,214,199,15,-1,200,194,197,203,1,5581
68.324093103,-10,9,-6,5,-8,-6,-2,3,-1,67,-51,-166,70,-77,184,199,15,-1,183,208,185,217,1,5582
68.33398199,-11,10,-6,-4,0,10,-3,0,-3,18,-85,247,64,-92,196,199,15,-1,214,191,203,186,1,5583
68.361124038,-12,10,-6,2,-8,2,-3,0,-4,-42,-63,9,56,-80,174,199,15,-1,191,208,185,210,1,5584
68.371093988,-13,11,-6,0,2,6,-2,-1,-3,86,144,137,56,-55,202,199,15,-1,205,198,206,186,1,5585
68.380034923,-13,11,-5,1,-5,1,-1,-1,-2,5,39,152,55,-40,201,199,15,-1,196,202,188,208,1,5586
68.389986038,-13,11,-6,-8,-4,-8,0,-1,0,238,17,226,62,-31,213,199,15,-1,209,182,200,204,1,5587
68.416949987,-12,11,-5,6,-2,10,0,-1,2,-250,-180,-119,37,-27,194,199,15,-1,186,219,194,195,1,5588
68.426877021,-12,11,-6,-10,4,-14,0,-2,3,152,-18,125,46,-29,192,199,15,-1,213,172,214,195,1,5589
68.436110973,-12,12,-6,9,1,4,0,-3,3,-157,-27,233,31,-13,201,199,15,-1,178,220,195,199,1,5590
68.446039915,-11,11,-6,5,0,-4,0,-3,2,68,114,203,59,-14,213,199,15,-1,196,197,198,202,1,5591
68.473120927,-11,12,-6,9,5,0,0,-2,0,-233,-74,191,33,-22,214,199,15,-1,189,208,208,190,1,5592
68.482882022,-10,11,-6,-5,3,-2,0,-1,-1,-124,-74,-133,30,-21,193,199,15,-1,213,182,200,199,1,5593
68.492115974,-10,11,-6,11,-2,5,0,0,-3,4,138,187,19,-22,196,199,15,-1,180,220,189,204,1,5594
68.502038002,-10,11,-6,-10,-4,-1,2,1,-3,-127,-240,55,10,-24,190,199,15,-1,220,173,195,203,1,5595
68.529886961,-10,10,-6,11,-12,-3,3,2,-2,7,218,120,2,-4,191,199,15,-1,171,220,185,214,1,5596
68.538898944,-9,9,-6,-10,-3,-5,4,2,-1,-121,-35,108,-10,7,186,199,15,-1,220,171,205,196,1,5597
68.54897809,-8,8,-6,13,-9,-9,4,1,0,-58,-40,-49,-12,2,174,199,15,-1,166,220,191,214,1,5598
68.560645103,-8,8,-6,0,11,1,3,-1,0,125,-100,-88,0,-10,147,199,15,-1,209,189,220,173,1,5599
68.585870027,-7,7,-6,10,11,-7,1,-4,0,-177,-89,133,-22,-20,165,199,15,-1,181,210,209,194,1,5600
68.595088958,-7,6,-6,0,2,4,1,-5,-2,93,-233,67,-8,-19,146,199,15,-1,210,191,191,202,1,5601
68.604813098,-7,5,-6,9,8,-7,1,-5,-3,-116,46,53,-17,-14,169,199,15,-1,181,210,211,192,1,5602
68.613980054,-7,5,-6,-6,-6,2,2,-2,-4,8,-162,62,-5,-18,160,199,15,-1,217,181,181,215,1,5603
68.641839027,-7,4,-6,-7,-3,2,4,1,-4,183,147,161,5,-7,168,199,15,-1,204,194,197,198,1,5604
68.651084899,-7,4,-6,-4,-5,4,4,5,-3,220,-232,43,12,-39,150,199,15,-1,201,200,192,201,1,5605
68.660871028,-7,4,-6,-9,-8,2,4,6,-2,104,209,101,17,-30,161,199,15,-1,211,188,190,205,1,5606
68.67003107,-7,4,-6,2,3,6,1,4,0,-31,106,149,4,-39,157,199,15,-1,189,214,208,183,1,5607
68.700099945,-8,4,-6,0,8,0,-1,1,1,29,123,-27,18,-23,161,199,15,-1,201,196,208,189,1,5608
68.706969022,-8,4,-6,17,4,-6,-4,-2,2,-126,-63,179,4,-26,151,199,15,-1,169,220,201,201,1,5609
68.716949939,-8,4,-6,-9,9,-4,-5,-4,3,60,167,-66,14,-16,136,199,15,-1,220,168,210,190,1,5610
68.725976944,-8,4,-6,9,7,0,-4,-4,3,82,-226,214,2,-33,124,199,15,-1,176,220,203,195,1,5611
68.754161119,-8,4,-6,-10,-9,0,-2,-1,2,22,-63,210,28,-32,125,199,15,-1,220,175,178,219,1,5612
68.763988018,-9,4,-6,-1,0,3,1,2,0,77,148,104,38,-21,150,199,15,-1,193,207,205,189,1,5613
68.776068925,-8,5,-6,-7,-11,0,3,5,-1,176,91,160,47,-24,161,199,15,-1,209,189,180,216,1,5614
68.782903909,-8,6,-6,-11,2,-12,3,6,-2,-69,-54,243,50,-14,170,199,15,-1,203,184,218,189,1,5615
68.810087919,-8,6,-6,-8,-12,3,1,4,-2,-32,-72,141,47,-42,159,199,15,-1,203,197,176,218,1,5616
68.819947004,-8,7,-6,8,-1,-5,-1,1,-2,108,157,193,59,-32,176,199,15,-1,178,215,208,193,1,5617
68.829101085,-8,8,-6,8,-9,0,-5,-3,-1,-40,-77,185,60,-34,188,199,15,-1,193,205,185,211,1,5618
68.84011507,-9,8,-6,0,9,2,-7,-6,-1,130,29,178,60,-2,214,199,15,-1,206,194,219,176,1,5619
68.866235017,-8,9,-6,0,2,3,-7,-7,-1,158,-69,126,77,-1,213,199,15,-1,202,199,193,201,1,5620
68.87660408,-7,10,-6,-5,10,0,-4,-7,-1,16,40,64,86,12,213,199,15,-1,206,191,212,185,1,5621
68.884932041,-7,11,-6,4,9,12,0,-5,-1,62,56,194,95,12,207,199,15,-1,193,214,199,188,1,5622
68.895890951,-6,12,-6,-4,-8,-2,2,-1,0,140,104,131,89,39,211,199,15,-1,208,187,179,220,1,5623
68.922077894,-5,12,-6,1,-1,9,3,2,1,109,236,244,85,43,215,199,15,-1,197,208,199,190,1,5624
68.932256937,-4,13,-6,-14,-9,-3,3,5,3,-142,66,185,67,58,235,199,15,-1,220,175,187,213,1,5625
68.941088914,-3,13,-6,8,-7,-2,1,6,4,-56,151,116,59,55,223,199,15,-1,173,220,196,203,1,5626
68.950845003,-2,13,-6,-14,-5,0,0,4,5,125,1,48,67,50,218,199,15,-1,220,169,196,201,1,5627
68.978959083,-1,13,-6,17,13,-5,-3,0,4,3,-59,244,65,41,231,199,15,-1,158,220,220,175,1,5628
68.990325927,0,13,-6,-5,0,0,-4,-3,3,94,-173,204,76,35,245,199,15,-1,220,176,188,208,1,5629
68.997220039,0,14,-6,13,19,4,-4,-5,0,-110,59,-160,68,30,241,199,15,-1,177,220,220,168,1,5630
69.007050991,0,14,-6,-7,7,5,-2,-5,-1,127,-107,112,83,36,248,199,15,-1,220,178,190,202,1,5631
69.035226106,1,14,-6,14,5,-2,0,-2,-2,-68,6,29,66,39,252,199,15,-1,170,220,202,197,1,5632
69.043962001,1,14,-6,-3,-2,8,2,2,-2,7,-217,64,75,21,237,199,15,-1,218,185,187,204,1,5633
69.053812027,1,14,-6,5,-6,0,4,7,0,-6,159,238,66,24,228,199,15,-1,188,209,190,206,1,5634
69.062948942,2,14,-6,-4,-3,3,5,10,1,181,1,238,78,27,228,199,15,-1,211,188,197,197,1,5635
69.092718124,2,15,-6,-4,-2,-6,5,10,2,89,-159,212,84,35,232,199,15,-1,199,192,200,202,1,5636
69.099960088,3,15,-6,6,0,-4,3,6,3,-197,-124,96,69,21,227,199,15,-1,182,211,203,198,1,5637
69.111745119,3,15,-6,-12,-1,-1,2,1,3,-176,-26,0,62,24,218,199,15,-1,220,173,196,202,1,5638
69.119132995,3,15,-6,8,7,-1,0,-2,2,-122,122,158,50,16,204,199,15,-1,175,220,212,187,1,5639
69.14687705,3,15,-6,-13,0,-2,-1,-5,0,237,25,170,54,21,219,199,15,-1,220,170,194,205,1,5640
69.156230926,3,15,-6,7,9,8,-2,-5,-2,54,127,253,43,38,228,199,15,-1,179,220,210,181,1,5641
69.165822982,4,15,-6,-10,-2,1,-2,-3,-3,155,-180,103,47,26,237,199,15,-1,220,177,186,210,1,5642
69.176394939,4,14,-6,3,4,-5,-2,0,-3,-173,87,123,32,25,236,199,15,-1,182,211,210,192,1,5643
69.204610109,4,14,-6,-13,-9,0,-2,2,-2,215,-248,231,37,1,248,199,15,-1,220,175,180,217,1,5644
69.211916923,4,13,-6,2,0,0,-2,4,0,226,182,78,55,19,243,199,15,-1,184,213,207,190,1,5645
69.220926046,4,13,-6,1,-6,10,-2,4,1,176,-233,197,67,0,247,199,15,-1,202,203,184,204,1,5646
69.230891943,3,14,-6,10,11,1,-2,3,1,11,107,84,74,18,236,199,15,-1,184,214,220,175,1,5647
69.258866071,3,14,-6,-2,-1,-1,-2,0,1,38,3,152,76,21,231,199,15,-1,211,185,187,211,1,5648
69.267827987,3,14,-6,1,4,1,-2,-1,1,20,191,112,72,39,214,199,15,-1,194,204,205,191,1,5649
69.276904106,4,14,-6,10,13,-1,0,-2,1,26,81,52,79,41,238,199,15,-1,184,211,216,182,1,5650
69.287009,4,15,-6,-6,-6,-7,1,-1,1,-102,38,151,55,61,227,199,15,-1,214,177,181,220,1,5651
69.314786911,5,15,-6,0,3,3,2,0,1,-191,219,87,49,71,230,199,15,-1,193,207,207,187,1,5652
69.324952125,6,14,-6,-5,-11,-3,3,3,1,-84,39,234,31,84,238,199,15,-1,206,188,181,219,1,5653
69.333899021,7,14,-6,-1,4,8,3,4,0,28,14,178,33,90,235,199,15,-1,199,205,211,179,1,5654
69.343019962,8,13,-6,-5,-11,6,2,4,-1,41,-116,218,39,84,247,199,15,-1,209,194,176,216,1,5655
69.371038913,8,13,-6,8,7,-4,0,2,-1,-233,86,-62,23,109,233,199,15,-1,179,215,220,180,1,5656
69.379935026,9,12,-6,0,6,3,-1,0,0,36,-17,221,34,114,227,199,15,-1,206,194,200,194,1,5657
69.389137029,11,12,-6,17,9,-6,-2,-2,0,-7,203,-25,43,126,225,199,15,-1,171,220,210,192,1,5658
69.399089098,12,12,-6,-4,7,-7,-2,-3,2,185,-124,235,58,100,229,199,15,-1,216,175,205,198,1,5659
69.426887035,13,12,-6,8,3,-2,0,-1,2,-42,-10,-40,44,99,206,199,15,-1,181,214,199,200,1,5660
69.435822963,13,12,-6,-2,2,3,2,0,1,-215,-55,174,31,77,202,199,15,-1,211,189,198,196,1,5661
69.449492931,14,12,-6,2,-4,-4,4,4,0,40,217,43,25,97,199,199,15,-1,191,202,192,209,1,5662
69.45759201,15,11,-6,-5,4,5,6,7,-2,74,-13,43,37,66,195,199,15,-1,210,191,206,186,1,5663
69.482846975,15,11,-6,6,-10,-6,6,7,-3,-12,109,43,26,84,185,199,15,-1,183,209,182,220,1,5664
69.492355108,16,11,-5,6,2,11,4,6,-3,-113,117,32,9,68,183,199,15,-1,199,207,207,182,1,5665
69.502038002,16,10,-5,0,-17,1,2,3,-2,-164,218,106,-7,91,191,199,15,-1,204,194,170,220,1,5666
69.511061906,17,9,-5,-7,5,8,0,0,-1,167,139,176,-12,92,196,199,15,-1,214,190,218,172,1,5667
69.538882017,17,8,-5,-5,-8,3,0,-3,0,135,84,132,-7,96,208,199,15,-1,201,199,179,215,1,5668
69.54856491,18,8,-5,0,15,1,0,-5,2,233,8,190,3,100,212,199,15,-1,195,203,220,168,1,5669
69.55796194,18,7,-5,-8,7,6,0,-6,4,85,-185,11,5,87,197,199,15,-1,214,188,195,197,1,5670
69.566869974,19,7,-5,5,2,-8,0,-5,5,155,46,92,18,87,194,199,15,-1,180,211,199,204,1,5671
69.595073938,19,7,-5,-4,-2,-4,-1,-2,5,-114,-125,5,22,70,190,199,15,-1,207,186,195,206,1,5672
69.605417013,19,7,-6,7,-2,-6,-2,1,4,252,168,220,39,76,189,199,15,-1,182,210,200,202,1,5673
69.613846063,19,7,-6,-3,3,5,-3,4,2,-43,-12,-82,35,49,176,199,15,-1,212,190,203,190,1,5674
69.622910976,19,7,-6,8,-4,-1,-2,5,0,157,-78,70,28,51,156,199,15,-1,183,213,189,208,1,5675
69.650913,19,7,-6,-16,12,4,-1,5,-2,48,-93,1,43,29,172,199,15,-1,220,169,220,174,1,5676
69.660036087,18,8,-5,-2,-11,6,0,3,-3,-82,-188,199,37,21,183,199,15,-1,192,210,168,220,1,5677
69.670102119,17,8,-5,-3,7,3,0,1,-3,150,76,25,44,27,199,199,15,-1,203,197,218,176,1,5678
69.678972005,16,8,-5,-1,0,4,0,0,-1,125,139,66,41,53,203,199,15,-1,200,200,191,203,1,5679
69.70698595,16,8,-5,4,1,-3,0,-1,0,2,213,173,44,65,227,199,15,-1,188,206,201,198,1,5680
69.715995073,16,8,-5,0,-4,0,-2,0,3,-34,-16,145,53,54,238,199,15,-1,204,193,191,206,1,5681
69.728145122,16,9,-5,7,4,0,-3,0,4,-121,74,159,45,59,231,199,15,-1,186,211,209,189,1,5682
69.735179901,16,9,-5,-4,-4,5,-3,0,4,148,48,19,48,75,243,199,15,-1,214,187,185,207,1,5683
69.762923002,16,9,-5,4,15,5,-2,1,3,85,115,28,53,75,229,199,15,-1,191,211,220,169,1,5684
69.772251129,16,9,-5,0,-5,0,0,1,1,-10,-231,173,58,58,223,199,15,-1,201,196,178,219,1,5685
69.78183794,16,9,-5,3,2,6,1,1,0,187,51,123,76,62,211,199,15,-1,195,206,205,187,1,5686
69.796546936,16,10,-5,-4,2,5,2,1,0,152,-44,206,75,41,226,199,15,-1,211,190,197,196,1,5687
69.827232122,15,11,-5,4,-1,-3,3,1,1,218,-35,194,79,34,216,199,15,-1,186,208,195,204,1,5688
69.830440044,15,11,-5,-3,5,3,2,2,2,-191,-13,88,58,21,224,199,15,-1,208,191,208,187,1,5689
69.837852001,14,11,-5,13,-4,-5,1,2,3,-26,3,148,52,30,230,199,15,-1,174,219,189,213,1,5690
69.848066091,14,11,-5,8,-5,-4,0,2,3,70,-15,90,48,14,230,199,15,-1,196,198,195,205,1,5691
69.874871015,13,11,-5,0,-6,1,0,1,3,-119,-167,253,48,12,230,199,15,-1,204,194,193,204,1,5692
69.883985042,12,12,-5,7,8,8,1,0,1,-156,3,10,28,4,232,199,15,-1,191,212,214,177,1,5693
69.893882989,11,11,-5,-9,-8,-1,3,0,0,11,159,210,30,38,247,199,15,-1,219,177,179,220,1,5694
69.903165102,11,11,-5,0,10,0,4,-2,-1,-102,127,183,17,48,253,199,15,-1,190,207,220,175,1,5695
69.931124925,11,10,-5,-8,-3,-2,5,-2,-1,254,-137,49,28,46,255,199,15,-1,211,184,185,214,1,5696
69.940931081,11,10,-5,5,5,4,4,-2,-1,-73,-167,146,28,47,240,199,15,-1,184,216,209,185,1,5697
69.950042963,11,10,-5,-13,0,6,2,-1,0,162,133,35,29,37,227,199,15,-1,220,176,192,200,1,5698
69.959902048,11,10,-5,2,2,5,0,0,1,-78,158,87,18,51,228,199,15,-1,185,216,200,192,1,5699
69.987046003,11,9,-5,-1,-9,3,-3,1,1,45,-73,72,20,37,210,199,15,-1,205,195,181,213,1,5700
69.996951103,11,9,-5,10,0,0,-4,2,2,46,191,87,25,60,208,199,15,-1,181,216,206,191,1,5701
70.009912014,11,9,-5,-3,-2,-1,-4,2,3,-5,-247,-53,30,31,197,199,15,-1,212,184,196,202,1,5702
70.01616311,11,9,-5,8,-7,0,-3,1,3,-71,90,195,19,46,206,199,15,-1,182,214,189,208,1,5703
70.043093919,11,8,-5,-8,4,-1,-1,0,3,231,-194,39,27,30,206,199,15,-1,218,178,212,186,1,5704
70.056154012,11,8,-5,-5,-2,-10,1,-2,2,72,-72,72,31,38,214,199,15,-1,196,193,195,211,1,5705
70.062020063,11,8,-5,-11,12,5,2,-3,1,249,-157,215,34,15,219,199,15,-1,213,188,217,176,1,5706
70.072077989,10,8,-5,3,3,-2,2,-3,0,21,-42,-95,27,15,191,199,15,-1,183,212,194,205,1,5707
70.099086999,10,8,-5,-5,8,2,1,-2,-1,41,-77,63,19,13,197,199,15,-1,211,188,207,188,1,5708
70.109050989,9,8,-5,-3,-2,2,-1,0,-3,-30,180,186,27,23,202,199,15,-1,199,200,187,208,1,5709
70.117967128,9,8,-5,1,-1,5,-4,2,-3,33,213,150,30,33,215,199,15,-1,195,206,197,196,1,5710
70.1293509,9,8,-5,0,-10,0,-5,4,-2,-65,-121,23,10,28,224,199,15,-1,200,198,185,212,1,5711
70.155872106,9,7,-5,1,8,0,-5,5,0,45,26,42,18,38,214,199,15,-1,196,201,219,178,1,5712
70.165451049,9,7,-5,-5,-2,6,-4,4,1,120,-153,183,32,30,222,199,15,-1,211,191,185,207,1,5713
70.175246,9,7,-5,-11,0,6,-2,2,2,68,9,-23,35,9,211,199,15,-1,214,188,197,195,1,5714
70.183959007,8,7,-5,-1,3,-2,0,0,3,-11,39,72,39,18,218,199,15,-1,190,205,206,193,1,5715
70.212662935,8,8,-5,8,5,1,0,-2,3,156,179,88,35,34,207,199,15,-1,185,213,202,193,1,5716
70.220925092,8,8,-5,-9,2,-3,0,-2,3,177,49,172,47,57,221,199,15,-1,218,176,200,200,1,5717
70.231067895,8,8,-5,10,2,-2,-1,-1,2,-170,-110,129,30,45,226,199,15,-1,174,220,201,198,1,5718
70.240145921,8,8,-5,-12,-1,7,-2,0,1,95,34,220,39,39,220,199,15,-1,220,174,192,199,1,5719
70.267863035,8,8,-5,-1,-9,3,-3,2,0,0,42,39,37,45,231,199,15,-1,192,208,184,211,1,5720
70.277133941,8,8,-5,-5,-4,1,-2,3,0,-205,-121,14,24,29,227,199,15,-1,206,192,198,197,1,5721
70.286880016,8,8,-5,9,-11,-9,-1,3,0,-84,-55,193,20,39,240,199,15,-1,176,213,189,215,1,5722
70.29621005,8,8,-5,-1,10,-1,-1,1,0,147,-28,29,31,7,218,199,15,-1,208,187,220,174,1,5723
70.323995113,8,8,-5,11,5,0,-1,-1,0,-74,226,98,16,28,234,199,15,-1,180,216,199,199,1,5724
70.33308196,8,7,-5,-9,8,0,0,-4,0,27,-210,226,14,21,229,199,15,-1,220,174,206,191,1,5725
70.342826128,7,7,-5,3,11,-8,0,-4,0,-92,-19,164,-2,15,239,199,15,-1,182,208,213,191,1,5726
70.351954937,7,7,-5,-2,6,13,0,-3,-1,-101,-38,236,-9,16,0,199,15,-1,210,198,192,194,1,5727
70.379954099,7,6,-5,-3,-4,2,1,0,-2,-106,49,181,-16,35,249,199,15,-1,203,196,186,209,1,5728
70.389061927,7,5,-5,2,1,2,1,4,-2,48,22,151,-12,27,247,199,15,-1,193,206,203,192,1,5729
70.398838996,7,5,-5,-5,-13,2,1,7,-1,22,83,36,-13,20,242,199,15,-1,210,189,176,219,1,5730
70.407921075,7,4,-5,-3,-8,0,0,8,0,113,-26,204,8,25,251,199,15,-1,199,197,198,200,1,5731
70.43615508,7,4,-5,6,3,0,-1,6,2,47,-221,-19,8,13,248,199,15,-1,186,211,211,186,1,5732
70.445874929,7,4,-5,10,0,-7,-2,1,3,74,70,124,6,24,232,199,15,-1,185,206,199,204,1,5733
70.455109119,6,4,-5,-1,6,3,-2,-2,3,-203,-63,119,-7,7,239,199,15,-1,212,188,206,188,1,5734
70.464284896,6,3,-5,13,1,0,-1,-5,2,-33,-88,35,-8,-11,224,199,15,-1,178,220,196,201,1,5735
70.49251604,5,3,-5,-2,-4,2,0,-6,1,146,-215,125,-8,-30,239,199,15,-1,214,185,189,206,1,5736
70.501982927,5,2,-5,13,0,-2,2,-4,0,181,44,-20,-8,-44,216,199,15,-1,176,219,202,197,1,5737
70.511162042,4,2,-5,-3,-5,0,4,-1,-1,76,36,182,3,-36,232,199,15,-1,216,182,191,206,1,5738
70.523780107,3,2,-5,2,0,0,6,1,-1,65,135,197,2,-44,231,199,15,-1,192,204,204,194,1,5739
70.547881126,2,2,-5,-18,-5,1,6,2,-1,27,-132,221,3,-53,240,199,15,-1,220,170,190,206,1,5740
70.55795598,1,2,-5,-2,-2,0,5,1,0,56,87,43,17,-42,241,199,15,-1,187,210,199,198,1,5741
70.566996097,0,2,-5,-4,-3,-3,3,0,0,81,-73,152,25,-43,239,199,15,-1,202,193,197,203,1,5742
70.57685709,0,2,-5,1,3,1,0,-2,0,221,21,56,29,-15,241,199,15,-1,194,204,206,190,1,5743
70.603917121,0,2,-5,6,1,5,-3,-4,0,-13,68,192,32,-23,233,199,15,-1,193,209,195,197,1,5744
70.614881992,0,2,-5,0,-8,1,-6,-4,0,120,18,146,36,-11,229,199,15,-1,205,194,184,211,1,5745
70.623097896,-1,3,-5,3,3,10,-6,-3,0,60,81,204,44,5,218,199,15,-1,197,208,206,182,1,5746
70.632879018,0,3,-5,4,0,1,-4,-2,0,67,24,130,52,21,225,199,15,-1,196,202,195,201,1,5747
70.66092205,0,4,-5,3,10,-1,-1,0,1,-73,-32,182,54,4,238,199,15,-1,197,199,215,184,1,5748
70.670078992,0,5,-5,1,-5,0,1,0,2,43,-71,13,54,0,231,199,15,-1,199,199,182,215,1,5749
70.67982912,0,5,-5,0,11,0,4,0,3,49,61,233,55,0,228,199,15,-1,200,196,220,177,1,5750
70.688980102,0,6,-5,-9,-13,-6,5,1,4,178,94,180,58,5,227,199,15,-1,210,182,172,220,1,5751
70.716907978,0,6,-5,8,16,-5,4,1,3,53,221,-140,59,27,221,199,15,-1,175,217,220,164,1,5752
70.725935936,0,7,-5,-9,-8,-6,3,2,1,195,-31,162,65,22,223,199,15,-1,218,174,174,220,1,5753
70.739901065,0,7,-5,11,11,-3,0,2,0,244,109,116,87,43,223,199,15,-1,171,220,220,175,1,5754
70.747198104,1,8,-5,2,6,2,-1,2,-3,180,55,160,98,50,229,199,15,-1,206,193,197,198,1,5755
70.772892952,1,9,-5,3,5,3,-1,2,-4,157,31,15,98,75,224,199,15,-1,196,204,200,194,1,5756
70.782416105,3,10,-5,2,8,4,-1,2,-5,29,64,89,91,76,242,199,15,-1,199,202,204,189,1,5757
70.792334079,4,11,-5,9,-10,7,0,3,-4,180,93,76,96,79,224,199,15,-1,189,214,173,218,1,5758
70.800920009,5,12,-5,-2,-9,0,2,4,-2,-8,-10,38,92,72,229,199,15,-1,210,186,194,204,1,5759
70.828916072,5,12,-5,-2,-14,-2,4,5,0,51,-42,123,93,76,211,199,15,-1,198,196,185,215,1,5760
70.837927103,6,13,-5,0,-8,3,5,3,3,-189,157,40,81,80,211,199,15,-1,199,201,196,198,1,5761
70.848401069,7,13,-5,-6,-9,-7,5,0,4,126,-4,86,83,83,220,199,15,-1,205,186,194,209,1,5762
70.863989114,8,14,-5,5,13,-2,3,-3,4,-210,59,87,62,85,235,199,15,-1,183,212,220,171,1,5763
70.884829044,9,14,-5,4,-3,-3,1,-7,3,184,25,-4,72,96,225,199,15,-1,194,200,184,216,1,5764
70.894097089,10,14,-5,14,16,-4,0,-10,0,-147,-61,82,58,79,222,199,15,-1,180,214,220,172,1,5765
70.904011964,11,14,-5,4,0,-2,-1,-9,-1,101,-74,16,60,59,212,199,15,-1,202,193,185,215,1,5766
70.913002014,11,14,-5,-1,3,-6,0,-5,-3,-149,143,69,49,52,196,199,15,-1,202,190,206,196,1,5767
70.940872907,11,14,-5,-11,-8,-5,1,0,-4,89,119,181,57,59,183,199,15,-1,212,181,185,216,1,5768
70.9529531,11,14,-5,0,-7,0,4,4,-5,-195,39,56,45,78,186,199,15,-1,190,207,194,203,1,5769
70.960108041,12,14,-5,-9,-3,5,5,6,-4,151,-67,96,51,71,179,199,15,-1,214,187,197,195,1,5770
70.96895194,13,14,-5,-2,-4,-8,4,5,-4,-93,-141,179,37,60,166,199,15,-1,190,200,199,205,1,5771
70.996975898,13,14,-5,2,-3,3,1,2,-3,-77,92,123,30,53,192,199,15,-1,195,205,196,198,1,5772
71.00684309,13,13,-5,-6,0,-5,-2,-1,-2,-209,41,87,10,57,188,199,15,-1,207,185,202,199,1,5773
71.015821933,13,13,-5,18,5,0,-5,-5,-1,121,-52,79,4,49,199,199,15,-1,166,220,207,191,1,5774
71.025847911,13,12,-5,6,5,-6,-6,-7,0,6,0,54,-4,46,194,199,15,-1,201,191,205,198,1,5775
71.052915096,13,11,-5,2,4,-4,-4,-6,0,-103,232,77,-30,43,184,199,15,-1,198,195,203,198,1,5776
71.062943935,13,10,-5,-3,3,4,-1,-3,-1,166,86,90,-23,44,184,199,15,-1,208,193,198,195,1,5777
71.072036981,13,8,-5,0,-2,-2,2,0,-2,15,-125,-208,-31,33,170,199,15,-1,195,200,192,207,1,5778
71.082376003,13,7,-5,-9,-10,0,5,3,-2,156,159,186,-23,42,177,199,15,-1,212,185,186,212,1,5779
71.108945131,13,6,-5,9,-4,-3,6,5,-3,-50,-120,53,-28,38,174,199,15,-1,175,219,201,199,1,5780
71.11905694,13,5,-5,-17,-7,-3,5,4,-2,0,34,233,-18,32,171,199,15,-1,220,164,192,207,1,5781
71.128618001,12,4,-5,-7,4,-1,2,2,-1,57,-35,116,-22,30,159,199,15,-1,194,202,213,185,1,5782
71.141755104,12,3,-5,1,1,4,-1,-1,-1,144,-42,168,-4,12,151,199,15,-1,193,208,195,198,1,5783
71.16820693,12,3,-5,7,3,-2,-4,-4,-1,-125,172,170,-20,20,172,199,15,-1,188,207,203,196,1,5784
71.175081014,11,2,-5,7,6,2,-6,-5,-1,-132,32,211,-19,37,179,199,15,-1,195,204,205,191,1,5785
71.184977054,11,2,-5,7,6,-8,-6,-4,-1,32,241,40,-22,66,193,199,15,-1,190,200,207,197,1,5786
71.200052022,12,1,-5,-7,-2,3,-4,-2,0,53,-51,-41,-12,43,187,199,15,-1,218,182,188,206,1,5787
71.221887111,12,1,-5,5,-6,-6,0,1,0,193,221,202,-7,48,188,199,15,-1,182,210,193,209,1,5788
71.230967998,12,0,-5,2,-4,1,2,4,0,20,15,247,3,34,185,199,15,-1,199,199,197,199,1,5789
71.24083805,12,0,-5,-14,-8,-2,4,5,0,-27,-64,86,-5,34,197,199,15,-1,220,173,190,209,1,5790
71.249921083,12,0,-5,6,6,0,5,4,-1,-52,-94,196,-3,37,198,199,15,-1,176,220,215,182,1,5791
71.277868986,12,0,-5,-3,0,0,3,1,-1,-138,-56,101,-6,29,184,199,15,-1,210,188,193,204,1,5792
71.287311077,12,0,-5,10,15,-1,0,-2,-1,-156,-9,237,-3,27,191,199,15,-1,179,217,220,176,1,5793
71.296931028,11,0,-5,2,4,-5,-1,-3,-1,-98,-26,19,-14,15,189,199,15,-1,202,190,194,207,1,5794
71.306055069,11,0,-5,7,3,7,-2,-3,-1,-139,248,198,-22,28,196,199,15,-1,192,211,197,194,1,5795
71.333945035,11,0,-5,-13,-10,1,-1,-1,0,-41,-172,230,-6,7,203,199,15,-1,220,172,180,216,1,5796
71.342942953,10,0,-5,3,0,4,0,2,0,37,111,215,-12,21,197,199,15,-1,184,217,204,189,1,5797
71.356355905,10,0,-5,-18,-3,0,1,5,0,57,-173,234,-10,19,219,199,15,-1,220,167,194,203,1,5798
71.362571954,9,0,-5,2,-5,2,2,5,0,103,93,191,-13,29,206,199,15,-1,180,218,192,203,1,5799
71.389986991,9,0,-5,-9,7,8,1,3,1,-14,-54,128,-11,32,223,199,15,-1,217,187,211,179,1,5800
71.399840116,9,-1,-5,2,-4,-2,-1,0,2,17,33,54,-10,32,227,199,15,-1,187,208,186,212,1,5801
71.411648988,9,-1,-5,4,6,-1,-4,-2,2,69,100,170,-9,39,230,199,15,-1,194,202,212,185,1,5802
71.419126987,9,-1,-5,9,3,-6,-6,-3,3,150,-68,77,-9,24,225,199,15,-1,185,207,200,202,1,5803
71.446116924,9,-1,-5,0,0,9,-6,-3,2,95,51,208,1,6,214,199,15,-1,210,195,193,196,1,5804
71.456286907,8,-1,-5,-1,-3,6,-4,-1,2,69,-81,28,11,0,218,199,15,-1,203,199,190,202,1,5805
71.464956045,8,-1,-5,4,1,0,-1,0,1,-45,204,166,7,-1,211,199,15,-1,191,205,204,193,1,5806
71.474970102,7,0,-5,-14,-3,-4,2,2,0,135,71,97,11,17,218,199,15,-1,220,172,193,207,1,5807
71.50207901,7,0,-5,4,2,0,4,3,0,-181,-78,-4,-6,-10,208,199,15,-1,180,218,205,191,1,5808
71.512279987,6,0,-5,-12,-3,2,4,2,1,154,117,169,0,-5,204,199,15,-1,220,176,191,205,1,5809
71.520942926,5,0,-5,0,0,3,2,1,1,-20,93,156,-12,2,195,199,15,-1,189,211,200,194,1,5810
71.530870914,5,0,-5,7,-7,-4,0,0,1,153,-144,167,-2,0,206,199,15,-1,186,208,188,212,1,5811
71.558825016,5,0,-5,10,8,-5,-3,-1,1,-141,-75,-179,-2,0,192,199,15,-1,188,205,220,181,1,5812
71.569597959,4,0,-5,-4,0,2,-4,-2,0,-26,-59,75,4,-16,184,199,15,-1,214,185,190,205,1,5813
71.577909946,4,0,-5,12,7,-9,-4,-1,0,-79,159,223,5,5,181,199,15,-1,173,216,214,190,1,5814
71.586966037,3,0,-5,-11,-4,-1,-1,-1,0,-76,-255,135,8,-19,178,199,15,-1,220,170,185,213,1,5815
71.614876031,3,0,-5,2,0,-2,1,0,-1,-24,154,204,9,-2,190,199,15,-1,184,211,203,196,1,5816
71.624854087,2,0,-5,-14,-4,-3,4,1,-2,-100,-235,137,2,-33,186,199,15,-1,220,174,193,206,1,5817
71.634284973,1,0,-5,-10,0,1,4,2,-3,133,71,223,5,-7,185,199,15,-1,203,196,201,195,1,5818
71.643816947,1,0,-5,-1,-4,-1,2,1,-3,-115,-130,60,-5,-44,179,199,15,-1,191,204,193,205,1,5819
71.671061039,0,0,-5,5,2,-2,0,0,-3,-36,127,190,-6,-35,169,199,15,-1,188,207,208,192,1,5820
71.680865049,0,0,-5,0,-1,3,-4,0,-2,-65,-186,45,-10,-46,169,199,15,-1,204,196,192,202,1,5821
71.689907074,-1,0,-5,6,3,10,-7,-1,-1,79,123,13,-9,-32,173,199,15,-1,194,211,201,188,1,5822
71.700313091,-2,0,-5,-9,0,9,-7,-2,0,22,-28,186,-16,-17,192,199,15,-1,220,183,192,198,1,5823
71.727087974,-2,0,-5,3,-5,-1,-5,-2,0,242,23,243,-8,-6,193,199,15,-1,185,211,190,208,1,5824
71.7369349,-2,-1,-5,4,3,-2,-1,-1,2,-80,142,84,-16,4,196,199,15,-1,194,201,210,189,1,5825
71.751389026,-2,-1,-5,3,-7,-4,1,0,3,-175,-165,112,-22,-13,193,199,15,-1,196,198,185,215,1,5826
71.756104946,-2,-1,-5,6,6,-1,2,0,4,-192,-190,40,-39,-26,191,199,15,-1,192,204,214,184,1,5827
71.784051895,-2,-2,-5,0,2,-1,3,0,4,33,95,122,-28,-5,197,199,15,-1,204,192,198,200,1,5828
71.79291892,-2,-2,-5,14,3,-4,3,0,2,156,-75,166,-28,-15,197,199,15,-1,175,218,204,197,1,5829
71.802830934,-2,-3,-5,-2,0,4,3,0,0,-119,-45,20,-20,-21,190,199,15,-1,216,185,194,200,1,5830
71.813036918,-2,-3,-5,-7,2,2,3,0,-1,131,-29,-32,-21,-28,167,199,15,-1,208,190,201,194,1,5831
71.84040308,-3,-3,-5,-11,-12,3,3,0,-3,-43,-39,189,-16,-27,186,199,15,-1,211,188,176,219,1,5832
71.84901309,-3,-3,-5,-5,-2,10,3,1,-2,162,-62,37,-7,-14,197,199,15,-1,201,204,201,187,1,5833
71.858870029,-3,-3,-5,-1,-11,1,2,1,-1,23,127,35,-2,-16,200,199,15,-1,196,202,183,213,1,5834
71.868071079,-3,-3,-5,0,-6,-1,0,0,0,83,82,35,5,0,208,199,15,-1,196,200,199,200,1,5835
71.895844936,-3,-3,-5,3,4,-1,-3,-1,3,20,-56,159,7,-22,193,199,15,-1,193,203,212,186,1,5836
71.904936075,-3,-2,-5,-4,-2,-3,-5,-4,4,215,127,194,23,-4,196,199,15,-1,207,187,192,207,1,5837
71.915116071,-3,-2,-5,1,7,4,-6,-6,5,-14,152,19,3,-13,198,199,15,-1,194,206,210,184,1,5838
71.923947095,-3,-1,-5,-9,-2,15,-4,-6,3,217,123,146,20,12,202,199,15,-1,220,190,182,202,1,5839
71.951838016,-3,-1,-5,8,9,-4,-2,-5,2,-177,36,139,13,7,200,199,15,-1,177,217,216,185,1,5840
71.962023973,-2,0,-5,-2,-1,6,0,-2,0,215,109,-87,27,22,181,199,15,-1,212,190,186,206,1,5841
71.972357988,-2,0,-5,7,3,-5,0,0,0,-229,-51,101,11,1,172,199,15,-1,184,209,207,194,1,5842
71.980865955,-1,0,-5,-9,-10,-2,0,3,1,239,102,240,22,7,162,199,15,-1,217,178,182,217,1,5843
72.008040905,-1,0,-5,5,0,-2,0,4,2,-222,-97,97,0,-11,155,199,15,-1,181,214,208,191,1,5844
72.017801046,-1,0,-5,-5,-3,-2,0,3,3,-23,-27,-35,2,-19,136,199,15,-1,211,185,193,205,1,5845
72.02698493,-2,0,-5,7,-6,-4,0,2,2,-50,75,91,8,-7,148,199,15,-1,181,213,194,206,1,5846
72.036958932,-2,0,-5,3,0,2,0,0,0,37,-135,138,19,-17,153,199,15,-1,200,198,202,193,1,5847
72.064019918,-2,1,-5,15,1,-5,0,-2,-1,-13,133,50,17,-15,162,199,15,-1,177,216,203,198,1,5848
72.074018001,-2,1,-5,2,-2,3,0,-4,-3,-114,-185,166,-8,-34,162,199,15,-1,209,191,192,202,1,5849
72.088679075,-3,1,-5,4,-2,-6,1,-4,-3,102,168,99,2,-10,179,199,15,-1,192,200,200,202,1,5850
72.093626022,-3,1,-5,9,-4,7,3,-4,-3,-29,-204,206,-5,-6,191,199,15,-1,191,212,191,200,1,5851
72.119918108,-3,0,-5,-17,1,-4,5,-2,-2,72,125,72,12,1,197,199,15,-1,220,163,206,195,1,5852
72.129988908,-3,1,-5,-1,0,0,6,-1,-1,96,-86,205,9,0,193,199,15,-1,186,211,198,199,1,5853
72.138824939,-2,1,-5,-19,0,-3,6,0,0,184,-232,217,17,-17,189,199,15,-1,220,169,200,200,1,5854
72.149517059,-3,1,-5,4,0,5,3,0,0,-75,-188,154,9,-31,195,199,15,-1,177,220,196,197,1,5855
72.178287982,-3,1,-5,-6,6,1,0,0,0,3,-188,-101,8,-24,182,199,15,-1,213,185,209,188,1,5856
72.184869051,-3,1,-5,0,-5,1,-4,0,0,42,-76,177,0,-35,194,199,15,-1,195,204,184,211,1,5857
72.19535613,-4,1,-5,10,8,-5,-7,0,0,-80,-8,-86,9,-43,176,199,15,-1,180,213,218,184,1,5858
72.204159021,-4,1,-5,10,4,0,-8,0,0,-16,-127,207,-1,-68,179,199,15,-1,191,206,198,199,1,5859
72.232448101,-5,1,-5,-1,-5,-2,-7,1,0,140,-69,-4,14,-73,172,199,15,-1,208,186,187,212,1,5860
72.240981102,-7,1,-5,7,5,7,-3,1,0,-31,-75,9,1,-83,190,199,15,-1,189,214,209,183,1,5861
72.251187086,-8,1,-5,-8,-11,0,1,2,0,-1,57,-45,13,-77,182,199,15,-1,217,180,177,220,1,5862
72.26031208,-9,1,-5,-11,0,1,5,2,0,42,-93,139,3,-87,190,199,15,-1,209,189,208,188,1,5863
72.288015127,-10,1,-5,7,-11,-5,6,1,0,-85,-55,142,10,-98,192,199,15,-1,176,217,183,219,1,5864
72.296982049,-11,1,-5,-14,3,-5,5,0,0,157,153,180,19,-89,216,199,15,-1,220,168,216,186,1,5865
72.306946039,-12,1,-5,14,-8,-5,2,-1,0,-111,-158,47,3,-100,214,199,15,-1,163,220,184,217,1,5866
72.319876909,-13,1,-5,0,7,-2,-1,-3,0,160,43,150,9,-66,227,199,15,-1,210,185,218,181,1,5867
72.343903064,-13,1,-5,-4,1,9,-4,-5,0,-124,-207,64,3,-83,228,199,15,-1,209,196,191,198,1,5868
72.353919982,-14,2,-5,0,10,-4,-4,-5,-2,103,10,96,27,-60,224,199,15,-1,194,199,215,186,1,5869
72.362885952,-14,2,-5,6,0,3,-3,-3,-3,67,-103,87,25,-99,211,199,15,-1,189,211,188,206,1,5870
72.372929096,-14,2,-5,-9,-4,-3,-1,-1,-3,211,42,154,37,-74,208,199,15,-1,218,177,193,207,1,5871
72.400119066,-15,3,-5,6,-5,5,0,1,-2,78,-10,164,25,-94,213,199,15,-1,182,219,192,201,1,5872
72.410043954,-15,3,-5,-8,-10,-3,1,3,0,143,196,213,27,-80,213,199,15,-1,215,179,189,210,1,5873
72.418857097,-16,3,-5,7,0,-3,1,3,0,-232,-103,40,6,-86,217,199,15,-1,179,215,208,193,1,5874
72.429080963,-16,3,-5,-8,1,2,0,2,1,188,-184,24,20,-86,198,199,15,-1,218,180,200,195,1,5875
72.456073999,-17,3,-5,6,7,2,0,0,1,-125,-101,216,13,-81,227,199,15,-1,183,216,208,188,1,5876
72.465845108,-17,3,-5,6,1,-11,-1,-3,0,126,-98,169,17,-83,226,199,15,-1,189,199,199,208,1,5877
72.476028919,-17,3,-5,0,11,-7,-1,-4,0,-160,72,11,13,-78,244,199,15,-1,202,189,218,185,1,5878
72.485137939,-17,3,-5,1,4,-1,0,-3,-1,90,-74,-51,19,-63,231,199,15,-1,196,200,196,202,1,5879
72.513286113,-17,3,-5,-1,3,-10,0,0,-2,253,229,143,24,-48,238,199,15,-1,197,191,203,202,1,5880
72.52237606,-16,3,-5,7,-4,-6,1,2,-3,170,-189,-35,34,-54,223,199,15,-1,183,209,192,210,1,5881
72.531165123,-16,4,-5,-11,-4,-6,2,5,-5,235,-118,24,46,-63,240,199,15,-1,219,173,198,204,1,5882
72.540842056,-16,4,-5,14,-6,2,2,6,-6,-164,-201,7,36,-68,220,199,15,-1,169,220,192,203,1,5883
72.567939043,-16,4,-5,-10,1,6,2,5,-6,70,15,161,56,-52,221,199,15,-1,220,173,203,189,1,5884
72.580192089,-15,5,-5,7,0,-1,1,3,-6,-37,122,145,47,-53,207,199,15,-1,177,218,198,200,1,5885
72.586981058,-15,5,-5,3,2,0,0,0,-5,173,-219,9,74,-56,205,199,15,-1,199,198,203,194,1,5886
72.598248004,-15,6,-5,5,0,-2,0,-3,-3,-50,74,240,63,-68,209,199,15,-1,193,202,198,201,1,5887
72.624285936,-15,7,-6,-6,4,-18,0,-4,0,-141,-154,48,62,-65,196,199,15,-1,206,176,212,199,1,5888
72.633861064,-16,8,-5,0,6,2,1,-3,0,47,115,177,60,-47,200,199,15,-1,195,204,203,191,1,5889
72.643034935,-15,8,-6,-2,2,-8,1,-1,0,-94,-36,42,51,-31,197,199,15,-1,199,192,201,203,1,5890
72.652883052,-15,9,-5,-10,5,7,2,1,0,-35,10,93,39,-32,194,199,15,-1,214,189,202,189,1,5891
72.680325985,-14,9,-5,-3,-12,5,1,3,-3,-214,82,137,24,-15,193,199,15,-1,198,203,173,220,1,5892
72.689958095,-14,9,-5,-5,-4,0,0,5,-4,138,93,91,24,-20,187,199,15,-1,203,194,202,196,1,5893
72.698890924,-13,8,-5,10,-13,-5,-2,4,-4,-105,137,123,30,4,191,199,15,-1,176,217,184,217,1,5894
72.70907402,-12,9,-5,2,5,-3,-4,2,-3,175,-74,141,30,9,197,199,15,-1,202,192,220,180,1,5895
72.736972093,-11,8,-6,9,-3,-7,-5,0,0,-45,7,102,21,15,178,199,15,-1,183,208,192,211,1,5896
72.745939016,-10,9,-6,0,8,-1,-4,-3,0,108,-6,234,20,19,169,199,15,-1,207,190,215,183,1,5897
72.755990028,-9,8,-6,12,2,-4,-1,-6,0,85,104,243,33,21,181,199,15,-1,178,215,197,204,1,5898
72.764982938,-8,8,-6,-4,7,0,1,-6,0,-16,131,230,27,31,195,199,15,-1,215,182,207,190,1,5899
72.792906999,-6,8,-6,0,-8,1,5,-3,-2,-33,166,152,13,28,208,199,15,-1,196,203,179,216,1,5900
72.801883935,-5,8,-5,6,9,4,6,0,-4,51,63,-80,7,41,206,199,15,-1,190,210,217,176,1,5901
72.81195712,-4,8,-5,-12,-3,3,6,2,-4,70,172,97,0,55,196,199,15,-1,220,176,184,210,1,5902
72.820847988,-3,7,-5,8,-5,1,5,4,-3,99,120,80,12,71,213,199,15,-1,176,220,193,203,1,5903
72.84880805,-1,7,-5,-7,8,9,2,4,-1,-35,64,57,-5,74,220,199,15,-1,220,184,211,178,1,5904
72.858304023,0,6,-6,11,-8,-8,0,3,1,-172,-197,182,-12,58,222,199,15,-1,171,219,182,220,1,5905
72.86818099,1,5,-6,-5,17,-8,-1,1,3,-39,-186,-20,-23,59,208,199,15,-1,212,178,220,169,1,5906
72.879878997,2,5,-6,6,-4,-3,-1,0,4,-156,-37,158,-28,54,204,199,15,-1,184,211,179,220,1,5907
72.904881,2,4,-6,-5,8,6,-1,0,3,238,140,49,-9,69,204,199,15,-1,215,187,213,179,1,5908
72.913947105,4,3,-6,6,-2,-4,0,0,1,37,-114,194,-9,44,218,199,15,-1,183,211,190,211,1,5909
72.923929929,4,3,-6,-7,10,6,1,1,-1,212,196,235,5,56,227,199,15,-1,217,185,214,179,1,5910
72.933056116,5,3,-6,-2,-8,4,2,2,-2,30,2,161,8,43,231,199,15,-1,198,203,176,218,1,5911
72.960870027,5,3,-6,-11,7,7,1,4,-3,69,-116,248,22,33,223,199,15,-1,217,186,213,178,1,5912
72.970870971,5,3,-5,0,-8,7,0,4,-1,-45,-174,24,13,20,233,199,15,-1,193,210,177,214,1,5913
72.980093956,5,3,-5,-7,-3,5,-1,3,0,22,34,214,20,27,225,199,15,-1,211,191,198,195,1,5914
72.988982915,5,3,-5,12,0,6,-3,2,3,53,-121,83,13,25,235,199,15,-1,176,220,200,192,1,5915
73.017424106,5,3,-5,-1,0,-10,-4,0,6,7,-51,-68,29,22,226,199,15,-1,207,181,202,204,1,5916
73.026890993,6,3,-5,6,3,1,-5,-1,7,128,-81,244,30,18,226,199,15,-1,188,210,203,194,1,5917
73.036277055,5,3,-5,-1,0,-7,-3,-2,7,167,-9,185,34,12,211,199,15,-1,203,188,198,205,1,5918
73.045921087,5,4,-5,-6,-8,1,-1,-2,5,-219,-39,135,24,4,219,199,15,-1,207,191,186,210,1,5919
73.072998046,5,4,-5,4,-3,-3,1,-1,1,242,158,86,38,3,203,199,15,-1,186,208,201,198,1,5920
73.083946943,4,4,-6,-11,0,-2,3,-1,-1,29,-22,93,37,0,224,199,15,-1,218,177,204,195,1,5921
73.094974994,4,5,-6,3,0,-4,3,0,-3,-147,201,-63,26,1,216,199,15,-1,182,211,199,202,1,5922
73.102246999,4,5,-6,-4,12,1,1,0,-4,184,-16,11,30,-5,213,199,15,-1,209,189,217,179,1,5923
73.129264116,3,5,-6,2,3,-8,0,-1,-4,-146,144,235,24,-1,209,199,15,-1,187,203,197,206,1,5924
73.139009952,3,5,-5,-2,3,7,-2,-1,-3,-108,96,-79,28,12,196,199,15,-1,208,195,198,193,1,5925
73.14806509,3,5,-5,12,-4,0,-3,0,-2,-74,57,229,26,37,221,199,15,-1,178,219,189,209,1,5926
73.158113956,3,5,-5,-8,-6,-6,-3,1,-1,-76,-19,23,30,26,214,199,15,-1,219,173,195,207,1,5927
73.184864044,4,5,-5,8,-8,-7,-2,3,0,-50,34,163,15,20,220,199,15,-1,175,215,195,209,1,5928
73.195250034,3,5,-6,-13,-5,-2,0,3,0,-120,-194,40,7,16,199,199,15,-1,220,171,199,201,1,5929
73.203962087,3,5,-6,-11,-9,-4,1,2,0,247,128,173,9,26,196,199,15,-1,202,192,191,210,1,5930
73.217957973,4,5,-6,0,-6,6,1,0,-1,52,-187,138,23,16,208,199,15,-1,191,211,194,198,1,5931
73.241158962,4,5,-5,11,1,6,0,-4,-3,-35,52,33,18,25,210,199,15,-1,185,218,203,189,1,5932
73.250970125,4,5,-6,3,11,0,-1,-7,-3,-9,128,20,20,40,210,199,15,-1,202,194,215,183,1,5933
73.259978055,4,5,-6,3,9,0,-3,-8,-3,-139,-119,115,11,19,205,199,15,-1,196,200,204,193,1,5934
73.269859075,5,5,-6,-4,7,-7,-3,-7,-1,127,-69,235,15,22,200,199,15,-1,205,186,204,199,1,5935
73.297223091,5,5,-6,-7,-2,1,-2,-3,0,-106,-239,85,9,12,220,199,15,-1,206,193,187,208,1,5936
73.306911945,5,5,-6,4,-3,-9,0,1,1,104,-255,93,8,4,225,199,15,-1,182,207,199,206,1,5937
73.316555023,4,4,-6,-10,-6,-3,1,5,1,31,117,176,14,10,238,199,15,-1,216,178,194,206,1,5938
73.326102972,4,4,-6,7,-12,-10,2,7,0,-87,-242,32,21,0,233,199,15,-1,174,214,189,217,1,5939
73.353966951,4,4,-6,-3,-1,10,1,6,-1,-115,-33,100,3,-9,246,199,15,-1,215,191,202,187,1,5940
73.363205909,3,4,-6,1,-13,0,0,2,-4,-49,-105,227,0,-13,240,199,15,-1,193,204,180,217,1,5941
73.372462034,3,3,-6,7,5,3,-1,-2,-5,-24,184,132,5,-14,7,199,15,-1,190,210,217,177,1,5942
73.382523059,2,3,-6,-6,5,-6,-2,-6,-5,-14,-81,24,-4,-17,250,199,15,-1,211,180,204,198,1,5943
73.409897089,2,3,-6,-3,11,11,-1,-9,-3,-99,126,-21,-2,-18,238,199,15,-1,202,204,207,181,1,5944
73.419030904,1,3,-6,-13,8,-2,0,-8,-1,77,148,242,7,-15,254,199,15,-1,214,181,203,196,1,5945
73.429038047,1,3,-6,-4,4,0,0,-5,1,-139,84,148,4,-27,237,199,15,-1,194,202,199,199,1,5946
73.438611984,0,3,-6,-7,-5,0,0,0,2,225,188,175,19,-3,244,199,15,-1,206,191,187,210,1,5947
73.465809106,0,3,-6,0,0,0,-1,4,2,-233,-161,53,10,-13,239,199,15,-1,193,204,204,193,1,5948
73.4751091,0,2,-6,-9,-10,8,-3,8,2,-36,190,87,14,5,241,199,15,-1,216,188,179,211,1,5949
73.484847068,0,2,-6,5,-7,0,-6,8,1,-197,20,247,-7,-12,245,199,15,-1,182,215,196,201,1,5950
73.496684074,0,2,-6,-5,-1,8,-7,5,0,40,-92,98,-21,-7,230,199,15,-1,215,189,198,192,1,5951
73.524076938,0,2,-6,13,5,-7,-7,1,0,-111,96,125,-25,-5,235,199,15,-1,171,220,211,192,1,5952
73.531243085,0,1,-5,-1,0,6,-5,-3,1,-125,-76,16,-30,-28,235,199,15,-1,214,188,190,202,1,5953
73.540923118,0,0,-5,5,14,-1,-2,-6,2,159,212,65,-15,-12,245,199,15,-1,189,207,220,176,1,5954
73.549926996,0,0,-5,3,4,3,0,-6,2,33,-192,39,-20,-18,248,199,15,-1,199,200,192,202,1,5955
73.578021049,-1,0,-5,0,3,-11,2,-3,2,-29,144,194,-16,0,253,199,15,-1,196,192,204,202,1,5956
73.588548898,0,0,-5,2,2,9,4,0,2,100,84,4,-17,17,249,199,15,-1,199,206,195,194,1,5957
73.596894025,0,0,-5,-14,-5,4,4,4,1,50,78,-8,-28,15,227,199,15,-1,220,176,187,207,1,5958
73.606837987,0,0,-5,3,-7,3,4,7,0,71,99,179,-20,45,234,199,15,-1,182,217,190,204,1,5959
73.633861064,0,-1,-5,-3,4,4,2,7,0,-94,-19,58,-19,33,219,199,15,-1,209,191,210,184,1,5960
73.643882989,1,-1,-5,4,-2,-1,0,5,0,-80,50,84,-21,41,225,199,15,-1,188,207,191,207,1,5961
73.653167009,1,-1,-5,-7,-2,9,-2,2,1,41,-201,96,-18,22,210,199,15,-1,217,187,194,196,1,5962
73.662861108,2,-1,-5,9,9,2,-3,-1,2,-224,146,38,-28,33,211,199,15,-1,179,220,214,181,1,5963
73.690202951,2,-2,-5,-12,0,-3,-3,-3,3,16,-22,57,-22,26,228,199,15,-1,220,171,193,206,1,5964
73.70008707,3,-2,-5,10,9,-7,-2,-3,4,-146,-6,66,-34,18,232,199,15,-1,169,220,215,189,1,5965
73.709136009,3,-2,-5,-8,0,3,-1,-1,4,49,-19,-211,-11,0,214,199,15,-1,220,178,189,205,1,5966
73.719264984,2,-2,-5,-5,-2,7,0,0,2,-27,246,45,-24,3,207,199,15,-1,203,200,192,199,1,5967
73.746889114,2,-3,-5,-7,-6,7,0,3,1,146,134,3,-5,18,205,199,15,-1,208,195,188,203,1,5968
73.756191968,2,-3,-5,-6,-3,-5,0,4,0,-151,129,38,-11,27,215,199,15,-1,199,193,201,201,1,5969
73.765954971,3,-3,-5,2,-5,-2,-1,4,0,84,120,154,2,32,211,199,15,-1,189,206,194,205,1,5970
73.774878025,3,-2,-5,0,11,1,-3,2,0,51,32,39,3,39,220,199,15,-1,202,196,220,176,1,5971
73.803003072,3,-2,-5,-6,-1,2,-4,0,1,-125,-17,70,2,33,205,199,15,-1,209,190,185,210,1,5972
73.81183505,4,-2,-6,-3,-5,-3,-5,-2,1,-189,-12,246,0,49,203,199,15,-1,197,197,194,206,1,5973
73.821875095,4,-2,-6,-2,1,5,-5,-3,1,29,-3,113,-6,38,193,199,15,-1,202,199,203,190,1,5974
73.833080053,5,-2,-6,-13,3,-7,-4,-3,0,144,-83,92,-1,44,196,199,15,-1,213,178,205,198,1,5975
73.8600111,5,-2,-6,2,-5,8,-3,-1,0,-210,-175,172,-10,28,182,199,15,-1,188,216,184,206,1,5976
73.869089126,5,-2,-6,-11,1,0,-2,0,0,44,-201,74,-13,13,185,199,15,-1,218,179,205,192,1,5977
73.878180027,5,-2,-5,10,-4,2,-3,0,0,-17,142,150,-29,16,193,199,15,-1,174,220,190,205,1,5978
73.886943101,5,-2,-5,-6,2,3,-4,1,0,215,215,167,-22,9,193,199,15,-1,218,181,204,190,1,5979
73.915079116,5,-2,-5,9,5,3,-4,0,0,-182,-241,208,-26,11,213,199,15,-1,181,219,203,191,1,5980
73.928199052,5,-3,-6,10,0,-7,-4,0,1,-32,-131,23,-36,2,210,199,15,-1,187,204,197,206,1,5981
73.934060096,5,-3,-6,4,0,2,-2,0,2,32,46,91,-37,14,223,199,15,-1,202,197,197,198,1,5982
73.943864107,5,-4,-6,-5,6,0,0,0,2,-18,30,80,-27,9,237,199,15,-1,211,187,208,189,1,5983
73.971051931,4,-4,-6,4,3,-5,2,0,2,76,211,239,-11,20,234,199,15,-1,186,207,201,201,1,5984
73.980896949,4,-4,-6,-3,5,-6,5,1,1,-34,94,162,-18,25,226,199,15,-1,205,187,207,195,1,5985
73.989928007,4,-4,-6,-4,-3,-8,5,2,0,162,-57,166,-25,36,245,199,15,-1,198,192,192,212,1,5986
73.99991703,5,-4,-6,0,-9,-7,4,3,-1,31,-51,153,-22,21,237,199,15,-1,192,199,190,213,1,5987
74.02699995,5,-4,-6,-5,1,0,2,3,-3,-11,65,59,-30,18,240,199,15,-1,207,190,208,188,1,5988
74.036845922,4,-4,-6,-5,-2,4,0,2,-4,191,15,125,-13,12,231,199,15,-1,204,197,192,201,1,5989
74.045905113,4,-4,-6,0,3,-1,-2,1,-5,18,-9,215,-16,-6,235,199,15,-1,192,204,206,192,1,5990
74.056077003,4,-4,-6,8,1,-2,-4,0,-5,156,-135,36,-11,-15,234,199,15,-1,185,210,199,200,1,5991
74.082989931,3,-4,-6,-4,6,-3,-4,-2,-4,-113,-49,229,-10,-16,242,199,15,-1,211,183,208,192,1,5992
74.093091011,3,-4,-6,-3,0,1,-3,-2,-2,-188,178,188,-10,-7,252,199,15,-1,200,198,194,202,1,5993
74.10524106,2,-4,-6,-2,5,-4,-2,-1,-1,-18,174,185,-13,14,0,199,15,-1,198,195,208,193,1,5994
74.112013101,2,-3,-6,-2,2,11,0,0,0,118,78,-13,-14,22,238,199,15,-1,204,202,193,195,1,5995
74.139112949,3,-3,-6,8,-4,8,0,2,0,-105,-37,79,-9,29,246,199,15,-1,188,216,187,203,1,5996
74.148926019,3,-3,-6,-6,0,-2,0,3,0,40,96,38,3,44,231,199,15,-1,214,181,204,195,1,5997
74.157951116,3,-3,-6,-2,2,7,0,4,0,-182,167,148,7,45,244,199,15,-1,200,203,199,192,1,5998
74.167804956,4,-3,-6,0,1,-6,0,3,1,11,124,5,-2,41,236,199,15,-1,194,198,201,201,1,5999
74.199520111,4,-2,-6,7,0,-9,-1,2,3,-47,-228,104,4,41,218,199,15,-1,183,206,201,204,1,6000
74.204926967,5,-2,-6,2,4,-5,-1,0,3,-25,-182,227,17,39,215,199,15,-1,199,194,208,194,1,6001
74.214869976,5,-2,-6,10,-12,-4,0,0,3,-21,-20,225,14,23,222,199,15,-1,184,209,178,220,1,6002
74.223895072,5,-1,-6,-8,7,6,0,0,1,-2,249,119,15,34,211,199,15,-1,220,180,218,174,1,6003
74.251995086,5,-1,-6,7,2,7,1,0,-1,133,-71,252,5,20,212,199,15,-1,184,219,192,199,1,6004
74.261025905,5,0,-6,-4,13,0,2,0,-4,31,40,-174,21,30,195,199,15,-1,211,186,217,180,1,6005
74.271048069,5,0,-6,-2,2,5,3,0,-4,105,-15,89,18,19,204,199,15,-1,201,200,189,203,1,6006
74.279818058,5,0,-6,3,-5,-3,3,1,-3,70,68,223,20,38,207,199,15,-1,190,204,190,210,1,6007
74.307959079,6,0,-6,-3,-8,-4,2,2,0,86,-115,19,25,29,218,199,15,-1,204,189,192,208,1,6008
74.318856,6,0,-6,8,-6,-7,0,3,2,-203,207,163,5,26,220,199,15,-1,180,210,198,205,1,6009
74.326874971,6,0,-6,-1,2,0,0,3,3,105,-202,120,10,29,228,199,15,-1,208,189,208,189,1,6010
74.335994005,6,0,-6,6,-5,0,-1,2,3,-24,-237,119,-11,24,219,199,15,-1,187,210,188,209,1,6011
74.363810062,6,0,-6,-9,13,0,0,0,0,150,140,197,1,33,231,199,15,-1,219,179,220,173,1,6012
74.372955083,6,0,-6,3,-7,0,0,-2,-1,-129,-91,199,4,20,231,199,15,-1,186,211,177,220,1,6013
74.382947921,6,0,-6,-10,17,3,1,-3,-3,253,72,93,18,14,239,199,15,-1,218,182,220,165,1,6014
74.391901969,6,0,-6,9,-7,-8,1,-3,-3,-119,-153,31,6,-9,254,199,15,-1,172,218,176,220,1,6015
74.420010089,5,0,-6,-3,5,-9,0,-1,-2,139,63,20,18,-4,239,199,15,-1,209,181,216,189,1,6016
74.429980993,5,1,-6,7,-7,-2,0,1,-1,-36,-45,59,1,-11,253,199,15,-1,183,212,183,216,1,6017
74.440315961,4,0,-6,-4,1,0,-1,3,0,104,0,91,16,-7,250,199,15,-1,211,185,208,190,1,6018
74.449080944,4,1,-6,5,0,6,-1,4,-1,48,-2,34,18,-26,251,199,15,-1,190,213,193,198,1,6019
74.47588396,3,1,-6,-4,5,0,0,3,-2,10,92,122,33,-10,252,199,15,-1,210,188,207,190,1,6020
74.486001014,3,1,-6,0,-1,-5,0,1,-3,154,-18,87,42,-1,2,199,15,-1,192,200,194,208,1,6021
74.494941949,3,2,-6,2,-1,3,1,0,-3,5,-50,-114,44,9,228,199,15,-1,196,204,196,198,1,6022
74.504863023,2,2,-6,3,0,0,1,-1,-2,127,-43,201,50,-5,245,199,15,-1,195,201,201,196,1,6023
74.532171011,2,3,-6,0,-1,-5,1,-1,0,-32,110,133,42,3,239,199,15,-1,198,194,198,203,1,6024
74.542351961,2,4,-6,1,5,-1,0,0,0,23,-8,30,41,-11,6,199,15,-1,196,200,208,190,1,6025
74.550895929,2,4,-6,9,2,-13,0,0,0,13,-157,11,37,-5,2,199,15,-1,181,205,204,204,1,6026
74.560965061,2,4,-6,-2,0,1,0,0,0,95,27,125,38,-20,253,199,15,-1,211,187,195,201,1,6027
74.587964057,1,4,-6,0,-7,0,1,1,-1,-10,4,160,33,-14,248,199,15,-1,198,200,188,209,1,6028
74.597826004,1,5,-6,-3,0,4,2,1,-3,-241,-184,48,31,-34,255,199,15,-1,205,195,202,192,1,6029
74.60720396,0,5,-6,3,-10,-9,2,1,-4,142,13,25,33,-10,250,199,15,-1,187,203,187,217,1,6030
74.617053985,0,5,-6,-14,-2,8,2,0,-4,123,21,11,53,2,1,199,15,-1,220,177,201,190,1,6031
74.644818067,0,5,-6,9,0,-7,1,-1,-3,-2,-50,129,46,-7,254,199,15,-1,170,220,202,200,1,6032
74.653846025,0,6,-6,-15,13,-2,0,-2,-2,36,-153,228,54,-10,243,199,15,-1,220,167,220,180,1,6033
74.663846015,0,6,-6,3,6,0,-1,-3,0,-138,118,234,35,-20,250,199,15,-1,181,216,198,200,1,6034
74.673101902,0,6,-6,8,0,-3,-3,-3,0,36,-10,171,42,0,1,199,15,-1,187,207,194,205,1,6035
74.701029062,0,7,-6,7,-7,0,-3,-2,0,-99,-240,72,30,-15,16,199,15,-1,195,202,188,209,1,6036
74.70999813,0,7,-7,10,0,-7,-3,0,0,24,-86,251,46,-18,13,199,15,-1,186,205,207,196,1,6037
74.720128059,0,7,-7,-2,-5,-1,-1,3,-1,90,205,58,45,-20,11,199,15,-1,211,185,192,206,1,6038
74.728899955,-1,7,-7,-9,-1,-3,1,3,-2,181,79,118,52,-3,3,199,15,-1,209,185,201,198,1,6039
74.756983041,0,7,-7,-1,12,9,3,2,-3,126,205,234,58,1,8,199,15,-1,196,209,215,175,1,6040
74.766833066,0,8,-7,11,-1,-10,5,0,-3,26,-170,183,52,-5,0,199,15,-1,176,213,190,215,1,6041
74.77818799,0,8,-7,-12,17,3,4,-1,-3,46,-7,101,54,-3,24,199,15,-1,220,171,220,170,1,6042
74.785893917,0,8,-7,13,4,-6,2,-1,-2,-142,-96,-32,40,-6,255,199,15,-1,165,220,194,208,1,6043
74.813055038,0,8,-7,-1,0,4,0,0,-1,225,-125,110,53,-17,254,199,15,-1,214,187,193,201,1,6044
74.823961019,0,8,-7,8,-6,-2,-1,2,0,-55,70,235,49,-13,8,199,15,-1,183,211,190,209,1,6045
74.832372903,0,8,-7,7,0,4,-1,5,0,-137,84,44,41,-1,10,199,15,-1,197,204,201,192,1,6046
74.842185974,0,8,-7,-3,1,-10,0,6,0,-8,-118,127,23,-9,23,199,15,-1,205,183,206,200,1,6047
74.8697021,-1,8,-7,-18,0,-3,2,6,0,12,-119,217,25,-28,26,199,15,-1,220,172,197,203,1,6048
74.879120111,-1,8,-7,-11,-1,7,3,3,0,126,-21,154,43,-20,18,199,15,-1,203,199,193,198,1,6049
74.888821125,-1,8,-7,-11,0,4,3,0,-1,36,-81,90,38,-37,21,199,15,-1,207,193,198,195,1,6050
74.8979249,-2,8,-7,1,0,1,1,-1,-1,-46,50,198,29,-23,18,199,15,-1,188,211,198,197,1,6051
74.92584896,-2,8,-7,3,5,2,-2,-2,-1,153,-31,190,37,-22,8,199,15,-1,195,203,205,190,1,6052
74.934871912,-2,8,-7,6,3,1,-7,-2,0,214,-183,191,46,-23,6,199,15,-1,192,206,198,198,1,6053
74.944860935,-2,8,-7,12,4,-8,-9,-1,1,6,63,0,53,-26,238,199,15,-1,183,208,207,197,1,6054
74.954087972,-2,8,-7,0,-10,5,-8,0,2,-150,132,185,44,-19,226,199,15,-1,210,191,176,217,1,6055
74.981843948,-2,8,-7,11,-1,-10,-4,1,2,152,91,249,56,-2,222,199,15,-1,177,211,209,197,1,6056
74.991091013,-2,9,-7,-9,4,0,0,2,1,-242,-243,201,30,-10,219,199,15,-1,220,174,207,191,1,6057
75.000917911,-2,9,-7,-4,6,3,5,2,0,-13,111,129,25,-15,210,199,15,-1,198,202,203,191,1,6058
