TiempoEjecucion,AnguloPitch,AnguloRoll,AnguloYaw,G_Pitch,G_Roll,G_Yaw,G_Pitch_filtrada,G_Roll_filtrada,G_Yaw_filtrada,Ax,Ay,Az,Ax_filtrada,Ay_filtrada,Az_filtrada,posZ,posZ_filtrada,velZ,motorDelantero,motorTrasero,motorDerecho,motorIzquierdo,EstadoEncendido,MensajesRecibidos
102.896656037,-4,9,21,-3,3,6,0,1,5,120,147,-154,38,-11,192,183,5,0,194,176,186,174,1,7945
102.906563997,-4,9,21,0,4,10,-1,3,8,168,230,24,46,1,184,183,5,0,185,189,181,175,1,7946
102.935150862,-4,9,21,-7,-1,3,-3,1,6,50,-79,66,44,-5,183,183,5,0,194,174,175,187,1,7947
102.946332932,-4,9,21,4,-1,-1,-1,-1,0,41,183,122,41,3,183,183,5,0,169,195,183,183,1,7948
102.956342936,-4,9,21,-9,-6,-6,-2,-4,-4,2,6,27,40,-1,185,183,5,0,197,162,176,195,1,7949
102.985280037,-4,9,21,6,0,4,-1,-3,-1,-88,0,229,35,-6,184,183,5,0,168,201,187,174,1,7950
102.99545908,-4,9,21,-11,-2,-2,-2,-1,0,-74,101,-39,36,-2,177,183,5,0,204,159,179,188,1,7951
103.006150961,-4,9,21,10,3,12,0,0,5,-96,46,74,28,-7,178,183,5,0,162,213,185,170,1,7952
103.034417868,-4,9,21,-4,1,0,3,2,6,116,-116,125,39,-3,188,183,5,0,198,167,182,182,1,7953
103.045146942,-3,9,21,3,0,3,0,0,2,38,245,135,37,-6,189,183,5,0,175,193,178,184,1,7954
103.056809902,-3,9,21,0,8,-1,2,4,0,16,-85,-62,37,-18,183,183,5,0,184,179,197,169,1,7955
103.084275961,-3,9,21,2,-4,-11,1,2,-6,-93,-218,147,32,-28,190,183,5,0,175,181,173,201,1,7956
103.094297886,-4,9,21,1,1,3,2,-1,-4,221,-235,72,34,-35,183,183,5,0,183,185,187,175,1,7957
103.105227947,-4,9,21,4,1,-5,3,1,-1,-220,-41,175,32,-33,193,183,5,0,175,186,186,184,1,7958
103.133384943,-4,9,21,-4,2,-6,0,2,-6,83,154,60,30,-38,191,183,5,0,191,169,188,182,1,7959
103.144423008,-4,9,21,6,0,0,0,1,-3,-71,25,211,28,-36,204,183,5,0,169,196,180,184,1,7960
103.154474974,-4,9,21,-5,1,-8,0,0,-4,51,58,49,27,-36,202,183,5,0,193,165,188,184,1,7961
103.183321953,-4,9,21,3,-10,0,-1,-4,-4,-37,-61,8,24,-39,206,183,5,0,173,192,166,200,1,7962
103.194262982,-5,9,21,0,2,2,1,-4,0,31,-97,125,26,-49,204,183,5,0,186,180,194,170,1,7963
103.20418787,-5,9,21,-6,0,12,-3,1,7,105,-54,75,28,-44,210,183,5,0,197,178,176,178,1,7964
103.233279944,-5,9,21,3,1,5,-1,0,9,22,-68,1,28,-57,205,183,5,0,174,195,182,179,1,7965
103.243514061,-5,9,21,0,0,7,1,1,6,76,124,107,27,-47,208,183,5,0,188,183,180,180,1,7966
103.255734921,-5,9,21,-2,-7,2,0,-3,4,147,-159,53,27,-57,202,183,5,0,187,180,170,194,1,7967
103.282454968,-6,9,21,3,8,-6,0,0,-2,112,6,90,26,-48,204,183,5,0,173,187,204,166,1,7968
103.293333054,-6,9,21,13,-8,3,8,0,-1,-111,23,73,31,-43,208,183,5,0,167,201,161,201,1,7969
103.306683064,-6,9,21,-8,5,2,2,-1,3,90,150,72,31,-28,206,183,5,0,207,160,197,166,1,7970
103.334281922,-6,9,21,8,-1,9,0,2,5,237,-132,36,41,-33,204,183,5,0,167,206,172,186,1,7971
103.342378855,-6,9,22,0,0,6,4,0,7,87,-55,11,40,-25,196,183,5,0,192,178,181,178,1,7972
103.353281975,-6,9,22,7,6,-6,3,3,0,-97,39,57,33,-17,200,183,5,0,170,190,195,175,1,7973
103.381388903,-6,9,22,-9,-1,-7,-1,2,-6,88,138,17,36,-5,199,183,5,0,199,159,177,194,1,7974
103.392287016,-6,9,21,11,9,0,0,3,-4,-116,-23,246,26,4,200,183,5,0,157,208,198,167,1,7975
103.402358055,-6,9,21,-4,-5,-5,3,1,-3,176,-100,86,29,-6,198,183,5,0,196,164,168,201,1,7976
103.431402922,-5,9,21,2,3,-4,0,-1,-4,-106,-62,173,22,-1,199,183,5,0,173,188,195,173,1,7977
103.442544937,-5,9,21,0,0,7,1,2,1,67,-136,195,30,1,196,183,5,0,187,184,177,182,1,7978
103.454093933,-5,9,22,-6,7,5,-2,3,6,-170,178,17,20,-1,194,183,5,0,195,175,191,169,1,7979
103.481169939,-5,9,22,9,-10,-3,1,-1,1,185,-243,137,26,-12,200,183,5,0,162,201,162,205,1,7980
103.491318941,-5,8,21,-6,-6,2,1,-8,0,91,109,172,27,-9,197,183,5,0,201,166,180,183,1,7981
103.502179861,-5,8,21,5,-4,-3,0,-5,0,-141,-33,178,23,-17,205,183,5,0,168,194,182,186,1,7982
103.530192852,-5,8,21,1,-3,4,3,-3,0,-65,3,37,22,-13,197,183,5,0,186,182,180,181,1,7983
103.541267872,-5,8,22,5,-4,0,3,-3,2,-130,158,100,20,-9,205,183,5,0,177,189,178,186,1,7984
103.551209927,-4,8,22,-5,-3,1,0,-4,1,-52,-91,-35,15,-15,208,183,5,0,195,171,179,184,1,7985
103.580352068,-4,8,22,9,15,0,2,5,0,12,121,152,11,-11,217,183,5,0,164,201,210,156,1,7986
103.59028697,-4,8,22,5,-4,-1,7,5,-1,-173,-22,66,6,-16,217,183,5,0,181,182,164,203,1,7987
103.601295948,-4,8,21,-2,12,-10,1,4,-5,-65,193,69,3,-16,216,183,5,0,187,170,209,164,1,7988
103.629482985,-4,8,21,-2,-2,1,-2,4,-4,228,-188,33,9,-27,216,183,5,0,185,182,167,197,1,7989
103.640172959,-4,7,22,-2,0,0,-2,-1,1,169,70,248,15,-26,217,183,5,0,184,182,186,179,1,7990
103.650304079,-4,7,22,-7,-2,2,-4,-1,1,-52,-28,-100,16,-35,215,183,5,0,192,175,177,186,1,7991
103.679188013,-5,7,22,3,0,5,-1,-1,3,22,168,124,19,-32,210,183,5,0,173,196,182,178,1,7992
103.689307928,-5,7,22,9,12,-2,6,6,1,-55,204,66,15,-24,202,183,5,0,171,192,202,165,1,7993
103.700308085,-5,7,22,-11,1,2,-1,6,0,-30,50,254,13,-23,199,183,5,0,209,158,174,189,1,7994
103.728543997,-5,7,22,8,6,-4,-1,4,0,44,-168,99,13,-18,203,183,5,0,159,203,193,175,1,7995
103.739300013,-5,7,22,-5,4,0,1,5,-2,226,16,-78,22,-13,191,183,5,0,197,167,184,181,1,7996
103.74939704,-5,7,21,7,-2,-5,0,1,-3,-146,-27,226,12,-7,194,183,5,0,165,195,177,192,1,7997
103.778331042,-5,7,21,-3,-4,3,1,-3,-1,-2,-85,93,18,-8,192,183,5,0,195,173,176,186,1,7998
103.788423062,-4,7,22,0,-3,5,-1,-4,4,-41,53,79,15,-11,199,183,5,0,182,187,179,182,1,7999
103.802531004,-4,7,22,1,-3,-5,0,-3,0,233,102,155,22,-9,198,183,5,0,178,182,183,187,1,8000
103.828636885,-4,7,22,-3,0,12,-1,-1,3,-75,-75,28,19,-19,191,183,5,0,194,181,180,174,1,8001
103.839360953,-4,7,22,7,-1,3,2,0,7,102,51,198,23,-10,189,183,5,0,169,198,179,183,1,8002
103.849257946,-4,7,22,-8,-9,2,0,-5,2,-13,61,120,21,0,189,183,5,0,203,164,168,194,1,8003
103.877321959,-4,7,22,4,14,5,-2,2,4,-70,20,77,17,8,183,183,5,0,170,199,210,151,1,8004
103.888565064,-4,7,22,0,-7,3,2,3,4,101,123,195,19,19,188,183,5,0,188,179,159,204,1,8005
103.89891696,-4,7,22,8,14,3,3,3,3,7,69,95,17,18,181,183,5,0,171,196,209,153,1,8006
103.928034067,-3,6,22,0,-2,1,3,6,2,-47,-59,117,12,20,189,183,5,0,190,176,167,197,1,8007
103.937541962,-3,7,22,5,13,8,2,5,4,-73,-32,-42,8,13,179,183,5,0,177,195,200,158,1,8008
103.948312044,-3,6,22,-7,-6,4,0,3,6,214,-172,38,16,2,178,183,5,0,201,168,160,201,1,8009
103.980581999,-3,6,22,0,0,9,-3,-2,7,126,-216,43,17,-13,184,183,5,0,180,193,186,172,1,8010
103.98752904,-3,6,22,-6,2,0,-3,1,4,13,-193,38,18,-14,184,183,5,0,192,173,186,179,1,8011
103.997350931,-3,6,22,1,6,-1,-2,4,-1,-160,-48,69,11,-14,186,183,5,0,175,189,191,175,1,8012
104.026252985,-3,6,22,7,2,-12,4,4,-6,123,-99,173,17,-24,182,183,5,0,168,187,185,190,1,8013
104.038213968,-3,6,22,-7,4,9,0,3,-1,-141,212,152,11,-22,185,183,5,0,203,169,184,173,1,8014
104.047384978,-3,6,22,7,6,0,0,5,5,98,54,53,17,-20,181,183,5,0,165,200,188,176,1,8015
104.075389862,-3,6,22,-8,-5,12,0,0,6,-211,-180,132,7,-16,182,183,5,0,206,169,164,192,1,8016
104.08620596,-3,6,22,4,1,3,-1,-2,7,-145,163,108,6,-10,180,183,5,0,170,198,188,174,1,8017
104.099128008,-3,6,22,-2,-10,4,0,-4,4,-28,-21,119,3,-7,178,183,5,0,192,176,163,198,1,8018
104.125318051,-3,6,22,4,9,9,1,0,7,127,102,54,11,-3,179,183,5,0,177,196,202,155,1,8019
104.135443926,-3,6,22,-1,-1,-5,1,4,2,-24,-159,-45,6,-1,168,183,5,0,187,173,175,194,1,8020
104.146331072,-3,6,22,8,11,-1,3,5,-3,23,-94,80,10,-6,172,183,5,0,167,196,201,165,1,8021
104.175224066,-3,6,22,-7,4,-6,0,7,-4,-75,-133,135,12,-8,165,183,5,0,198,162,182,188,1,8022
104.185359001,-3,5,22,-7,-4,10,-7,0,1,128,-170,50,17,-13,172,183,5,0,192,182,168,189,1,8023
104.195303917,-3,5,22,-1,4,-3,-4,0,3,0,83,82,20,-15,165,183,5,0,176,186,195,173,1,8024
104.226500988,-3,5,22,-2,-11,-10,-1,-3,-7,-46,-81,82,20,-14,174,183,5,0,181,176,166,208,1,8025
104.235296965,-3,5,22,-6,0,0,-4,-5,-5,40,191,103,21,-19,166,183,5,0,190,174,194,172,1,8026
104.245715857,-3,5,22,-3,-1,2,-4,0,1,68,-121,46,27,-15,172,183,5,0,183,184,178,184,1,8027
104.274322033,-3,6,22,4,-5,0,0,-3,1,64,43,71,30,-19,172,183,5,0,172,192,175,190,1,8028
104.284331084,-4,6,22,-11,0,5,-3,-2,2,124,254,171,28,-1,176,183,5,0,206,163,186,175,1,8029
104.295331001,-3,6,22,5,5,7,-2,3,6,-26,-116,230,23,-6,175,183,5,0,167,204,188,171,1,8030
104.323318005,-3,6,22,-3,-2,-2,1,1,2,150,120,5,28,3,184,183,5,0,192,171,176,192,1,8031
104.334559918,-3,6,22,5,2,11,0,0,4,122,69,124,30,1,191,183,5,0,176,198,183,173,1,8032
104.350286961,-3,6,23,-6,-7,-5,0,-2,2,6,-32,64,32,-11,197,183,5,0,194,167,172,198,1,8033
104.373317957,-3,6,22,0,-2,0,-2,-4,-3,-2,-208,172,26,-24,195,183,5,0,176,189,185,180,1,8034
104.385318995,-3,6,22,-1,-1,-8,0,-2,-4,-89,-246,61,23,-25,201,183,5,0,183,176,185,187,1,8035
104.394299984,-3,6,22,8,-3,-4,3,-2,-6,128,-12,52,20,-33,204,183,5,0,166,196,180,188,1,8036
104.423223973,-3,6,22,-7,10,-6,0,3,-5,203,-72,254,29,-34,204,183,5,0,199,161,203,167,1,8037
104.433407068,-4,6,22,2,-9,4,-2,0,0,63,-253,84,31,-38,204,183,5,0,174,195,158,203,1,8038
104.44330287,-4,6,22,0,12,7,1,1,5,-117,-119,-31,29,-42,195,183,5,0,186,184,207,152,1,8039
104.47228694,-4,6,22,-7,-1,2,-3,5,4,198,-169,82,28,-49,193,183,5,0,195,172,169,194,1,8040
104.483211994,-5,6,22,-4,6,6,-5,2,4,-61,185,77,28,-36,195,183,5,0,185,185,191,169,1,8041
104.49334693,-5,6,22,-5,-3,9,-4,1,7,51,119,247,27,-34,196,183,5,0,191,182,168,189,1,8042
104.522667885,-5,6,23,1,0,3,-1,-1,6,-56,0,-22,20,-30,192,183,5,0,177,190,184,179,1,8043
104.532191038,-5,6,23,-7,6,-2,-2,3,0,38,247,223,22,-30,196,183,5,0,194,169,194,173,1,8044
104.54319787,-5,6,22,11,-2,-10,2,2,-6,-226,77,249,14,-25,197,183,5,0,155,202,178,196,1,8045
104.571259022,-5,6,22,0,-1,-6,5,-1,-8,79,-89,227,16,-35,200,183,5,0,190,169,184,186,1,8046
104.582315922,-5,6,22,10,4,1,5,1,-2,94,-109,13,20,-37,198,183,5,0,167,200,190,174,1,8047
104.592242956,-5,6,22,-8,-6,-5,1,-1,-1,-118,-65,-253,18,-37,193,183,5,0,202,159,170,199,1,8048
104.621268034,-5,6,22,6,6,1,-1,0,-1,43,-69,193,14,-29,196,183,5,0,167,200,198,166,1,8049
104.631418944,-5,6,22,-2,1,7,1,4,4,60,-182,235,13,-28,195,183,5,0,195,176,177,182,1,8050
104.64242506,-6,6,22,0,-1,-1,-1,0,2,83,-142,161,8,-26,204,183,5,0,179,185,180,187,1,8051
104.670214892,-6,6,22,0,0,-8,0,0,-5,-47,-175,106,11,-36,205,183,5,0,181,178,187,184,1,8052
104.682620049,-6,6,22,-4,-5,3,-2,-2,-2,163,-115,229,12,-36,213,183,5,0,191,177,172,189,1,8053
104.691207886,-6,6,22,13,-9,3,4,-7,3,-128,-36,157,12,-43,220,183,5,0,159,209,171,191,1,8054
104.720237971,-6,6,22,-7,1,4,3,-4,3,82,205,253,12,-39,225,183,5,0,207,162,190,171,1,8055
104.730448008,-6,6,22,0,5,-4,-3,3,0,4,112,51,17,-31,229,183,5,0,175,187,192,177,1,8056
104.741205931,-6,6,22,-11,5,-9,-5,5,-6,157,-88,70,25,-38,222,183,5,0,196,162,190,182,1,8057
104.769219876,-6,6,22,5,8,-4,-3,7,-6,-39,152,132,24,-33,228,183,5,0,164,198,192,177,1,8058
104.7804389,-6,6,22,-11,3,-6,-3,6,-5,75,-42,187,23,-43,225,183,5,0,201,159,184,186,1,8059
104.79036808,-7,6,22,4,-1,-3,-3,1,-4,-40,-8,115,23,-40,236,183,5,0,166,197,179,189,1,8060
104.81931305,-7,6,22,5,0,5,4,0,0,-60,-190,-98,14,-42,225,183,5,0,180,189,181,180,1,8061
104.829360008,-7,6,22,9,0,4,7,0,4,9,-70,8,16,-40,228,183,5,0,174,194,181,180,1,8062
104.840249062,-7,6,22,2,-5,2,6,-2,3,-108,88,188,10,-34,225,183,5,0,188,179,173,189,1,8063
104.868854046,-7,5,22,-3,-1,4,0,-3,3,2,225,128,10,-30,226,183,5,0,191,178,183,178,1,8064
104.879386902,-7,5,22,8,-3,-2,2,-2,1,-18,128,121,11,-19,221,183,5,0,167,196,179,188,1,8065
104.889461994,-7,5,22,-14,0,4,-3,-1,0,77,64,90,12,-16,227,183,5,0,213,156,183,179,1,8066
104.918207884,-7,5,22,-3,0,16,-9,0,10,24,199,131,11,-8,223,183,5,0,182,196,177,175,1,8067
104.929277897,-6,5,23,3,6,-6,0,3,4,-148,-130,-197,6,-12,210,183,5,0,171,189,195,175,1,8068
104.939216852,-6,5,23,4,-3,5,4,1,0,213,118,109,8,-9,214,183,5,0,181,188,169,192,1,8069
104.968255043,-6,5,23,0,7,-6,2,1,0,119,146,182,12,-2,213,183,5,0,183,177,200,170,1,8070
104.978348971,-6,5,22,10,-14,-13,5,-3,-9,86,-54,11,10,-7,213,183,5,0,162,193,159,217,1,8071
104.98920393,-6,5,22,-5,9,0,2,-2,-6,172,-116,-25,11,-11,203,183,5,0,200,165,210,156,1,8072
105.017205954,-6,5,22,3,-2,-2,-1,3,-1,209,-101,232,16,-7,201,183,5,0,172,191,172,195,1,8073
105.028141022,-5,5,22,-2,4,4,0,1,0,78,187,180,25,2,201,183,5,0,190,178,189,172,1,8074
105.038352967,-5,5,22,-10,2,-3,-6,3,0,151,230,3,31,14,200,183,5,0,194,168,184,183,1,8075
105.067270041,-5,5,22,5,6,-6,-2,4,-4,-238,65,40,22,23,199,183,5,0,163,196,193,177,1,8076
105.077245951,-5,5,22,-2,1,8,1,4,0,37,219,208,17,30,198,183,5,0,194,178,176,182,1,8077
105.088376045,-4,5,22,10,0,12,4,1,10,4,-191,158,16,31,194,183,5,0,170,205,177,178,1,8078
105.116405964,-4,5,22,-2,-2,0,3,-1,6,131,-199,213,22,29,200,183,5,0,195,170,178,187,1,8079
105.127312899,-3,5,22,1,-6,4,0,-4,2,8,-41,123,17,33,195,183,5,0,179,189,173,188,1,8080
105.1372509,-3,5,23,1,11,6,1,2,5,69,210,124,21,33,196,183,5,0,184,186,203,157,1,8081
105.166329861,-3,5,23,0,-18,-5,0,-3,0,2,-126,222,19,27,201,183,5,0,183,178,148,220,1,8082
105.176249027,-2,5,22,6,3,-3,2,-7,-4,64,121,210,29,30,207,183,5,0,172,191,205,163,1,8083
105.187231064,-2,5,22,-9,-5,-1,-1,0,-2,-67,-7,132,26,24,211,183,5,0,200,163,172,195,1,8084
105.21547699,-2,5,22,7,2,2,0,-1,0,150,-203,120,36,10,215,183,5,0,165,202,190,173,1,8085
105.226240874,-2,5,23,-10,0,11,-1,1,7,34,18,-38,35,13,208,183,5,0,209,165,177,179,1,8086
105.236789942,-1,5,23,7,0,10,-1,0,11,125,189,200,35,20,213,183,5,0,166,207,178,179,1,8087
105.265280009,-1,5,23,-2,11,4,2,5,7,-17,-142,90,38,25,221,183,5,0,195,174,197,164,1,8088
105.27579093,-1,5,23,-6,-11,-7,-4,0,-1,24,-149,179,37,23,214,183,5,0,187,173,158,213,1,8089
105.286269903,-1,6,23,-1,6,-7,-3,-2,-7,149,-42,153,40,20,212,183,5,0,176,183,206,166,1,8090
105.315250874,-1,6,23,-7,-6,-5,-4,0,-6,69,-186,189,39,19,207,183,5,0,191,170,169,200,1,8091
105.325290919,-1,6,23,-13,4,7,-10,0,0,23,-21,170,41,23,215,183,5,0,199,171,193,167,1,8092
105.336123944,0,6,23,0,-3,-1,-7,0,2,-92,195,167,35,31,207,183,5,0,171,193,174,192,1,8093
105.364367008,0,6,23,7,0,0,3,-1,0,141,-189,247,41,27,203,183,5,0,172,193,186,179,1,8094
105.375386,0,6,23,-4,3,8,1,1,4,-79,152,148,37,25,200,183,5,0,198,174,183,175,1,8095
105.386291027,0,6,23,14,0,4,5,1,6,151,-186,173,41,18,197,183,5,0,159,210,178,184,1,8096
105.41425395,0,6,23,-5,2,6,4,1,5,-36,147,48,36,24,202,183,5,0,205,165,184,176,1,8097
105.424305916,0,7,23,1,4,-6,-1,3,0,-41,-160,24,36,16,200,183,5,0,173,187,190,181,1,8098
105.435497999,0,7,23,0,6,-2,0,5,-4,-147,-204,38,31,12,196,183,5,0,183,180,190,177,1,8099
105.464374066,0,7,23,-5,-7,-4,-2,0,-3,72,-171,21,33,8,194,183,5,0,188,173,167,202,1,8100
105.474346876,0,7,23,3,4,-9,0,-1,-6,-4,-180,229,35,8,202,183,5,0,170,188,200,172,1,8101
105.486736059,0,7,23,8,-9,-7,5,-2,-8,-39,-98,185,33,1,206,183,5,0,170,189,167,204,1,8102
105.513434887,0,7,22,-6,-2,-14,1,-6,-10,-57,-238,124,35,-6,205,183,5,0,193,161,192,184,1,8103
105.524168015,0,7,22,-6,-7,13,-6,-5,0,204,17,166,40,-11,206,183,5,0,192,184,167,187,1,8104
105.534312964,0,7,22,0,-4,7,-2,-6,10,145,12,169,44,-21,213,183,5,0,179,191,179,180,1,8105
105.563241005,0,7,23,-4,6,10,-2,0,8,7,-227,134,42,-34,214,183,5,0,194,179,192,165,1,8106
105.573418856,0,7,23,-2,-4,-4,-3,0,3,-78,-88,222,40,-42,217,183,5,0,180,181,172,197,1,8107
105.584378958,0,7,23,-8,9,-3,-5,2,-4,43,84,251,44,-36,228,183,5,0,193,170,202,166,1,8108
105.613276959,0,7,23,9,-2,0,0,3,-1,-116,115,50,36,-43,226,183,5,0,162,204,171,194,1,8109
105.634414911,-1,8,23,-7,6,3,1,1,1,-40,-23,-182,32,-53,217,185,5,0,204,167,195,171,1,8110
105.640336037,-1,8,23,9,-5,6,1,0,4,181,153,142,34,-48,214,185,5,0,167,207,168,196,1,8111
105.674351931,-1,8,23,8,-3,-5,9,-4,0,-3,110,38,30,-43,222,187,5,0,180,189,188,189,1,8112
105.685231924,-1,7,22,0,0,-10,4,-1,-7,170,-182,41,29,-45,224,187,5,0,189,175,193,188,1,8113
105.695363045,-2,7,22,5,7,-13,2,3,-11,75,14,96,29,-49,222,187,5,0,173,189,203,180,1,8114
105.724201918,-2,7,22,-11,-4,0,-3,1,-6,-159,-71,108,21,-56,224,187,5,0,209,164,174,199,1,8115
105.735247851,-3,7,22,-9,1,0,-10,-1,0,-85,42,75,25,-57,231,187,5,0,191,182,193,180,1,8116
105.745380879,-3,7,22,4,-3,2,-2,0,1,126,238,140,27,-57,230,187,5,0,173,202,179,192,1,8117
105.774231911,-3,7,22,-13,0,6,-4,-1,4,147,-185,241,31,-56,232,187,5,0,213,165,188,180,1,8118
105.784976959,-4,7,22,7,-16,-3,-3,-7,1,118,213,252,31,-46,233,187,5,0,163,207,163,213,1,8119
105.795176983,-4,7,22,-10,7,8,-1,-4,2,87,-238,-44,33,-51,229,187,5,0,211,169,208,159,1,8120
105.824209929,-4,7,22,11,-3,2,0,1,5,54,136,220,32,-53,237,187,5,0,163,212,175,196,1,8121
105.83431387,-4,7,23,-4,-1,3,3,-2,2,45,-61,103,33,-58,234,187,5,0,204,171,186,184,1,8122
105.844606877,-5,7,23,4,7,-6,0,2,-1,18,97,119,32,-65,239,187,5,0,174,194,200,178,1,8123
105.873383045,-5,7,23,6,5,-11,5,6,-8,68,-227,147,35,-70,233,187,5,0,175,189,194,188,1,8124
105.884408951,-5,7,22,9,9,-9,8,7,-10,-248,-4,49,25,-72,231,187,5,0,175,191,200,180,1,8125
105.898179054,-5,7,22,-2,-12,-9,3,-1,-9,36,-25,85,26,-79,240,187,5,0,195,171,164,217,1,8126
105.923294068,-6,7,22,-2,4,-1,-2,-3,-5,135,188,156,26,-79,233,187,5,0,188,184,204,170,1,8127
105.937278033,-6,7,22,10,-5,3,3,0,0,47,-1,13,27,-76,237,187,5,0,170,205,172,198,1,8128
105.944375038,-6,7,22,-5,7,4,2,0,3,-117,235,58,24,-66,234,187,5,0,206,171,200,169,1,8129
105.972352982,-7,7,22,7,-4,8,0,1,6,101,-88,92,23,-61,233,187,5,0,175,205,171,195,1,8130
105.98338604,-7,7,22,0,8,-11,3,2,-1,-53,-147,-147,20,-66,224,187,5,0,188,176,208,174,1,8131
105.993345022,-7,7,22,4,-1,3,2,3,-4,-1,6,153,19,-59,217,187,5,0,180,195,176,195,1,8132
106.02243805,-7,7,22,-10,1,-9,-2,0,-2,71,30,114,23,-63,216,187,5,0,202,163,194,187,1,8133
106.033264876,-8,7,22,4,-8,-8,-3,-3,-8,49,251,168,21,-52,221,187,5,0,169,198,176,203,1,8134
106.044108868,-8,7,22,-11,-5,-3,-3,-6,-5,89,-76,-83,25,-58,215,187,5,0,205,165,187,189,1,8135
106.073250056,-8,7,22,2,9,3,-4,2,0,2,65,54,21,-52,218,187,5,0,175,201,204,167,1,8136
106.082314968,-8,7,22,9,0,-9,6,4,-2,37,161,-10,23,-51,204,187,5,0,170,196,182,198,1,8137
106.093179941,-8,7,22,-16,0,3,-3,0,-2,54,49,103,26,-40,206,187,5,0,220,155,186,184,1,8138
106.122142077,-8,7,22,9,2,10,-3,1,7,223,-108,-17,35,-37,204,187,5,0,163,219,186,179,1,8139
106.132341862,-8,7,22,-13,2,-1,-1,2,4,194,-38,244,38,-34,204,187,5,0,213,158,189,185,1,8140
106.142473936,-8,7,22,7,1,3,-2,1,0,-48,-29,251,37,-30,204,187,5,0,166,210,184,186,1,8141
106.171913862,-8,7,22,3,-5,-7,5,-2,-1,-86,59,151,36,-20,203,187,5,0,185,182,180,198,1,8142
106.182301998,-8,7,22,-2,10,0,0,2,-3,-18,-25,17,37,-14,201,187,5,0,193,180,207,166,1,8143
106.192473889,-8,7,22,7,1,-6,2,5,-3,93,-126,99,34,-18,199,187,5,0,171,197,182,196,1,8144
106.221165896,-8,7,22,-7,1,4,0,1,0,56,46,251,32,-17,195,187,5,0,206,171,186,183,1,8145
106.231337071,-8,7,22,0,2,-5,-3,2,0,36,-22,80,32,-12,187,187,5,0,178,191,192,185,1,8146
106.242430926,-8,7,22,-3,-1,3,-1,0,0,-124,145,200,31,-6,186,187,5,0,193,183,181,190,1,8147
106.270369053,-8,7,22,1,-10,9,-1,-5,6,35,141,28,31,-5,181,187,5,0,185,195,169,197,1,8148
106.281298876,-7,7,22,-2,5,-1,0,-2,3,-20,9,93,27,-7,175,187,5,0,191,181,203,171,1,8149
106.291306019,-7,7,22,13,-9,-7,5,-2,-4,183,26,219,33,0,186,187,5,0,162,206,171,208,1,8150
106.320224047,-7,8,22,-9,2,4,2,-3,-1,-154,-57,52,24,-5,190,187,5,0,213,164,196,173,1,8151
106.331140995,-7,8,22,-7,-2,6,-8,0,5,217,130,137,30,-4,192,187,5,0,193,186,178,190,1,8152
106.341223955,-7,8,22,-1,3,3,-4,0,5,-56,-247,46,24,-6,186,187,5,0,184,192,192,178,1,8153
106.370365858,-7,8,22,-10,5,2,-5,4,3,161,11,67,26,-6,192,187,5,0,201,174,191,180,1,8154
106.380352974,-7,8,22,-4,-3,0,-7,0,1,34,36,81,31,2,185,187,5,0,185,188,176,196,1,8155
106.391181946,-6,8,22,-1,4,8,-3,0,4,73,-90,184,35,0,187,187,5,0,188,192,193,173,1,8156
106.419275046,-6,8,22,2,-2,1,0,1,4,-13,-146,105,25,-16,186,187,5,0,182,192,178,193,1,8157
106.430197954,-6,8,22,-5,-8,3,-1,-5,2,241,-84,131,27,-14,190,187,5,0,198,177,175,196,1,8158
106.440592051,-6,8,22,8,2,6,1,-3,4,-1,-167,80,18,-23,192,187,5,0,172,206,194,174,1,8159
106.469419956,-6,7,22,0,-5,-5,4,-1,0,128,93,38,19,-15,201,187,5,0,191,178,179,199,1,8160
106.479382038,-6,7,22,8,3,-4,4,0,-4,41,178,248,19,-14,195,187,5,0,172,197,198,178,1,8161
106.490309954,-6,7,22,-2,0,-1,2,2,-3,192,-218,120,22,-12,195,187,5,0,196,175,185,189,1,8162
106.518357992,-6,7,22,-4,-4,-11,-3,-2,-6,-43,-100,12,15,-16,193,187,5,0,187,177,183,199,1,8163
106.530951977,-6,7,22,2,2,4,-1,0,-3,24,-72,-132,13,-13,186,187,5,0,180,196,193,176,1,8164
106.539577008,-6,7,22,-1,0,4,0,1,4,-117,82,99,17,-4,187,187,5,0,193,183,183,186,1,8165
106.568299055,-6,7,22,4,-3,-11,1,-1,-3,37,-116,129,17,0,182,187,5,0,174,189,186,197,1,8166
106.58277607,-5,7,22,2,-7,0,3,-5,-5,-139,-37,189,10,-6,189,187,5,0,186,187,178,195,1,8167
106.589418888,-5,7,22,8,0,-8,5,-3,-3,-23,-83,135,8,-14,192,187,5,0,173,194,197,182,1,8168
106.618471861,-5,7,22,-10,-5,-5,0,-2,-6,-87,-144,230,9,-30,196,187,5,0,207,161,180,197,1,8169
106.628344059,-5,6,22,1,-3,6,-4,-4,0,-62,1,113,5,-28,203,187,5,0,179,200,183,185,1,8170
106.640470028,-5,6,22,-11,-7,2,-4,-5,4,22,-57,2,7,-19,213,187,5,0,205,170,177,194,1,8171
106.667442084,-5,6,22,3,0,-3,-3,-4,0,-1,90,92,0,-17,212,187,5,0,171,199,193,183,1,8172
106.678278923,-5,6,22,5,-5,-7,4,-3,-5,114,-13,142,1,-18,212,187,5,0,178,189,182,197,1,8173
106.688607931,-5,6,22,-11,-1,0,-2,-3,-3,-5,-1,74,0,-24,204,187,5,0,208,165,189,184,1,8174
106.717314959,-5,5,22,9,4,2,-1,1,1,-254,20,205,-8,-22,211,187,5,0,164,210,194,177,1,8175
106.72732687,-5,5,22,-12,-6,2,-1,-1,2,-68,-202,198,-9,-29,208,187,5,0,214,161,171,200,1,8176
106.738204956,-5,5,22,16,2,1,1,-2,2,-160,130,66,-14,-29,216,187,5,0,153,220,195,176,1,8177
106.767129898,-5,5,22,0,-4,1,7,-1,1,192,193,134,-11,-32,217,187,5,0,202,173,177,195,1,8178
106.777226925,-6,4,22,-1,7,1,-1,1,1,-35,68,69,-17,-28,219,187,5,0,189,185,201,171,1,8179
106.787286043,-6,4,22,8,-1,7,3,3,4,167,58,142,-18,-25,223,187,5,0,176,203,175,192,1,8180
106.816380024,-6,4,22,-16,-1,15,-3,-1,11,7,40,100,-17,-24,219,187,5,0,220,162,180,180,1,8181
106.827173949,-6,4,22,3,2,1,-6,0,8,-39,20,45,-16,-25,210,187,5,0,168,206,190,182,1,8182
106.837213993,-6,3,22,-5,0,3,-1,1,2,246,122,29,-9,-21,217,187,5,0,199,176,185,185,1,8183
106.866231919,-6,3,22,9,-7,-7,1,-3,-1,-105,98,189,-14,-15,226,187,5,0,165,202,178,201,1,8184
106.876385927,-6,3,22,0,-3,-3,4,-5,-5,54,-69,207,-14,-18,225,187,5,0,194,176,188,188,1,8185
106.890064955,-6,3,22,8,0,-12,3,-1,-7,-107,-42,196,-18,-19,234,187,5,0,167,196,195,188,1,8186
106.921833039,-6,2,22,-11,-12,3,-1,-6,-4,197,-122,207,-10,-25,240,187,5,0,213,163,165,205,1,8187
106.926414013,-6,2,22,6,0,1,-2,-5,2,-86,-23,57,-13,-29,248,187,5,0,167,207,198,174,1,8188
106.936533928,-6,2,22,-3,-8,4,1,-3,2,129,-239,156,3,-36,249,187,5,0,199,177,171,199,1,8189
106.965267897,-6,2,22,-8,8,1,-5,0,2,-177,-51,93,-5,-38,246,187,5,0,196,178,205,166,1,8190
106.976253033,-6,2,22,-4,0,-4,-6,3,-1,87,-70,150,0,-38,242,187,5,0,184,185,180,196,1,8191
106.986374855,-6,2,22,-7,4,6,-5,1,1,125,35,49,-1,-34,234,187,5,0,196,182,191,177,1,8192
107.015191078,-6,2,22,4,8,14,-1,6,10,159,156,144,3,-24,236,187,5,0,180,204,190,171,1,8193
107.026859999,-6,2,22,-13,-6,-4,-4,0,4,96,-42,204,1,-25,233,187,5,0,208,161,171,206,1,8194
107.038296938,-6,2,22,13,5,2,0,0,-1,14,102,127,1,-23,241,187,5,0,156,219,199,171,1,8195
107.064372063,-6,2,22,-2,-1,-4,5,1,0,47,13,187,0,-21,234,187,5,0,200,170,181,195,1,8196
107.075301886,-6,1,22,-5,2,0,-4,0,-1,-191,-10,126,2,-11,235,187,5,0,193,181,191,181,1,8197
107.085541964,-6,1,22,3,1,1,-1,1,1,223,-69,188,2,-11,230,187,5,0,178,196,186,186,1,8198
107.11438489,-6,1,22,-10,0,-3,-3,0,0,-112,-69,120,5,-8,224,187,5,0,203,167,186,190,1,8199
107.125216007,-6,1,22,5,5,3,-2,2,0,87,-9,60,4,-11,225,187,5,0,172,204,195,176,1,8200
107.135385037,-6,1,22,-5,1,5,0,3,4,-89,-14,209,1,-16,224,187,5,0,201,176,182,187,1,8201
107.164294958,-6,1,22,2,-4,-6,-1,-1,0,-179,-54,56,-7,-12,222,187,5,0,175,193,181,197,1,8202
107.174305916,-6,1,22,0,4,4,1,0,0,-30,-202,49,-1,-14,217,187,5,0,192,185,195,174,1,8203
107.185189963,-5,1,22,12,-3,3,6,0,4,25,57,119,5,-11,223,187,5,0,168,208,176,194,1,8204
107.213391066,-5,1,22,-5,-6,-8,3,-5,-2,46,3,57,9,-13,222,187,5,0,203,164,182,198,1,8205
107.224247933,-5,1,22,9,4,-3,1,-1,-5,180,103,76,13,-7,227,187,5,0,166,205,200,175,1,8206
107.234308958,-5,1,22,-13,-6,-8,-1,-1,-5,-24,-34,46,15,-14,217,187,5,0,211,156,176,203,1,8207
107.263265848,-5,1,22,3,10,-4,-4,1,-6,13,-111,47,16,-8,215,187,5,0,169,201,209,167,1,8208
107.274152041,-5,2,22,0,0,9,1,5,2,-76,-67,18,17,0,216,187,5,0,193,188,175,190,1,8209
107.28669405,-5,2,22,-8,0,1,-4,0,5,5,142,247,18,3,213,187,5,0,201,174,187,185,1,8210
107.313266039,-5,2,22,14,2,5,2,1,3,92,-214,120,20,0,216,187,5,0,159,218,187,181,1,8211
107.323234081,-4,2,22,-1,-3,2,6,0,4,42,159,172,28,1,224,187,5,0,202,173,178,193,1,8212
107.334259033,-4,2,22,18,0,-3,8,-1,0,-110,-79,-91,16,-6,219,187,5,0,157,213,191,185,1,8213
107.362325907,-4,2,22,7,-3,-6,12,-1,-4,139,221,201,26,-1,222,187,5,0,189,179,183,195,1,8214
107.374079943,-4,2,22,-3,-8,-5,1,-6,-5,-254,-48,125,26,-2,220,187,5,0,195,174,179,198,1,8215
107.383444071,-4,2,22,-1,6,1,-2,-1,-2,8,44,123,34,3,224,187,5,0,187,187,202,170,1,8216
107.412181854,-4,2,22,-2,1,-5,-2,3,-1,-211,-54,121,33,-1,226,187,5,0,187,182,186,191,1,8217
107.422425986,-3,3,22,5,15,-3,1,8,-4,-64,74,-103,26,-4,213,187,5,0,174,197,209,166,1,8218
107.433223963,-3,3,22,-10,0,4,-2,7,0,119,-215,184,30,-11,223,187,5,0,209,168,172,198,1,8219
107.462152004,-3,3,22,1,2,1,-4,1,2,-164,-44,121,22,-14,216,187,5,0,176,198,190,182,1,8220
107.472328902,-3,3,22,-4,2,2,-1,2,2,46,12,18,23,-14,220,187,5,0,195,180,188,183,1,8221
107.483135939,-3,3,22,2,-4,2,0,-1,2,-107,129,228,21,-12,225,187,5,0,180,195,176,195,1,8222
107.511239052,-3,3,22,0,-7,2,1,-6,2,-19,130,44,14,-11,225,187,5,0,189,186,179,192,1,8223
107.522163868,-3,3,22,1,-7,2,0,-7,2,-118,37,25,14,-13,221,187,5,0,186,189,181,190,1,8224
107.532537937,-3,3,22,-8,2,6,-3,-2,4,232,-37,175,19,-12,220,187,5,0,202,176,193,174,1,8225
107.561218024,-3,3,22,-1,-6,6,-4,-1,6,33,-49,170,22,-12,219,187,5,0,184,194,172,195,1,8226
107.571341038,-3,3,22,-7,1,7,-4,-2,7,173,79,32,21,-7,209,187,5,0,199,180,190,177,1,8227
107.582200051,-3,3,22,-3,-1,2,-5,0,5,-18,90,78,23,-4,203,187,5,0,187,188,183,188,1,8228
107.610507965,-3,3,22,1,9,-4,-1,4,0,-96,-242,-66,11,-4,197,187,5,0,180,190,204,173,1,8229
107.621217966,-3,3,22,-8,-7,2,-3,1,0,-92,-78,104,13,-5,197,187,5,0,201,174,166,205,1,8230
107.634530068,-3,3,22,7,0,11,0,-3,6,-51,246,181,10,2,198,187,5,0,173,209,188,176,1,8231
107.660209894,-3,3,22,2,0,0,5,0,5,252,-75,213,13,-6,202,187,5,0,189,183,187,187,1,8232
107.670333863,-3,3,22,-5,-1,-1,-1,0,-1,248,111,210,15,-1,204,187,5,0,196,175,186,189,1,8233
107.681365967,-3,3,22,9,0,-2,1,0,-1,138,-254,132,16,-6,209,187,5,0,167,204,188,186,1,8234
107.710952044,-3,3,22,-4,-6,0,2,-3,0,100,-89,90,18,-18,201,187,5,0,202,172,177,196,1,8235
107.720512867,-3,3,22,4,10,3,0,2,1,-153,6,126,13,-18,200,187,5,0,177,199,206,164,1,8236
107.730521918,-3,3,22,-6,0,4,0,5,4,193,-167,139,23,-22,206,187,5,0,202,175,176,193,1,8237
107.759356022,-3,3,22,-2,9,-11,-4,4,-3,-53,209,60,10,-15,210,187,5,0,181,183,205,177,1,8238
107.770182848,-3,4,22,-1,3,9,-2,6,0,110,46,-8,15,-12,206,187,5,0,190,190,181,185,1,8239
107.780336857,-3,4,22,9,2,0,3,2,4,40,127,223,14,-2,211,187,5,0,171,202,186,186,1,8240
107.809337855,-3,4,22,-5,-11,0,2,-4,0,18,2,13,17,-2,206,187,5,0,203,171,167,205,1,8241
107.819433928,-3,3,22,9,-4,-4,1,-7,-1,-114,-3,227,18,0,210,187,5,0,167,203,191,185,1,8242
107.830178976,-3,3,22,-6,-8,-6,1,-6,-5,-64,-114,20,18,1,216,187,5,0,202,166,180,198,1,8243
107.8585639,-3,3,22,1,-11,-7,-2,-10,-6,25,-32,164,11,0,223,187,5,0,175,192,178,201,1,8244
107.86924386,-3,3,22,5,-1,0,3,-6,-3,50,-67,141,11,-2,225,187,5,0,179,194,195,178,1,8245
107.879318953,-2,3,22,-13,5,0,-4,2,0,-17,22,184,6,-4,222,187,5,0,212,161,195,178,1,8246
107.908181906,-2,3,22,6,3,0,-3,4,0,5,-8,42,7,2,228,187,5,0,164,208,187,186,1,8247
107.918310881,-2,3,22,-13,0,10,-3,1,5,-155,217,90,3,10,222,187,5,0,216,165,180,184,1,8248
107.929276943,-2,3,22,0,1,3,-6,1,7,32,19,90,6,12,224,187,5,0,176,200,187,183,1,8249
107.957252979,-2,3,22,1,-1,-8,1,0,-2,58,-100,193,7,6,223,187,5,0,181,186,186,194,1,8250
107.968323946,-2,3,22,5,-11,-5,3,-6,-6,-21,-184,232,4,7,219,187,5,0,178,191,172,205,1,8251
107.978268862,-2,3,22,5,-2,1,5,-7,-1,-3,-49,140,3,2,212,187,5,0,184,190,192,180,1,8252
108.007380963,-2,3,22,3,3,0,4,0,0,0,126,182,12,13,219,187,5,0,185,188,194,179,1,8253
108.017271996,-1,3,22,2,-9,9,3,-2,4,103,230,219,5,14,219,187,5,0,190,191,166,199,1,8254
108.028331995,-1,3,22,-5,13,16,-1,2,12,-8,25,138,11,15,220,187,5,0,203,183,208,152,1,8255
108.057204962,-1,3,22,1,-9,10,-1,2,13,182,23,154,9,15,214,187,5,0,184,197,157,208,1,8256
108.06742096,-1,3,23,1,11,7,1,1,8,23,-25,1,15,16,218,187,5,0,189,190,209,159,1,8257
108.078459978,-1,3,23,2,-5,7,1,3,7,12,4,178,23,14,231,187,5,0,187,192,166,201,1,8258
108.1061759,-1,3,23,-1,0,-5,0,-2,0,-211,134,74,15,23,222,187,5,0,188,181,194,183,1,8259
108.117048979,0,3,23,-1,0,11,-1,0,2,128,-155,128,22,20,228,187,5,0,191,190,183,182,1,8260
108.127156973,0,3,23,6,0,0,2,0,5,-64,147,183,19,23,226,187,5,0,176,197,187,186,1,8261
108.156164885,0,3,23,-6,0,2,0,0,0,199,-114,-7,27,17,220,187,5,0,203,172,184,187,1,8262
108.16620493,0,3,23,3,-4,-7,-1,-2,-2,-160,235,209,23,20,224,187,5,0,173,194,183,195,1,8263
108.177392006,0,3,23,0,2,8,1,0,0,-12,125,28,26,22,224,187,5,0,193,187,191,175,1,8264
108.206385851,0,3,23,-6,-8,1,-3,-2,4,123,48,54,23,24,228,187,5,0,196,178,171,201,1,8265
108.216161967,0,3,23,3,3,-5,-1,-2,-2,210,-167,173,28,21,228,187,5,0,173,195,201,177,1,8266
108.226485968,0,3,23,-10,1,0,-3,2,-2,165,-39,33,28,12,228,187,5,0,205,168,186,187,1,8267
108.255502939,0,3,23,9,1,-5,0,1,-2,-42,-156,119,21,6,235,187,5,0,161,208,190,187,1,8268
108.265578985,0,3,23,-5,0,4,1,1,0,-140,225,115,20,17,240,187,5,0,205,171,185,185,1,8269
108.276215077,0,3,23,9,-9,-6,1,-4,-1,-49,33,102,21,26,246,187,5,0,165,203,174,204,1,8270
108.304224014,0,3,23,2,-4,-3,5,-6,-5,13,-88,246,29,18,248,187,5,0,190,180,190,186,1,8271
108.315310002,0,3,22,2,-5,-7,2,-4,-5,223,-158,163,28,16,247,187,5,0,182,186,184,194,1,8272
108.326415062,0,3,22,0,3,-6,1,-1,-6,-14,-38,103,21,0,244,187,5,0,186,182,199,180,1,8273
108.355370999,0,3,22,0,5,-13,0,4,-9,-174,-106,179,13,3,239,187,5,0,181,181,197,187,1,8274
108.365920067,0,3,22,2,-9,2,1,-2,-5,71,65,124,13,7,246,187,5,0,183,191,166,205,1,8275
108.374392987,0,3,22,-13,4,3,-5,-2,3,-190,90,116,12,9,246,187,5,0,210,166,200,170,1,8276
108.403486014,1,3,22,2,0,8,-5,1,6,253,33,60,13,14,237,187,5,0,175,205,178,188,1,8277
108.414998055,1,3,22,-3,3,1,0,1,4,-70,-195,149,19,4,233,187,5,0,194,180,192,180,1,8278
108.424247027,1,3,22,12,1,4,4,2,2,104,-17,117,19,2,243,187,5,0,168,209,184,185,1,8279
108.452303887,1,3,22,-3,-7,3,4,-3,3,-66,9,245,16,0,237,187,5,0,204,172,172,198,1,8280
108.463387966,1,3,22,2,6,-2,0,0,0,98,-29,233,18,0,242,187,5,0,179,192,204,170,1,8281
108.477289915,1,3,22,0,-2,-1,1,1,-1,-65,154,58,20,3,232,187,5,0,186,185,177,198,1,8282
108.502192021,0,3,22,-15,6,-3,-7,1,-2,0,31,5,21,13,225,187,5,0,209,162,200,175,1,8283
108.512489081,0,4,22,8,-2,-1,-3,2,-2,-98,64,105,18,22,217,187,5,0,161,211,178,196,1,8284
108.523410082,1,4,22,-17,3,-11,-4,0,-6,-128,185,26,14,28,208,187,5,0,215,149,198,184,1,8285
108.551312924,1,4,22,3,-13,-3,-7,-5,-7,61,52,25,16,29,210,187,5,0,166,204,164,212,1,8286
108.564323902,1,3,22,-4,4,-8,0,-4,-5,-47,-192,-73,14,24,201,187,5,0,192,174,208,172,1,8287
108.572282076,1,3,22,4,-3,-10,0,0,-9,4,-60,87,18,17,207,187,5,0,172,193,182,199,1,8288
108.60769701,1,4,22,0,0,2,2,-1,-3,14,-103,104,18,14,201,187,5,0,191,185,189,182,1,8289
108.61293006,1,4,22,-10,-3,3,-5,-1,3,204,32,-28,22,17,196,187,5,0,205,171,180,190,1,8290
108.622246981,1,4,22,11,-2,-2,0,-2,0,52,128,29,23,25,197,187,5,0,159,212,187,188,1,8291
108.651221991,1,4,22,0,5,6,5,1,1,-112,-208,-233,21,21,188,187,5,0,199,180,193,174,1,8292
108.661273957,2,4,22,0,-9,9,0,-2,8,17,126,90,21,21,192,187,5,0,190,191,164,201,1,8293
108.672249079,2,4,22,-1,5,5,0,-1,7,121,218,181,22,21,191,187,5,0,191,186,201,168,1,8294
108.70025897,2,4,22,1,1,14,0,3,9,58,79,198,23,29,199,187,5,0,188,196,179,183,1,8295
108.711246968,2,4,23,5,0,4,3,1,9,12,185,207,19,33,200,187,5,0,181,195,185,185,1,8296
108.721198082,2,4,23,-1,5,1,1,3,2,69,26,173,20,40,198,187,5,0,195,180,193,179,1,8297
108.750273943,3,4,23,6,2,2,2,4,1,-43,-237,40,12,34,188,187,5,0,176,199,186,186,1,8298
108.760313034,3,4,23,3,-2,0,4,0,0,-247,-193,-175,11,26,182,187,5,0,187,185,180,194,1,8299
108.771403074,3,4,23,6,2,-7,4,0,-4,-51,-24,23,7,29,179,187,5,0,177,190,196,183,1,8300
108.799331904,3,4,23,0,-5,0,2,-1,-3,53,-149,96,10,22,177,187,5,0,192,181,176,198,1,8301
108.810467005,3,4,23,-1,5,9,0,0,4,-20,249,122,4,31,180,187,5,0,193,188,196,169,1,8302
108.820206881,4,4,23,-7,-1,5,-4,2,7,89,-210,227,11,20,174,187,5,0,198,180,177,191,1,8303
108.849313021,4,4,23,-2,-2,-2,-4,-2,1,-87,-16,18,9,16,168,187,5,0,183,188,184,191,1,8304
108.859530926,4,4,23,6,-4,3,2,-3,0,-167,158,44,2,19,167,187,5,0,176,200,181,189,1,8305
108.870414019,4,4,23,-9,-3,1,-1,-3,2,-184,27,40,-7,24,158,187,5,0,207,167,185,187,1,8306
108.898354054,4,3,23,12,-2,-12,1,-3,-5,18,9,16,-11,32,164,187,5,0,155,209,190,193,1,8307
108.913918972,4,3,23,-7,-3,-1,2,-3,-6,-10,-177,-86,-10,31,152,187,5,0,208,164,184,190,1,8308
108.919455052,4,3,23,12,1,-7,2,-1,-4,-63,93,88,-8,28,158,187,5,0,159,208,195,184,1,8309
108.948292017,5,3,23,-5,-14,-3,3,-6,-5,-75,-30,30,-9,13,150,187,5,0,204,166,165,210,1,8310
108.95845294,4,2,23,-10,4,0,-8,-4,-1,18,-174,103,-15,11,146,187,5,0,196,176,206,167,1,8311
108.969223976,4,2,23,14,-12,-5,1,-3,-2,-38,-6,231,-22,15,148,187,5,0,155,214,166,211,1,8312
108.998153925,4,2,23,-12,6,0,0,-2,-2,53,-122,-7,-20,19,145,187,5,0,217,157,206,167,1,8313
109.008609057,4,1,23,-11,0,7,-12,3,3,4,55,3,-16,23,147,187,5,0,197,182,180,188,1,8314
109.01850605,4,1,23,4,3,9,-3,2,8,103,23,165,-15,22,142,187,5,0,174,206,187,179,1,8315
109.047361851,4,1,23,-4,5,7,0,4,8,72,-84,188,-8,18,150,187,5,0,200,179,188,179,1,8316
109.059643984,5,1,23,7,0,4,1,2,5,254,-56,186,-8,16,159,187,5,0,174,203,182,187,1,8317
109.068361998,5,1,23,0,5,1,3,3,3,-59,-156,25,-8,17,156,187,5,0,193,181,194,178,1,8318
109.097308874,5,1,23,6,-1,-4,3,1,-1,-57,176,36,-12,21,148,187,5,0,176,194,181,196,1,8319
109.107326031,5,0,23,-2,-4,5,2,-3,0,-237,-153,251,-16,11,148,187,5,0,197,180,179,190,1,8320
109.121945858,5,0,23,11,4,0,4,0,2,48,57,18,-17,20,149,187,5,0,168,206,196,176,1,8321
109.146434069,5,0,23,-5,-1,1,3,1,1,-8,32,197,-16,17,152,187,5,0,205,169,180,192,1,8322
109.157197952,5,0,23,16,2,-13,5,0,-5,133,-12,195,-13,9,157,187,5,0,153,210,197,187,1,8323
109.167934895,5,0,23,-6,0,-8,4,1,-10,184,-52,199,-6,-6,159,187,5,0,207,159,188,191,1,8324
109.196418047,5,0,23,4,-4,-6,-1,-2,-7,25,-175,160,-2,-15,163,187,5,0,171,197,182,196,1,8325
109.20655489,4,0,23,-1,2,9,1,-1,1,18,-140,230,-3,-20,162,187,5,0,196,184,190,176,1,8326
109.217232943,4,0,23,-9,-2,11,-5,0,10,79,-150,150,0,-19,167,187,5,0,204,177,177,187,1,8327
109.246134997,4,0,23,11,-2,-7,0,-2,1,-3,-119,189,0,-20,170,187,5,0,159,208,188,191,1,8328
109.256217957,3,0,23,-7,-4,0,2,-3,-3,207,65,174,4,-9,178,187,5,0,207,167,181,191,1,8329
109.267294884,3,0,23,9,7,-2,1,1,0,-186,238,82,-5,-4,187,187,5,0,165,206,203,173,1,8330
109.295225859,3,0,23,3,-7,1,6,0,0,34,-247,100,-5,-14,189,187,5,0,189,185,168,204,1,8331
109.310129881,3,0,23,2,-3,-4,3,-5,-1,-138,154,132,-6,-5,198,187,5,0,184,185,189,188,1,8332
109.316586018,3,0,23,4,0,-3,3,-2,-3,197,-226,109,-1,-13,198,187,5,0,180,190,190,186,1,8333
109.345298052,3,0,23,-4,1,-6,0,0,-5,44,-10,204,-3,-26,199,187,5,0,194,173,191,187,1,8334
109.355440855,2,0,23,11,0,0,3,0,-2,116,14,155,-2,-34,198,187,5,0,166,207,185,188,1,8335
109.366736889,2,0,23,-10,-1,0,0,0,0,-123,-5,199,-5,-38,198,187,5,0,211,161,185,188,1,8336
109.397546053,2,0,22,12,9,-12,0,4,-6,119,104,147,-4,-36,197,187,5,0,155,209,206,176,1,8337
109.405294895,1,0,22,-8,-2,3,2,3,-4,-31,94,110,-4,-28,199,187,5,0,210,166,173,197,1,8338
109.415618897,1,0,22,13,9,0,2,3,1,-134,-60,129,-1,-25,213,187,5,0,159,213,204,169,1,8339
109.444443941,1,0,22,-7,-10,0,3,0,0,181,81,191,4,-22,211,187,5,0,209,164,163,211,1,8340
109.458754063,0,0,22,-2,-2,-1,-4,-6,0,114,137,154,5,-15,212,187,5,0,184,188,192,182,1,8341
109.465298891,0,0,22,4,0,-11,0,-1,-6,81,189,161,8,-16,220,187,5,0,173,191,192,190,1,8342
109.494199038,0,0,22,-8,0,-3,-2,0,-7,-159,70,-58,2,-9,212,187,5,0,202,169,189,187,1,8343
109.504684925,0,0,22,0,10,-2,-4,5,-2,-157,-25,129,0,-16,222,187,5,0,178,193,203,172,1,8344
109.51531291,0,0,22,-7,0,-8,-3,5,-5,-76,-54,125,2,-21,217,187,5,0,195,172,182,198,1,8345
109.543427944,0,0,22,8,7,1,0,3,-3,53,168,173,8,-18,221,187,5,0,169,206,197,175,1,8346
109.554859877,0,0,22,-4,0,-9,1,4,-3,-26,-26,78,7,-19,222,187,5,0,197,169,185,196,1,8347
109.564527035,0,0,22,3,0,-3,0,0,-6,70,31,60,16,-13,232,187,5,0,176,194,186,190,1,8348
109.593316078,0,0,22,4,-7,-1,4,-4,-2,-46,-127,-9,16,-19,223,187,5,0,182,190,177,198,1,8349
109.604264021,0,0,22,-11,-5,1,-3,-6,0,247,-245,107,24,-18,225,187,5,0,208,166,183,188,1,8350
109.61421299,0,0,22,4,0,12,-3,-2,7,-226,66,255,18,-12,229,187,5,0,175,208,186,176,1,8351
109.64317894,0,0,22,-5,-9,0,0,-4,6,-49,140,94,18,-8,226,187,5,0,199,174,172,201,1,8352
109.653240919,0,0,22,1,0,4,-2,-4,2,-140,154,135,13,-1,229,187,5,0,181,196,193,176,1,8353
109.664273977,0,0,22,-2,-3,-1,0,-1,1,250,2,172,19,3,233,187,5,0,190,181,181,193,1,8354
109.692300081,0,0,22,-4,10,4,-3,3,1,125,-220,73,20,-2,231,187,5,0,194,183,204,166,1,8355
109.706004858,0,0,22,5,-2,2,0,4,3,63,253,149,19,5,230,187,5,0,175,200,173,197,1,8356
109.713702917,0,1,22,-3,-3,13,0,-2,7,42,38,68,14,7,227,187,5,0,202,182,179,184,1,8357
109.742311955,0,1,22,6,9,1,1,3,7,-52,32,-11,14,19,226,187,5,0,175,200,202,170,1,8358
109.753324032,0,1,22,-9,-5,1,-1,1,1,47,-252,166,17,8,229,187,5,0,206,168,170,202,1,8359
109.764828921,0,1,22,15,5,-8,3,0,-3,-149,-17,142,19,11,227,187,5,0,152,214,203,177,1,8360
109.792243958,0,1,22,-10,-1,9,2,1,0,5,135,133,24,7,223,187,5,0,219,161,175,190,1,8361
109.80227685,0,1,23,-7,-3,0,-8,-2,5,-122,-73,97,21,4,221,187,5,0,188,185,182,191,1,8362
109.8132689,0,1,22,3,2,-3,-1,0,-1,100,177,72,27,9,224,187,5,0,174,196,195,180,1,8363
109.841495991,0,1,22,-11,3,-9,-4,3,-6,-72,-158,-91,14,13,217,187,5,0,203,162,194,187,1,8364
109.853191853,0,1,22,10,0,11,0,1,1,59,-89,237,15,15,219,187,5,0,166,217,178,185,1,8365
109.86233306,0,1,23,-8,3,8,1,1,10,-124,83,119,11,20,216,187,5,0,211,169,188,178,1,8366
109.891203881,0,2,23,7,0,14,0,1,11,-19,39,180,9,32,217,187,5,0,174,210,179,182,1,8367
109.901396036,0,2,23,-8,2,2,0,1,8,23,161,108,10,39,215,187,5,0,206,168,189,182,1,8368
109.912155867,0,2,23,3,-1,-3,-2,0,0,-135,186,223,1,35,216,187,5,0,173,198,183,193,1,8369
109.940548897,0,2,23,4,-14,-5,3,-8,-4,-44,-151,246,5,25,214,187,5,0,181,188,168,210,1,8370
109.951335907,1,1,23,-8,-4,-6,-1,-9,-5,-122,122,166,1,35,215,187,5,0,200,168,195,183,1,8371
109.96174407,1,1,23,5,0,0,-1,-1,-3,130,-81,163,7,29,216,187,5,0,171,202,190,183,1,8372
109.990402937,1,1,23,-2,-5,1,1,-2,0,153,124,45,6,38,214,187,5,0,196,178,178,194,1,8373
110.001497984,1,1,23,7,-4,7,2,-4,4,-87,112,84,3,47,218,187,5,0,176,203,182,185,1,8374
110.011347056,2,1,23,-5,-2,-2,0,-3,2,95,22,241,3,47,214,187,5,0,200,170,187,189,1,8375
110.042536974,2,1,23,2,8,5,-1,2,1,-140,10,54,2,54,210,187,5,0,180,197,199,170,1,8376
110.050238848,2,1,23,0,6,0,1,7,2,-16,-164,234,-7,41,212,187,5,0,189,184,189,184,1,8377
110.06130004,3,1,23,2,-1,-2,0,2,-1,-23,63,36,-7,47,217,187,5,0,182,189,181,194,1,8378
110.089357853,3,1,23,-7,8,-1,-2,3,-2,104,-124,161,-1,45,211,187,5,0,199,173,201,173,1,8379
110.100144863,3,1,23,10,-8,0,1,0,0,51,154,51,-4,47,214,187,5,0,165,209,166,206,1,8380
110.110487938,3,1,23,6,5,3,8,-1,2,133,225,212,-3,49,215,187,5,0,187,189,200,171,1,8381
110.139203072,4,1,23,-3,-3,7,1,0,5,-9,-31,245,-6,43,211,187,5,0,200,179,174,193,1,8382
110.149427891,4,1,23,8,0,0,2,-1,3,20,72,174,-1,43,223,187,5,0,170,202,190,183,1,8383
110.163972855,4,1,23,-9,2,-6,0,1,-3,1,145,104,2,54,216,187,5,0,206,162,192,186,1,8384
110.192520857,4,1,23,11,3,-6,0,2,-6,116,-25,152,7,55,223,187,5,0,159,208,192,186,1,8385
110.199605942,5,1,23,-2,2,6,4,2,0,-35,-88,253,-1,48,225,187,5,0,201,177,186,182,1,8386
110.20936203,5,1,23,-8,2,0,-5,2,3,170,211,204,3,54,222,187,5,0,197,177,187,185,1,8387
110.239351034,5,1,23,8,3,-4,0,2,-1,-189,-1,93,-3,54,223,187,5,0,166,204,192,185,1,8388
110.249175072,6,1,23,-2,0,3,3,1,0,44,213,235,5,62,229,187,5,0,198,178,182,188,1,8389
110.259757996,6,1,23,15,7,1,6,3,2,-133,35,61,-3,69,234,187,5,0,162,212,198,174,1,8390
110.289947987,6,1,23,0,-9,-7,7,0,-3,21,-42,70,2,66,230,187,5,0,198,169,169,210,1,8391
110.298515082,6,1,23,-3,0,3,-2,-4,-2,-66,181,147,1,67,231,187,5,0,192,184,193,177,1,8392
110.309203863,7,0,23,0,-5,4,-1,-2,4,-39,83,230,-1,66,233,187,5,0,185,191,177,192,1,8393
110.337420941,7,0,23,-4,-9,1,-2,-7,2,86,96,17,0,62,229,187,5,0,194,180,176,197,1,8394
110.348237992,7,0,23,0,6,-6,-2,-1,-2,-13,200,200,-3,72,239,187,5,0,181,187,206,172,1,8395
110.359225989,7,0,23,1,-4,-2,0,0,-4,162,4,165,0,66,239,187,5,0,183,188,176,199,1,8396
110.387300968,8,0,23,-6,5,-6,-2,0,-4,-43,-169,139,-9,61,235,187,5,0,195,173,201,176,1,8397
110.398191929,8,0,23,-1,2,9,-4,4,1,25,-135,54,-7,50,236,187,5,0,187,193,182,183,1,8398
110.409506083,8,0,23,13,-4,0,6,0,4,17,-147,128,-7,53,242,187,5,0,164,208,178,195,1,8399
110.438346863,8,0,23,-5,0,0,4,-2,0,32,-67,-3,-3,51,238,187,5,0,206,166,189,184,1,8400
110.447180033,8,0,23,2,-4,-14,-1,-2,-7,-51,-25,107,-11,47,238,187,5,0,173,188,185,199,1,8401
110.458369017,8,0,23,-3,0,-7,0,-1,-11,75,24,147,-6,56,239,187,5,0,191,176,195,184,1,8402
110.48664093,8,0,23,-7,2,-4,-5,1,-6,125,138,31,-12,55,231,187,5,0,192,177,192,185,1,8403
110.49909401,8,0,23,3,2,4,-2,2,0,237,111,251,2,69,240,187,5,0,178,199,185,184,1,8404
110.507564068,9,0,23,-7,12,13,-2,7,9,-114,29,24,-2,71,235,187,5,0,206,178,198,165,1,8405
110.536261082,9,0,23,5,0,8,-1,6,10,250,65,52,7,77,239,187,5,0,175,205,173,193,1,8406
110.547327996,9,0,23,-6,1,-1,0,0,3,40,-116,56,8,67,243,187,5,0,200,172,189,185,1,8407
110.559642077,9,0,23,5,-5,-1,0,-2,-1,-37,-181,59,7,59,242,187,5,0,172,200,178,197,1,8408
110.586284876,9,0,23,8,3,-4,7,-1,-3,-135,8,67,7,54,231,187,5,0,177,192,198,179,1,8409
110.596307993,10,0,23,0,0,-5,4,1,-5,165,130,142,12,61,235,187,5,0,190,178,185,193,1,8410
110.607334852,10,0,23,9,4,-5,5,1,-5,41,2,203,16,58,230,187,5,0,171,198,196,181,1,8411
110.635913849,10,0,23,-6,0,0,1,1,-2,-47,-103,131,11,58,229,187,5,0,204,169,182,191,1,8412
110.64616704,10,0,22,2,5,-1,-1,2,0,-88,-47,41,5,53,222,187,5,0,176,195,195,179,1,8413
110.656419039,10,0,22,0,0,-2,1,2,-2,-74,-47,12,6,43,220,187,5,0,188,182,184,192,1,8414
110.68551302,10,0,22,0,-6,-8,0,-3,-5,233,-5,178,9,36,219,187,5,0,182,183,180,200,1,8415
110.696423054,10,0,22,7,0,-5,3,-3,-7,98,-69,81,15,21,226,187,5,0,173,195,193,185,1,8416
110.70677495,10,0,22,0,-8,-7,3,-4,-6,1,-120,135,22,22,230,187,5,0,190,177,177,202,1,8417
110.735153914,10,1,22,-3,-6,-2,-1,-7,-4,87,-177,58,25,10,230,187,5,0,191,180,186,189,1,8418
110.745348931,9,1,22,-4,5,8,-4,0,2,-144,184,181,19,17,231,187,5,0,193,186,196,171,1,8419
110.756346941,9,1,22,11,-7,-5,3,-1,1,19,-119,151,18,11,227,187,5,0,164,205,174,204,1,8420
110.784285069,9,1,22,-7,1,0,1,-2,-2,98,-177,90,17,1,224,187,5,0,208,166,195,178,1,8421
110.79537797,9,1,22,-13,-2,-1,-10,0,0,-46,-141,173,16,-1,229,187,5,0,199,173,182,192,1,8422
110.805366993,8,1,22,-1,0,5,-7,-1,2,-78,-83,-30,13,-5,217,187,5,0,181,197,186,182,1,8423
110.834255934,8,1,22,-14,11,2,-8,5,4,67,141,114,15,0,224,187,5,0,208,167,202,168,1,8424
110.844482899,8,1,22,3,-3,6,-5,4,4,15,105,244,19,10,220,187,5,0,171,207,170,198,1,8425
110.855166912,7,1,22,-11,13,4,-3,5,5,110,114,-52,29,15,212,187,5,0,209,168,208,161,1,8426
110.884371996,7,2,22,8,0,12,-1,6,8,-240,-94,86,19,7,209,187,5,0,169,214,169,194,1,8427
110.898100853,7,2,23,-3,0,3,2,0,7,-1,226,96,23,13,203,187,5,0,200,175,186,184,1,8428
110.905201912,7,2,23,0,-2,3,-1,-1,3,24,39,157,17,9,201,187,5,0,185,191,181,189,1,8429
110.933390856,7,2,23,11,-2,-1,5,-2,1,-7,132,178,20,11,204,187,5,0,169,203,185,189,1,8430
110.944433928,7,2,23,-9,1,7,1,0,3,-54,62,134,18,14,205,187,5,0,213,166,188,179,1,8431
110.958425045,7,2,23,2,5,8,-3,3,8,96,8,86,22,16,210,187,5,0,178,201,190,176,1,8432
110.983330965,7,2,23,-5,-3,4,-1,0,6,21,151,146,30,17,208,187,5,0,198,179,175,195,1,8433
110.993257046,7,2,23,3,5,4,0,0,4,45,85,187,22,17,212,187,5,0,178,198,196,173,1,8434
111.004348994,6,2,23,-1,-4,-2,1,0,0,-77,171,148,14,16,205,187,5,0,191,180,177,198,1,8435
111.032685042,6,2,23,8,-2,-5,3,-3,-4,18,-23,19,11,16,201,187,5,0,170,198,189,189,1,8436
111.043277979,7,2,23,8,-3,6,8,-3,0,-27,67,186,18,22,202,187,5,0,183,194,180,188,1,8437
111.053395033,7,2,23,1,6,-2,5,1,2,100,220,128,19,31,204,187,5,0,190,181,200,175,1,8438
111.082309008,7,3,23,12,-8,-1,7,-1,-1,189,173,126,24,39,204,187,5,0,169,203,169,206,1,8439
111.092668057,7,3,23,2,3,0,7,-2,0,-3,132,238,23,44,210,187,5,0,193,181,200,173,1,8440
111.103219986,7,3,23,10,-9,-6,6,-2,-3,-129,-4,23,21,38,214,187,5,0,171,197,171,207,1,8441
111.132297993,7,3,23,-13,1,-3,-1,-4,-5,22,14,13,20,31,217,187,5,0,213,157,198,177,1,8442
111.142350912,7,3,23,-8,0,9,-10,0,2,-101,197,224,14,33,222,187,5,0,192,188,181,185,1,8443
111.152268887,7,3,23,-4,6,6,-6,2,7,94,216,118,10,29,219,187,5,0,189,189,193,175,1,8444
111.181491852,7,3,23,-5,1,7,-5,3,6,119,-132,247,16,25,224,187,5,0,193,186,181,186,1,8445
111.192981959,7,3,23,3,-4,3,0,-1,5,-62,227,221,8,22,222,187,5,0,178,198,177,193,1,8446
111.202867985,7,3,23,-3,2,12,0,0,7,218,207,71,13,31,223,187,5,0,199,184,189,174,1,8447
111.23812604,7,3,23,10,-2,4,3,0,8,-157,81,127,10,37,224,187,5,0,171,206,179,190,1,8448
111.241262913,7,3,23,-4,-9,8,2,-6,6,23,-104,106,20,34,232,187,5,0,205,175,170,196,1,8449
111.252261877,7,3,23,-2,13,4,-3,1,6,-146,162,103,12,35,224,187,5,0,189,188,213,156,1,8450
111.28035903,7,3,23,5,2,5,1,8,4,9,-238,244,12,29,225,187,5,0,178,199,178,191,1,8451
111.291535855,7,3,23,-15,-7,0,-5,-2,2,45,127,101,14,35,225,187,5,0,214,159,173,200,1,8452
111.301295996,7,3,23,3,5,5,-6,0,3,-247,178,60,10,40,225,187,5,0,171,207,199,170,1,8453
111.330206871,7,3,23,-4,-5,-6,0,0,0,19,-28,6,19,47,225,187,5,0,194,174,177,201,1,8454
111.340338946,7,3,23,3,11,-1,0,2,-4,40,100,87,14,56,223,187,5,0,176,196,208,166,1,8455
111.351214886,7,3,23,5,0,1,4,5,0,7,-202,106,18,59,217,187,5,0,182,193,178,194,1,8456
111.37933588,8,3,23,3,3,5,4,2,3,9,157,97,18,66,216,187,5,0,189,189,189,179,1,8457
111.390178919,8,3,23,14,-3,-7,8,0,0,115,124,25,19,74,215,187,5,0,165,202,181,197,1,8458
111.400361061,8,3,23,-2,4,-6,5,0,-7,-42,70,30,21,71,211,187,5,0,200,168,199,180,1,8459
111.429444075,9,3,23,7,1,-6,2,3,-6,-125,-194,22,18,69,208,187,5,0,171,197,187,191,1,8460
111.439306021,9,3,23,-3,3,-8,2,2,-7,68,-65,-4,17,66,206,187,5,0,194,173,193,186,1,8461
111.450186968,9,3,23,11,5,-5,4,4,-7,-128,2,145,15,69,199,187,5,0,164,204,194,184,1,8462
111.479302883,10,3,23,-13,-4,-7,-1,0,-6,116,-98,32,20,69,207,187,5,0,213,153,178,201,1,8463
111.489748955,10,3,23,-3,1,-4,-8,-1,-6,-85,0,134,16,59,207,187,5,0,179,191,194,182,1,8464
111.503314018,10,3,23,4,-2,-6,0,0,-5,117,-14,-39,12,49,200,187,5,0,175,193,185,194,1,8465
111.528347969,10,3,23,-9,0,1,-2,-1,-2,-46,25,251,8,47,208,187,5,0,204,170,187,184,1,8466
111.540531874,10,3,23,5,-2,-4,-1,-1,-1,-58,117,119,13,53,215,187,5,0,169,201,184,192,1,8467
111.549283982,10,3,23,-5,-2,5,0,-2,0,128,-54,-197,16,46,208,187,5,0,202,175,183,186,1,8468
111.578248978,10,3,23,-5,-4,-1,-5,-3,2,-30,-30,26,15,37,211,187,5,0,189,183,182,192,1,8469
111.588509083,10,3,23,0,-4,-4,-2,-4,-2,-40,-102,131,14,32,203,187,5,0,181,189,185,191,1,8470
111.599176884,10,3,23,-9,-4,-2,-4,-4,-3,41,-219,221,23,24,205,187,5,0,199,172,184,190,1,8471
111.627611876,10,3,23,8,12,-1,0,3,-1,-109,165,80,18,22,199,187,5,0,165,207,209,165,1,8472
111.638138056,10,3,23,-7,-11,-1,0,0,-1,237,-65,88,23,17,204,187,5,0,205,167,160,214,1,8473
111.648238898,10,3,23,3,15,2,-1,2,0,59,98,107,23,23,195,187,5,0,175,200,219,153,1,8474
111.677347899,9,3,23,1,-7,1,2,4,1,41,-121,84,33,16,194,187,5,0,188,187,161,211,1,8475
111.687350035,9,4,23,-6,6,1,-2,0,1,-26,151,8,32,20,187,187,5,0,197,176,203,169,1,8476
111.698435068,9,4,23,1,1,11,-2,4,6,56,46,108,34,26,185,187,5,0,183,199,178,186,1,8477
111.726580858,9,4,23,-4,0,9,-1,0,10,173,-115,149,35,18,192,187,5,0,199,182,181,185,1,8478
111.737323046,9,4,23,9,-2,-9,2,-1,0,-249,-34,150,24,13,193,187,5,0,165,200,187,194,1,8479
111.747529984,9,4,23,-6,0,-4,1,-1,-7,244,-16,-9,31,2,186,187,5,0,202,167,190,187,1,8480
111.776180029,9,4,23,11,4,0,2,2,-2,-245,225,170,28,15,190,187,5,0,164,209,194,179,1,8481
111.786354065,9,4,23,7,-6,8,9,0,4,147,190,142,31,19,193,187,5,0,189,192,170,196,1,8482
111.797366858,9,5,23,-1,4,1,3,0,5,-237,220,155,28,20,191,187,5,0,195,179,198,174,1,8483
111.826200962,8,5,23,3,2,-3,1,3,0,-218,101,163,20,17,193,187,5,0,179,191,188,187,1,8484
111.836500883,8,5,23,-8,0,10,-2,1,3,-217,88,214,11,22,192,187,5,0,206,175,181,184,1,8485
111.850754976,8,5,23,1,0,1,-3,0,6,-32,123,107,12,26,189,187,5,0,178,197,185,187,1,8486
111.877260924,8,5,23,-10,-2,8,-4,-1,5,254,14,224,13,21,186,187,5,0,207,173,179,187,1,8487
111.885357857,8,5,23,0,-2,-1,-5,-2,3,-190,58,238,12,21,183,187,5,0,176,195,185,189,1,8488
111.896301031,8,4,23,-2,-2,-3,-1,-2,-2,84,-142,163,14,20,178,187,5,0,189,181,186,190,1,8489
111.925359011,8,4,23,-9,-2,5,-5,-2,0,-155,-16,232,13,9,181,187,5,0,200,178,182,186,1,8490
111.938974858,8,4,23,0,2,0,-4,0,3,231,184,13,19,19,182,187,5,0,178,195,192,180,1,8491
111.945440054,8,4,23,-6,-1,3,-3,0,2,-52,-132,105,17,13,182,187,5,0,199,177,181,190,1,8492
111.974256039,7,4,23,13,7,-2,3,2,0,-137,-29,63,19,8,182,187,5,0,160,211,200,175,1,8493
111.985476017,7,5,23,-8,0,3,2,3,0,113,-184,230,15,4,181,187,5,0,211,164,179,192,1,8494
111.995426893,7,5,23,1,0,5,-3,0,4,-67,-113,-41,13,-1,178,187,5,0,180,197,186,183,1,8495
112.02439785,7,5,23,7,7,-6,4,4,0,128,221,189,9,9,186,187,5,0,174,194,200,178,1,8496
112.038280964,7,5,23,-10,-9,4,-1,0,0,-12,198,164,9,10,182,187,5,0,210,167,164,205,1,8497
112.045258999,7,4,23,1,-1,0,-4,-5,2,-75,10,187,4,7,179,187,5,0,176,198,191,181,1,8498
112.073267937,6,4,23,-2,0,7,0,0,3,-18,-25,162,4,-1,182,187,5,0,195,184,185,182,1,8499
112.084357977,6,4,23,0,0,-4,-1,0,1,46,111,114,9,6,191,187,5,0,181,188,187,189,1,8500
112.094369889,6,4,23,0,6,-1,0,2,-3,229,-72,75,13,12,193,187,5,0,186,186,197,177,1,8501
112.123275995,6,4,23,4,6,0,2,6,0,-203,-46,230,11,5,195,187,5,0,180,193,191,181,1,8502
112.133538962,6,4,23,6,4,-6,5,5,-3,-75,-8,37,6,1,195,187,5,0,178,190,191,188,1,8503
112.144499064,6,4,23,-6,-2,1,0,1,-2,-142,-230,27,5,-4,186,187,5,0,203,171,178,193,1,8504
112.172504902,6,4,23,8,3,-2,0,0,0,10,240,111,2,1,190,187,5,0,168,203,195,180,1,8505
112.184638977,5,4,23,0,6,-2,3,5,-2,-234,-50,8,-2,-6,184,187,5,0,193,178,194,181,1,8506
112.193376065,5,4,23,15,-4,-10,7,1,-6,101,-28,101,1,-10,184,187,5,0,159,205,179,202,1,8507
112.222434998,5,4,23,-7,0,-9,3,-1,-10,-33,-109,126,-2,-11,192,187,5,0,206,159,195,186,1,8508
112.232321024,5,4,23,-10,-3,1,-9,-1,-4,85,176,-8,0,0,184,187,5,0,197,177,180,192,1,8509
112.243227005,4,3,23,8,5,-3,-1,1,-1,118,121,187,4,11,186,187,5,0,164,206,200,176,1,8510
112.272177935,4,3,23,-19,-9,-1,-5,-1,-2,4,-108,-21,-2,14,180,187,5,0,220,150,168,206,1,8511
112.282450915,4,3,23,0,2,2,-9,-3,0,-101,87,167,-2,12,188,187,5,0,170,205,196,175,1,8512
112.292268992,4,3,23,-4,-6,0,-2,-2,1,-86,-65,200,-10,12,185,187,5,0,194,179,174,198,1,8513
112.321263075,4,3,23,-9,-3,15,-7,-5,8,28,107,249,-11,6,188,187,5,0,203,183,180,180,1,8514
112.331534863,4,3,23,-2,7,7,-5,1,11,98,197,172,-9,14,190,187,5,0,185,194,197,170,1,8515
112.342207909,4,2,23,-5,-4,1,-4,1,4,130,19,238,-6,11,196,187,5,0,193,180,173,199,1,8516
112.372158051,4,2,23,13,6,0,3,0,0,-56,-14,138,-8,3,197,187,5,0,162,212,201,172,1,8517
112.382065058,4,2,23,-4,-4,-4,4,1,-2,176,-135,84,-8,2,195,187,5,0,203,167,175,201,1,8518
112.39211607,4,2,23,8,-12,-6,2,-8,-5,14,-36,166,-2,-3,196,187,5,0,167,201,174,205,1,8519
112.420561075,4,2,23,4,3,-1,6,-4,-4,82,219,138,-6,8,199,187,5,0,187,185,203,171,1,8520
112.431204081,4,2,23,-4,-5,0,0,0,-1,-5,-129,36,0,0,196,187,5,0,196,177,175,198,1,8521
112.441251993,3,2,23,4,6,-5,0,0,-2,-99,35,8,-6,-4,193,187,5,0,175,194,203,174,1,8522
112.47061491,3,2,23,-4,8,3,0,7,0,80,80,213,7,-7,194,187,5,0,198,178,192,178,1,8523
112.480336905,3,2,23,12,4,-1,3,6,1,13,-54,192,13,-11,195,187,5,0,164,208,187,187,1,8524
112.491415024,3,2,23,-1,3,-1,5,4,-1,43,-187,235,20,-18,195,187,5,0,198,174,189,185,1,8525
112.522412062,3,2,23,10,0,-4,4,1,-2,-48,-81,238,13,-29,199,187,5,0,168,201,185,192,1,8526
112.530263901,2,2,23,1,5,-8,5,2,-6,0,-165,86,7,-34,202,187,5,0,190,176,198,182,1,8527
112.54042387,2,2,23,6,-7,-6,3,-1,-7,-75,-199,95,9,-40,198,187,5,0,175,193,174,205,1,8528
112.569344044,2,2,23,0,-4,-5,3,-5,-6,156,1,69,5,-37,202,187,5,0,189,179,189,189,1,8529
112.580535889,1,2,23,-3,2,2,-1,0,-1,-173,-28,172,4,-31,201,187,5,0,193,182,193,178,1,8530
112.590415955,1,2,23,2,4,0,0,3,0,243,15,89,5,-29,196,187,5,0,180,192,191,182,1,8531
112.619291067,1,2,23,-6,-1,2,-2,1,0,61,-127,140,7,-28,197,187,5,0,198,177,179,192,1,8532
112.629349947,0,2,23,-1,-4,-2,-3,-3,0,24,155,187,12,-24,206,187,5,0,182,189,182,193,1,8533
112.640944958,0,2,23,-1,3,7,-1,0,2,52,-124,36,10,-22,202,187,5,0,191,188,192,175,1,8534
112.66831708,0,2,23,-9,-10,0,-5,-3,3,-151,204,204,8,-14,208,187,5,0,198,174,169,204,1,8535
112.679324866,0,2,23,0,3,16,-4,-3,8,52,200,71,6,-15,198,187,5,0,184,202,194,166,1,8536
112.689296961,0,2,23,-5,-3,0,-2,0,8,-185,5,114,2,-20,197,187,5,0,195,178,178,195,1,8537
112.718172074,0,2,23,12,4,1,3,0,0,78,44,121,6,-19,195,187,5,0,164,210,195,177,1,8538
112.728275061,0,2,23,-3,-5,-10,4,0,-4,-181,33,71,1,-11,200,187,5,0,198,166,179,203,1,8539
112.739258051,0,2,23,-5,-2,-5,-4,-4,-7,107,97,52,3,-11,198,187,5,0,190,179,189,188,1,8540
112.767633915,0,2,23,7,6,7,0,1,1,36,114,24,5,-7,203,187,5,0,174,205,196,171,1,8541
112.778333903,0,2,23,-16,-12,-1,-4,-3,3,226,-107,227,15,-2,203,187,5,0,216,156,162,212,1,8542
112.788256884,0,2,23,12,9,1,-1,-1,0,-91,-127,255,15,1,202,187,5,0,155,219,211,161,1,8543
112.817440987,0,2,23,-3,-4,3,4,2,2,117,14,-18,21,7,201,187,5,0,203,173,170,200,1,8544
112.828139067,0,2,23,-4,5,2,-3,0,3,145,-45,244,25,0,204,187,5,0,191,184,198,173,1,8545
112.83840394,0,2,23,3,3,3,0,4,3,-9,111,105,30,10,207,187,5,0,179,196,185,185,1,8546
112.867213011,0,2,23,-4,0,-3,0,1,0,-39,-9,133,27,11,208,187,5,0,195,176,186,190,1,8547
112.877663851,0,2,23,7,5,4,1,2,0,-41,206,145,27,18,214,187,5,0,174,203,192,177,1,8548
112.88854003,0,2,23,-5,-1,-6,1,1,0,158,-100,121,28,12,224,187,5,0,198,170,183,195,1,8549
112.916265965,0,3,23,9,4,1,2,1,-2,-105,-15,71,23,2,228,187,5,0,168,206,194,178,1,8550
112.927252054,0,3,23,0,3,2,5,3,1,77,-49,219,25,3,234,187,5,0,196,179,187,185,1,8551
112.9372859,0,3,23,13,0,-4,6,1,0,-74,-85,245,25,0,229,187,5,0,165,204,184,192,1,8552
112.966400862,0,3,23,-6,-2,-1,3,-1,-2,6,14,158,28,1,228,187,5,0,206,166,183,191,1,8553
112.97874403,0,3,23,-2,-6,3,-4,-4,1,-35,-104,165,26,-3,226,187,5,0,187,189,178,192,1,8554
112.987273932,0,3,23,0,6,10,-1,0,6,18,104,163,24,-6,232,187,5,0,187,194,198,167,1,8555
113.016169071,0,3,23,-10,-13,5,-5,-3,7,243,110,96,27,-4,235,187,5,0,205,172,159,210,1,8556
113.026360989,0,3,24,-3,13,12,-7,0,8,-43,101,3,27,5,238,187,5,0,188,195,212,151,1,8557
113.037955046,0,3,24,-8,-2,7,-6,5,9,105,-12,185,25,8,241,187,5,0,199,180,169,199,1,8558
113.065913916,0,3,24,6,1,-8,0,0,0,-219,17,60,20,16,232,187,5,0,166,200,194,186,1,8559
113.076184035,0,3,23,-2,-5,-3,2,-2,-6,9,-99,17,18,8,235,187,5,0,195,175,178,198,1,8560
113.086591959,0,3,23,4,-5,-2,1,-5,-2,-222,-20,157,12,10,238,187,5,0,176,195,184,191,1,8561
113.115308047,0,3,23,11,6,2,8,0,0,134,240,122,18,15,234,187,5,0,175,200,199,171,1,8562
113.125380039,0,3,23,-6,-8,-7,2,0,-2,27,-129,93,10,10,231,187,5,0,203,164,172,207,1,8563
113.136381865,0,3,23,0,0,-5,-3,-3,-6,-80,39,104,8,13,229,187,5,0,177,191,195,182,1,8564
113.164226055,0,3,23,-1,3,1,0,1,-1,187,-123,-79,12,14,221,187,5,0,190,184,190,181,1,8565
113.175271988,0,3,23,-6,3,4,-4,3,3,233,100,250,25,25,222,187,5,0,197,179,187,182,1,8566
113.185376883,0,3,23,1,3,7,-2,3,6,-251,22,-9,19,30,213,187,5,0,182,197,185,182,1,8567
113.214283943,0,3,23,-1,3,3,0,3,5,107,68,69,23,37,219,187,5,0,191,185,189,182,1,8568
113.225142002,1,4,23,3,0,1,1,1,2,51,-75,128,21,35,214,187,5,0,181,193,183,189,1,8569
113.235326052,1,4,24,-4,6,6,0,3,4,-146,-206,99,22,30,212,187,5,0,198,180,194,174,1,8570
113.264194012,1,4,24,7,-3,4,1,1,5,21,87,224,16,26,215,187,5,0,173,203,174,196,1,8571
113.274339915,1,4,24,-2,13,2,2,4,3,123,59,252,18,30,218,187,5,0,198,177,208,163,1,8572
113.289592028,2,4,24,13,-5,-8,5,3,-2,51,-172,149,18,22,211,187,5,0,161,206,171,209,1,8573
113.313377857,2,4,24,-6,-1,-6,3,-3,-7,-183,83,46,12,27,217,187,5,0,205,163,191,187,1,8574
113.324455977,2,4,24,0,-11,2,-3,-6,-2,23,4,233,17,22,218,187,5,0,183,192,169,202,1,8575
113.334363938,2,4,24,2,6,-10,0,-2,-4,-50,94,165,14,26,220,187,5,0,178,187,210,171,1,8576
113.363271952,2,4,23,-4,-8,-5,-1,0,-8,165,-249,9,23,20,224,187,5,0,194,175,171,206,1,8577
113.373529911,2,4,23,0,2,-2,-2,-3,-3,33,-80,53,22,16,222,187,5,0,183,189,197,178,1,8578
113.384449005,2,4,23,-7,0,-4,-4,0,-3,252,-91,96,33,13,223,187,5,0,196,174,185,191,1,8579
113.413219929,2,4,23,0,-7,1,-3,-4,-1,-166,-83,-40,26,9,214,187,5,0,180,194,175,197,1,8580
113.423264027,2,4,23,-6,0,-3,-3,-3,-1,70,-89,99,20,4,210,187,5,0,195,175,196,180,1,8581
113.434216976,2,4,23,4,-9,-2,0,-4,-3,29,39,79,15,7,206,187,5,0,172,198,173,202,1,8582
113.462409973,2,4,23,3,10,1,4,0,0,102,19,209,20,11,205,187,5,0,186,188,210,162,1,8583
113.473161936,2,4,23,-9,3,6,-3,7,4,-100,-69,-10,15,9,205,187,5,0,206,173,181,187,1,8584
113.483314991,2,4,23,10,-1,0,0,1,3,95,19,54,13,11,207,187,5,0,163,209,182,192,1,8585
113.512197018,2,4,23,-1,1,-3,4,0,-2,163,1,255,18,8,211,187,5,0,195,174,191,185,1,8586
113.522315026,2,4,23,0,-1,0,0,0,-1,208,181,249,24,13,207,187,5,0,184,189,183,189,1,8587
113.533694029,2,4,23,3,3,4,2,1,2,-44,-27,54,24,0,198,187,5,0,184,192,191,178,1,8588
113.562098026,2,4,23,0,0,-3,1,1,0,-134,207,62,17,8,197,187,5,0,189,181,185,190,1,8589
113.57258606,2,4,23,4,-5,6,1,-2,1,-140,-45,197,16,7,194,187,5,0,182,197,176,192,1,8590
113.582329035,2,4,23,-1,13,0,1,4,3,-48,126,198,13,18,193,187,5,0,193,180,210,163,1,8591
113.61125803,2,4,23,4,-2,3,1,5,1,130,193,127,18,25,197,187,5,0,179,196,171,199,1,8592
113.621312857,2,4,23,3,8,-6,3,3,-1,-175,-110,16,13,22,193,187,5,0,183,184,205,174,1,8593
113.632230997,2,4,23,9,2,4,6,5,-1,154,120,47,18,28,197,187,5,0,177,199,181,189,1,8594
113.660320997,3,4,23,0,1,0,4,1,2,-78,-202,173,15,20,190,187,5,0,195,178,186,187,1,8595
113.671421051,3,4,23,0,0,-3,0,0,-2,157,81,211,13,19,193,187,5,0,186,184,188,188,1,8596
113.68124485,3,4,23,0,0,-6,0,0,-5,105,-82,133,17,8,190,187,5,0,184,184,190,188,1,8597
113.711648941,3,4,23,-11,1,-4,-6,1,-5,-94,-56,-21,12,7,179,187,5,0,202,167,191,186,1,8598
113.720324993,3,4,23,7,2,-6,-2,2,-5,-62,113,17,16,10,184,187,5,0,163,205,191,188,1,8599
113.731275082,3,4,23,-9,5,4,-1,3,0,-44,84,127,15,14,180,187,5,0,209,168,191,178,1,8600
113.759371996,3,4,23,1,-6,-4,-4,0,0,117,109,143,23,24,173,187,5,0,175,195,173,203,1,8601
113.771940947,3,4,23,-3,3,2,-1,-1,0,-34,-65,6,19,16,177,187,5,0,194,181,196,175,1,8602
113.780498028,3,4,23,-3,-12,-6,-3,-4,-1,-53,139,112,17,23,184,187,5,0,186,181,167,211,1,8603
113.809352875,3,4,23,-1,-2,6,-2,-7,0,56,69,147,20,30,191,187,5,0,188,190,190,178,1,8604
113.819814921,3,4,23,-2,-5,-3,-2,-4,1,1,179,16,16,38,200,187,5,0,188,182,182,194,1,8605
113.830340862,3,4,23,4,-9,-8,0,-7,-5,124,213,144,13,34,204,187,5,0,174,193,181,199,1,8606
113.85828805,3,4,23,0,1,4,2,-3,-2,-34,-184,-52,18,29,203,187,5,0,193,183,195,175,1,8607
113.869396925,3,4,23,-10,-4,-6,-5,-1,-1,50,83,13,23,29,201,187,5,0,199,169,181,197,1,8608
113.879209042,4,4,23,0,-2,5,-5,-3,0,-58,-12,213,21,24,203,187,5,0,180,198,184,184,1,8609
113.908645869,4,4,23,-5,8,0,-2,2,3,141,156,111,28,33,204,187,5,0,195,179,201,172,1,8610
113.919226885,4,4,23,-2,-13,6,-3,-2,3,30,-163,122,28,27,201,187,5,0,188,190,157,211,1,8611
113.929157019,4,4,23,1,7,3,0,-2,5,-79,17,255,23,26,201,187,5,0,183,193,208,163,1,8612
113.958539963,4,4,23,1,-12,-2,1,-2,0,61,61,182,23,32,209,187,5,0,185,186,163,212,1,8613
113.968667984,4,4,23,12,0,0,6,-6,-1,-147,-27,219,24,29,206,187,5,0,169,203,196,177,1,8614
113.979295016,4,4,23,-1,-1,-2,5,-1,-1,76,98,221,25,38,213,187,5,0,198,174,185,190,1,8615
114.007375002,5,4,23,8,3,-1,3,0,-1,-81,-154,211,25,25,214,187,5,0,172,200,193,181,1,8616
114.02222991,5,5,23,-3,0,0,2,1,-1,153,-191,4,24,27,214,187,5,0,199,173,184,189,1,8617
114.027503967,5,5,23,5,-2,-3,0,0,-2,-147,-83,177,20,27,217,187,5,0,174,196,185,191,1,8618
114.056411028,5,5,23,-10,2,4,-2,0,0,-20,74,253,13,31,214,187,5,0,208,169,191,179,1,8619
114.06686306,5,5,23,2,8,0,-3,5,1,39,114,107,18,36,224,187,5,0,174,199,197,176,1,8620
114.077305079,5,5,23,2,6,7,2,7,3,51,-8,243,18,38,228,187,5,0,189,191,186,181,1,8621
114.106216908,5,5,23,-11,0,0,-4,3,4,157,121,149,21,46,236,187,5,0,206,168,180,192,1,8622
114.116482973,5,5,23,5,7,0,-3,3,0,5,148,75,18,50,233,187,5,0,169,204,198,175,1,8623
114.127230883,5,5,23,-10,3,5,-2,5,2,171,122,40,25,54,234,187,5,0,209,168,184,184,1,8624
114.155361891,5,5,23,12,0,0,0,1,2,-145,-53,89,19,46,235,187,5,0,159,213,183,190,1,8625
114.166560889,6,5,23,1,-2,1,6,-1,0,-45,192,137,14,51,232,187,5,0,196,179,183,189,1,8626
114.176265002,6,5,23,0,-3,2,0,-2,2,77,-84,185,11,44,230,187,5,0,188,187,182,189,1,8627
114.205211878,6,5,23,11,-8,1,6,-6,2,-93,-239,66,10,45,237,187,5,0,170,204,175,196,1,8628
114.215477944,6,4,23,-9,-3,-2,1,-6,0,-153,42,-151,9,41,225,187,5,0,210,162,189,186,1,8629
114.226290941,6,4,23,8,-8,-10,0,-6,-6,147,-14,199,16,42,225,187,5,0,162,202,182,200,1,8630
114.254416943,6,4,23,-9,2,2,0,-2,-3,-56,93,159,16,35,224,187,5,0,208,167,196,175,1,8631
114.265546084,6,4,23,0,-5,0,-4,-1,1,-37,-88,72,12,28,223,187,5,0,178,195,175,197,1,8632
114.275183916,6,4,23,-6,0,0,-3,-3,0,-172,-106,111,12,28,232,187,5,0,197,176,191,182,1,8633
114.304388046,6,4,23,6,1,1,0,0,0,14,-23,-1,8,24,224,187,5,0,172,202,189,183,1,8634
114.314203024,7,4,23,3,0,-5,4,1,-2,-67,7,172,9,29,224,187,5,0,185,183,187,190,1,8635
114.330267906,7,4,23,-7,-4,3,-2,-1,0,200,220,211,10,33,218,187,5,0,202,174,179,191,1,8636
114.353359938,7,4,23,8,8,6,0,2,4,189,138,-240,12,38,208,187,5,0,171,207,200,168,1,8637
114.364476919,7,4,23,-3,-14,-7,2,-3,0,-46,-251,24,13,34,216,187,5,0,195,172,160,219,1,8638
114.374515057,7,4,23,11,11,-2,4,-1,-4,222,197,146,20,36,219,187,5,0,165,206,218,157,1,8639
114.40337205,7,4,23,0,-2,-8,6,4,-5,-81,-251,-65,19,27,214,187,5,0,192,175,176,204,1,8640
114.413423062,7,4,23,-1,15,12,0,6,1,95,107,4,19,21,217,187,5,0,194,189,207,156,1,8641
114.424499989,7,4,23,-3,-5,7,-2,4,9,-255,53,35,13,24,212,187,5,0,193,186,162,205,1,8642
114.453347922,7,4,23,-12,1,-4,-7,-2,1,84,131,60,17,30,204,187,5,0,200,169,195,182,1,8643
114.463269949,7,4,23,6,2,10,-2,1,2,-70,61,123,13,30,203,187,5,0,170,211,186,179,1,8644
114.474290848,7,4,23,-8,0,9,0,1,9,207,23,114,19,26,206,187,5,0,209,171,181,184,1,8645
114.502238989,7,4,23,2,-1,-4,-3,0,2,-65,46,138,14,22,206,187,5,0,174,195,186,190,1,8646
114.513886929,7,4,23,-8,1,-7,-2,0,-5,96,-33,66,17,25,215,187,5,0,197,170,192,186,1,8647
114.523509979,7,4,23,2,-3,1,-2,0,-2,-113,-108,28,7,21,215,187,5,0,177,197,180,192,1,8648
114.552216053,7,4,23,4,0,-1,3,-2,0,90,86,168,10,30,214,187,5,0,180,192,188,186,1,8649
114.562216997,7,4,23,-5,-6,-5,0,-3,-3,15,-161,69,7,22,213,187,5,0,196,172,180,197,1,8650
114.578917027,7,4,23,8,1,0,1,-2,-2,-193,11,39,2,26,218,187,5,0,169,204,193,180,1,8651
114.601407051,7,4,23,-3,-6,-5,2,-2,-2,216,15,55,9,26,212,187,5,0,196,172,178,199,1,8652
114.612205029,7,4,23,2,3,-1,0,-1,-3,115,-37,243,10,23,208,187,5,0,180,192,198,177,1,8653
114.622225046,7,4,23,1,0,-7,1,1,-4,230,127,15,20,27,209,187,5,0,184,183,187,192,1,8654
114.651294947,7,4,23,1,5,-6,1,2,-6,-29,-32,64,17,11,199,187,5,0,182,185,197,182,1,8655
114.661222935,7,4,23,7,2,-1,4,3,-4,46,-165,149,20,11,203,187,5,0,177,195,186,188,1,8656
114.672194004,6,4,23,-7,-3,0,0,0,0,103,-151,104,19,12,200,187,5,0,203,170,180,194,1,8657
114.700392962,6,4,23,8,6,-1,0,1,-1,189,-52,108,28,13,198,187,5,0,167,205,200,174,1,8658
114.711377859,6,4,23,6,-4,0,7,0,-1,113,-22,34,31,4,199,187,5,0,183,189,174,200,1,8659
114.722593069,6,4,23,1,0,6,4,-2,2,5,-125,106,30,-7,192,187,5,0,192,186,189,179,1,8660
114.750225067,6,4,23,-3,0,0,0,0,2,-15,-13,28,28,-8,193,187,5,0,193,180,186,187,1,8661
114.76056695,6,4,23,-7,2,7,-5,1,3,17,103,34,25,-14,190,187,5,0,197,181,188,179,1,8662
114.771241904,5,4,23,-1,2,1,-4,2,4,90,56,109,27,-10,198,187,5,0,183,191,188,184,1,8663
114.799370051,5,5,23,-5,1,-5,-3,2,-2,-168,3,134,18,-13,206,187,5,0,191,178,188,189,1,8664
114.810956001,5,5,23,0,-3,-5,-2,-1,-5,21,-64,64,23,-7,206,187,5,0,179,190,181,196,1,8665
114.821138859,4,5,23,-4,3,-8,-1,0,-6,-210,-119,206,19,-15,208,187,5,0,190,177,198,181,1,8666
114.84924388,4,5,23,2,-3,-5,0,0,-6,115,7,122,20,-13,212,187,5,0,177,191,180,197,1,8667
114.859643936,4,5,23,0,4,-4,0,0,-5,-90,49,182,20,0,209,187,5,0,187,182,198,179,1,8668
114.870296955,4,5,23,-3,0,-7,-2,1,-6,-23,-146,57,23,-10,221,187,5,0,189,178,185,194,1,8669
114.898201943,4,5,23,8,-4,-14,2,-2,-11,169,46,181,23,-9,220,187,5,0,164,197,186,199,1,8670
114.909286976,3,5,23,-3,-4,-1,2,-4,-8,-91,-11,35,23,-18,217,187,5,0,198,173,184,190,1,8671
114.919497967,3,5,23,-4,4,1,-3,0,0,129,-7,201,27,-16,214,187,5,0,190,184,196,176,1,8672
114.948293925,3,5,23,5,-5,0,0,0,0,187,-69,217,36,-15,210,187,5,0,175,198,175,199,1,8673
114.95837307,3,5,23,-12,-1,-1,-3,-3,0,238,103,14,41,-12,217,187,5,0,208,163,189,185,1,8674
114.969865084,2,5,23,3,0,3,-4,0,0,91,203,137,45,-7,222,187,5,0,173,203,186,184,1,8675
114.998604059,2,5,23,0,0,-2,1,0,0,-57,-139,46,39,-16,218,187,5,0,189,181,188,187,1,8676
115.008525849,2,5,22,3,-3,0,1,-1,-1,231,222,96,40,-14,233,187,5,0,180,192,181,193,1,8677
115.01925993,2,5,23,0,3,4,1,0,1,2,-74,-40,41,-9,225,187,5,0,191,185,193,177,1,8678
115.047278881,2,5,23,5,2,1,2,2,3,1,-150,126,36,-18,218,187,5,0,178,196,187,185,1,8679
115.058218956,2,6,23,8,1,1,7,2,1,-107,75,124,35,-10,229,187,5,0,179,195,186,186,1,8680
115.068314076,2,6,23,-7,-9,-3,0,-4,-1,-181,-103,-57,28,-15,221,187,5,0,203,167,172,204,1,8681
115.097339869,1,6,23,6,5,-9,0,-1,-6,13,3,208,35,-10,232,187,5,0,167,198,207,174,1,8682
115.10738802,1,6,22,2,-2,5,4,1,-2,-184,-55,225,28,-21,236,187,5,0,190,187,175,194,1,8683
115.125714064,1,6,22,4,6,-4,3,1,0,136,-36,57,33,-30,235,187,5,0,180,189,201,176,1,8684
115.146277905,1,6,22,-6,1,4,0,4,0,-96,-175,160,26,-35,229,187,5,0,202,175,182,188,1,8685
115.158385992,1,6,22,-6,-4,-9,-6,-1,-2,56,-104,140,29,-38,223,187,5,0,186,179,181,199,1,8686
115.167227984,0,6,22,14,8,-12,4,1,-10,164,147,50,30,-34,223,187,5,0,155,208,208,175,1,8687
115.196362019,0,6,22,-9,0,-8,2,3,-10,-44,-89,-41,32,-33,214,187,5,0,209,157,181,198,1,8688
115.207159043,0,6,22,-12,0,-7,-10,0,-8,57,-246,210,31,-42,215,187,5,0,193,174,189,190,1,8689
115.217213869,0,6,22,1,2,-8,-5,0,-7,70,-44,122,33,-39,217,187,5,0,171,195,194,185,1,8690
115.246504069,0,6,22,-13,-1,7,-6,0,0,33,159,-30,38,-35,209,187,5,0,211,168,179,188,1,8691
115.256819964,-1,6,22,7,2,-3,-2,0,1,217,80,125,38,-33,210,187,5,0,162,208,193,183,1,8692
115.267337084,-1,6,22,-6,2,-4,0,2,-4,56,-34,203,37,-33,216,187,5,0,201,168,190,187,1,8693
115.295388937,-1,6,22,7,-2,-7,0,0,-6,11,11,74,31,-36,211,187,5,0,167,200,184,195,1,8694
115.306204081,-1,6,22,-3,-2,8,1,-2,0,11,-27,65,32,-30,217,187,5,0,202,178,182,184,1,8695
115.316259861,-1,6,22,1,-1,3,-1,-1,6,-15,94,15,31,-23,214,187,5,0,183,193,185,185,1,8696
115.345258951,-2,6,22,9,-6,-1,5,-3,0,124,-86,61,31,-22,213,187,5,0,173,198,179,195,1,8697
115.35618496,-2,6,22,-4,-1,0,2,-3,0,102,196,202,29,-15,222,187,5,0,201,172,190,183,1,8698
115.370595932,-2,6,22,10,-4,-7,2,-2,-3,-234,-104,140,20,-17,218,187,5,0,164,203,184,195,1,8699
115.395214081,-2,6,22,-5,-7,-3,2,-5,-5,213,-137,33,26,-11,222,187,5,0,202,169,181,195,1,8700
115.405417919,-2,6,22,0,4,1,-2,-1,0,-97,-8,134,24,-11,219,187,5,0,184,191,198,173,1,8701
115.416151047,-2,6,22,0,-4,-1,0,0,0,35,77,19,30,-12,218,187,5,0,185,187,177,198,1,8702
115.44463706,-2,6,22,-1,3,1,0,0,0,-57,34,115,27,-19,218,187,5,0,190,184,194,178,1,8703
115.455172062,-2,6,22,6,-4,-4,2,0,-1,79,80,77,33,-17,217,187,5,0,174,196,179,197,1,8704
115.465365887,-2,6,22,-2,-1,7,1,-3,1,63,-4,145,34,-15,213,187,5,0,199,180,185,182,1,8705
115.494485855,-2,6,22,0,5,1,-1,1,4,57,159,183,41,-8,212,187,5,0,183,191,195,177,1,8706
115.504288912,-2,7,22,3,-5,-1,2,0,0,-161,-100,235,34,-11,208,187,5,0,181,190,175,199,1,8707
115.515323878,-2,7,22,13,11,0,8,3,-1,-67,-159,170,34,-23,208,187,5,0,169,203,208,166,1,8708
115.543560028,-2,7,22,-9,-3,3,1,4,1,32,1,132,36,-13,204,187,5,0,213,162,171,199,1,8709
115.554333925,-2,7,22,-8,-7,-7,-8,-5,-2,-56,3,-6,30,-14,199,187,5,0,187,179,182,198,1,8710
115.564234972,-2,7,22,8,10,-6,0,1,-7,168,173,22,37,3,205,187,5,0,164,204,210,168,1,8711
115.593244076,-2,7,22,-12,-8,-9,-1,0,-8,-129,-26,186,30,2,205,187,5,0,208,157,169,211,1,8712
115.604264975,-2,7,22,10,5,-9,0,-1,-9,-78,-9,160,23,4,203,187,5,0,157,209,206,174,1,8713
115.618454933,-2,7,22,-9,-2,0,0,1,-4,97,-13,52,20,1,198,187,5,0,209,164,177,196,1,8714
115.643146992,-2,7,22,7,7,8,0,2,4,56,116,117,19,0,191,187,5,0,172,208,197,169,1,8715
115.65329504,-2,7,22,3,4,3,5,6,6,39,70,150,21,10,193,187,5,0,189,187,185,185,1,8716
115.664352894,-2,7,22,-7,2,0,-2,3,2,35,-116,73,17,2,193,187,5,0,201,172,187,186,1,8717
115.693289995,-1,7,22,8,3,-1,0,3,0,-13,-53,71,16,2,202,187,5,0,167,205,191,184,1,8718
115.710093975,-1,7,22,-9,3,5,0,3,1,43,47,13,24,7,199,187,5,0,210,168,186,183,1,8719
115.713496924,-1,7,22,11,7,7,1,5,6,-8,174,62,20,10,198,187,5,0,164,215,193,174,1,8720
115.742270947,-1,7,22,-8,-10,1,1,-1,4,-16,54,148,24,14,203,187,5,0,209,165,163,209,1,8721
115.753306866,-1,7,22,-3,0,-9,-5,-5,-3,-50,-15,164,22,7,195,187,5,0,181,185,199,182,1,8722
115.763283015,-1,7,22,7,-4,-14,2,-2,-11,-87,-75,155,25,6,200,187,5,0,166,195,186,198,1,8723
115.792191029,-1,7,22,-14,-5,1,-3,-4,-6,217,77,135,27,9,196,187,5,0,215,159,182,190,1,8724
115.802267075,-1,7,22,7,1,2,-3,-1,1,-98,153,169,27,17,196,187,5,0,164,211,192,179,1,8725
115.813197851,-1,7,22,-5,0,13,1,0,7,15,235,149,32,26,196,187,5,0,206,178,180,182,1,8726
115.841269016,0,7,22,4,1,6,0,1,9,-219,-178,15,22,18,195,187,5,0,178,200,186,182,1,8727
115.853170872,0,7,22,2,-1,-6,3,0,0,215,-134,133,29,16,206,187,5,0,184,184,185,193,1,8728
115.862407923,0,7,22,7,-1,0,4,-1,-3,96,-132,215,30,19,206,187,5,0,178,195,186,188,1,8729
115.891843081,0,7,22,1,3,-6,4,1,-3,-52,34,234,27,21,209,187,5,0,188,180,196,182,1,8730
115.902531862,0,7,22,-2,-6,1,0,-1,-2,155,-238,170,30,11,220,187,5,0,192,182,172,200,1,8731
115.912208081,0,7,22,6,5,1,1,0,1,-148,52,96,21,11,220,187,5,0,175,200,200,172,1,8732
115.941350937,0,7,22,-8,-3,-2,0,1,0,183,18,172,24,12,219,187,5,0,203,168,178,197,1,8733
115.95124197,0,7,22,1,1,-5,-3,0,-3,-133,-120,94,20,9,226,187,5,0,176,193,193,184,1,8734
115.962218046,0,7,22,-12,2,-8,-5,1,-6,234,114,217,26,12,223,187,5,0,204,163,192,187,1,8735
115.990215063,0,7,22,2,6,-2,-5,4,-5,27,-144,36,27,0,217,187,5,0,171,200,195,180,1,8736
116.001210928,0,7,22,6,7,5,4,7,1,61,-42,43,25,1,223,187,5,0,181,196,190,178,1,8737
116.011288882,0,7,22,-7,0,7,0,4,6,48,-39,25,24,-10,212,187,5,0,206,173,178,189,1,8738
116.040309906,0,7,22,9,-1,-2,0,0,2,-147,33,98,26,0,218,187,5,0,166,205,184,191,1,8739
116.050664902,0,7,22,-9,0,4,0,0,1,-67,110,42,19,5,211,187,5,0,210,166,187,182,1,8740
116.061269045,0,7,22,12,3,-6,1,2,0,-78,-60,94,19,-2,217,187,5,0,157,211,194,184,1,8741
116.090270996,0,7,22,1,-13,-13,7,-5,-9,12,38,170,12,-3,214,187,5,0,189,173,168,216,1,8742
116.100154877,0,6,22,-9,1,0,-4,-5,-6,-162,-86,24,10,-6,206,187,5,0,203,171,201,172,1,8743
116.110648871,0,6,22,7,-6,0,-1,-2,0,-97,46,138,5,0,207,187,5,0,167,206,175,198,1,8744
116.139373064,0,6,22,-4,-5,1,1,-6,1,21,22,188,4,6,208,187,5,0,200,174,183,189,1,8745
116.150264979,0,6,22,-2,2,1,-3,-1,1,0,102,105,3,4,206,187,5,0,186,188,194,178,1,8746
116.160826922,0,6,22,-3,10,6,-2,6,3,32,53,73,14,8,209,187,5,0,192,186,198,169,1,8747
116.189157963,0,6,22,-9,-3,10,-6,3,8,-142,-170,4,12,8,211,187,5,0,202,180,167,197,1,8748
116.19935894,0,6,22,8,6,12,0,1,11,18,82,57,12,16,209,187,5,0,171,212,194,169,1,8749
116.210294962,0,5,22,-13,-7,21,-2,0,16,-78,-37,33,11,15,216,187,5,0,220,168,162,194,1,8750
116.23929286,0,5,22,3,6,6,-5,0,13,115,60,121,10,6,212,187,5,0,173,205,200,168,1,8751
116.249402046,0,5,22,-1,0,7,0,3,6,-66,-183,103,12,2,210,187,5,0,195,184,177,189,1,8752
116.259245873,0,5,22,8,-7,0,3,-4,4,71,26,134,15,3,216,187,5,0,172,202,175,198,1,8753
116.288359881,0,5,22,-2,3,-5,3,-2,-2,137,58,74,16,5,217,187,5,0,195,173,200,178,1,8754
116.298233032,0,5,22,7,0,4,2,1,0,132,128,108,18,5,216,187,5,0,175,201,182,187,1,8755
116.309293032,0,5,22,0,2,-3,3,1,0,-142,16,174,14,-2,217,187,5,0,193,177,192,185,1,8756
116.338402033,0,5,22,-3,1,-8,-2,1,-6,-155,-248,-15,9,-5,202,187,5,0,188,178,190,190,1,8757
116.348201037,0,5,22,3,-6,-3,0,-2,-6,125,64,237,13,-2,200,187,5,0,177,193,177,199,1,8758
116.359184981,0,5,22,-10,5,1,-3,0,0,-75,26,104,3,3,202,187,5,0,206,169,200,172,1,8759
116.38810587,0,5,22,-2,3,11,-6,4,6,172,189,229,14,3,200,187,5,0,186,196,183,182,1,8760
116.398267031,0,5,22,7,8,-1,2,6,4,-153,-104,-186,11,0,191,187,5,0,173,198,198,177,1,8761
116.410935879,0,5,22,-10,-3,6,-1,2,2,-54,217,132,11,5,191,187,5,0,210,168,172,196,1,8762
116.437587023,0,5,22,14,-1,6,2,-2,6,57,24,90,14,8,189,187,5,0,159,219,185,183,1,8763
116.447697878,0,5,22,-11,-1,-3,1,-1,1,24,-12,221,9,5,191,187,5,0,214,156,186,189,1,8764
116.458208084,0,5,22,11,0,-1,0,0,-2,116,107,141,15,4,197,187,5,0,160,212,190,185,1,8765
116.486348868,0,5,22,2,-6,-4,6,-2,-3,135,-239,125,11,-7,196,187,5,0,190,179,178,198,1,8766
116.49780798,0,5,22,-11,0,-4,-4,-3,-4,72,141,15,19,0,196,187,5,0,204,165,193,184,1,8767
116.507458925,0,5,22,6,-4,-3,-2,-2,-3,-175,48,81,9,5,189,187,5,0,165,205,182,194,1,8768
116.536362887,0,4,22,-12,-2,-6,-2,-3,-5,-7,23,-93,6,15,181,187,5,0,207,160,189,189,1,8769
116.547520876,0,4,22,4,-1,2,-3,-2,-1,65,-57,164,9,13,186,187,5,0,171,204,185,186,1,8770
116.557255984,0,4,22,-3,-2,-4,0,-2,-1,-15,-81,-17,0,17,174,187,5,0,193,176,186,191,1,8771
116.586271048,0,4,22,2,1,2,0,0,-1,164,12,208,6,16,184,187,5,0,181,194,190,181,1,8772
116.596374989,1,4,22,8,5,5,5,3,4,-17,208,31,1,21,180,187,5,0,178,199,192,177,1,8773
116.607421875,1,4,22,-6,-7,0,1,0,2,4,121,174,11,27,176,187,5,0,203,170,170,203,1,8774
116.635360956,1,4,22,10,8,3,2,0,1,20,-127,240,6,21,176,187,5,0,167,209,205,166,1,8775
116.646264076,1,4,22,4,-6,0,7,1,1,112,16,19,8,31,182,187,5,0,189,185,169,203,1,8776
116.656168938,2,4,22,0,2,0,2,-2,0,-32,-113,99,6,29,177,187,5,0,189,184,195,178,1,8777
116.685212851,2,4,22,1,-4,1,1,-1,1,-4,22,150,4,37,187,187,5,0,186,189,177,194,1,8778
116.695613861,2,4,22,-6,-3,2,-2,-4,2,26,67,31,9,38,185,187,5,0,198,177,184,187,1,8779
116.706410885,2,4,22,0,2,-1,-3,0,0,-74,-255,147,9,29,188,187,5,0,181,191,193,181,1,8780
116.734318972,2,4,22,-6,-4,-12,-3,-1,-7,-16,125,40,10,40,186,187,5,0,191,172,183,201,1,8781
116.745229006,3,3,22,0,-7,1,-3,-6,-5,-120,57,204,7,40,187,187,5,0,182,192,179,193,1,8782
116.755517006,3,3,22,-3,6,-6,-1,0,-2,94,164,129,13,47,196,187,5,0,188,179,205,173,1,8783
116.784240961,3,3,22,3,0,0,0,3,-3,71,-29,39,17,32,194,187,5,0,178,194,183,191,1,8784
116.795242071,3,3,22,1,4,-9,2,2,-5,-44,-31,118,16,24,192,187,5,0,184,181,196,185,1,8785
116.805397034,4,3,22,-4,2,1,-1,3,-3,134,-185,65,19,17,191,187,5,0,195,179,187,185,1,8786
116.837319851,4,4,22,7,1,3,1,2,2,-192,81,30,7,18,183,187,5,0,173,203,186,185,1,8787
116.844521046,4,4,22,0,7,0,3,4,1,110,133,63,20,25,185,187,5,0,192,181,196,177,1,8788
116.855340004,4,4,22,-4,-1,0,-2,3,0,-213,42,118,14,18,186,187,5,0,193,179,179,194,1,8789
116.884185076,4,4,22,8,-1,-1,2,-1,-1,40,128,241,17,22,185,187,5,0,169,203,186,189,1,8790
116.894362927,4,4,22,-12,-1,-2,-1,-1,-2,-16,-32,127,14,20,185,187,5,0,212,159,187,188,1,8791
116.904613972,4,4,22,12,2,1,0,0,0,-191,86,141,11,26,186,187,5,0,158,216,191,180,1,8792
116.933281899,4,4,22,-7,-4,3,2,0,2,146,-27,2,13,25,183,187,5,0,210,166,176,194,1,8793
116.943518877,4,4,22,3,-2,-3,-2,-3,0,-160,49,239,5,25,187,187,5,0,174,196,188,188,1,8794
116.954217911,4,4,22,10,-1,-5,7,-2,-4,194,85,124,7,24,188,187,5,0,171,198,189,189,1,8795
116.98237896,4,3,22,-6,-1,9,2,-1,1,-41,-22,123,9,23,186,187,5,0,208,172,181,184,1,8796
116.9932549,4,3,22,1,1,0,-2,0,4,69,198,166,15,34,197,187,5,0,179,194,191,183,1,8797
117.003413916,4,3,22,-4,-7,-8,-1,-3,-4,-25,-20,9,11,32,198,187,5,0,191,175,177,203,1,8798
117.032304049,5,3,22,0,1,-2,-2,-3,-5,-153,40,-70,9,26,194,187,5,0,181,190,195,179,1,8799
117.043380022,5,3,22,-1,1,-2,0,1,-2,-202,-4,252,0,15,194,187,5,0,188,183,188,187,1,8800
117.057374954,5,3,22,4,-6,1,1,-2,0,-184,129,145,0,20,209,187,5,0,179,196,176,196,1,8801
117.082311869,5,3,22,-9,5,8,-2,0,4,95,70,253,3,23,212,187,5,0,208,172,196,170,1,8802
117.094194889,5,3,22,-3,-2,4,-6,1,6,61,-196,66,3,18,205,187,5,0,185,192,177,192,1,8803
117.103317976,5,3,22,6,5,-6,1,1,-1,97,-5,142,5,18,209,187,5,0,172,195,200,179,1,8804
117.131381989,5,3,22,-11,-4,4,-2,0,-1,179,-28,125,6,14,203,187,5,0,211,166,172,197,1,8805
117.144747973,4,3,22,3,6,0,-3,0,2,169,-101,42,7,18,207,187,5,0,171,203,200,172,1,8806
117.152384997,4,3,22,-15,-3,12,-5,1,6,29,183,83,12,19,209,187,5,0,218,166,171,192,1,8807
117.181617022,4,3,22,2,3,-1,-6,0,5,-64,-30,131,9,17,216,187,5,0,170,202,196,178,1,8808
117.191386938,5,3,22,14,2,3,8,3,1,174,-19,80,13,9,227,187,5,0,169,207,186,184,1,8809
117.202203036,5,3,22,-10,-1,-2,1,0,0,-219,45,254,6,12,223,187,5,0,213,158,183,193,1,8810
117.230404854,4,3,22,16,-5,0,3,-3,-1,9,176,126,13,19,233,187,5,0,152,220,180,193,1,8811
117.245091915,5,3,22,4,7,-1,10,1,-1,-81,-78,113,7,16,230,187,5,0,193,179,203,171,1,8812
117.254281044,5,3,22,-2,1,-2,1,4,-1,-66,62,118,6,13,233,187,5,0,193,178,184,191,1,8813
117.282448054,5,3,22,7,3,0,2,2,-1,92,-181,106,8,5,237,187,5,0,173,200,191,182,1,8814
117.290510893,4,3,22,-13,-8,-3,-2,-2,-1,59,-4,8,9,8,231,187,5,0,212,158,171,205,1,8815
117.301137924,4,3,22,5,9,8,-3,0,2,12,1,212,6,14,230,187,5,0,170,210,205,162,1,8816
117.329278946,4,3,22,-12,-9,11,-3,0,9,108,-45,145,16,16,231,187,5,0,214,168,160,204,1,8817
117.340333939,4,3,22,-3,1,0,-7,-4,5,100,-92,41,19,13,228,187,5,0,181,191,197,176,1,8818
117.350450039,4,3,22,8,-2,0,2,0,0,196,-134,176,23,8,226,187,5,0,171,202,181,191,1,8819
117.379278898,4,3,22,-9,-2,-3,0,-2,-1,-117,-102,206,22,12,233,187,5,0,206,164,186,190,1,8820
117.389514923,4,3,22,7,1,1,-1,0,-1,187,81,150,27,11,236,187,5,0,168,206,190,182,1,8821
117.400266886,4,3,22,-6,2,-3,0,1,-1,-123,-151,19,27,5,238,187,5,0,201,169,190,186,1,8822
117.428313971,4,3,22,9,1,-10,1,1,-7,-96,-194,135,22,-3,238,187,5,0,162,202,191,191,1,8823
117.439179898,4,3,22,8,1,-8,8,1,-9,-99,-110,135,12,1,240,187,5,0,179,187,191,189,1,8824
117.454026938,4,3,22,2,-12,-3,5,-5,-6,116,55,161,16,3,242,187,5,0,189,182,169,207,1,8825
117.47823596,4,3,22,-2,10,1,0,0,0,194,87,229,17,10,246,187,5,0,193,182,212,160,1,8826
117.488476038,3,3,22,-5,-4,0,-3,2,0,-5,26,209,22,8,250,187,5,0,192,181,170,203,1,8827
117.499410868,3,3,22,5,5,4,0,0,1,1,54,90,19,6,244,187,5,0,175,201,197,172,1,8828
117.527495861,3,3,22,-14,-1,8,-4,1,6,-113,-63,220,22,4,247,187,5,0,216,164,176,191,1,8829
117.538337946,3,3,22,0,0,8,-6,0,8,198,17,146,26,1,251,187,5,0,178,203,185,181,1,8830
117.54861188,3,3,22,-5,3,1,-2,2,5,126,33,44,29,3,255,187,5,0,196,179,191,181,1,8831
117.577274084,3,3,22,0,-2,-4,-3,0,-1,-65,-73,234,32,0,2,187,5,0,182,188,181,196,1,8832
117.587596894,3,4,22,9,3,2,4,0,0,-65,-19,197,27,0,0,187,5,0,173,202,194,177,1,8833
117.598332882,3,4,22,-13,-2,0,-2,0,1,-108,49,77,28,0,252,187,5,0,215,158,179,194,1,8834
117.627173901,3,4,22,7,-2,-3,-2,-2,-1,38,83,81,24,5,1,187,5,0,162,208,187,189,1,8835
117.637369871,3,4,22,-7,2,-1,0,0,-2,12,142,162,26,16,2,187,5,0,205,168,193,181,1,8836
117.647273064,3,4,22,12,2,-2,2,2,-1,37,-208,39,25,6,6,187,5,0,161,211,188,187,1,8837
117.67631793,3,4,22,7,-3,-7,9,0,-4,145,28,36,29,7,6,187,5,0,183,184,182,197,1,8838
117.687104941,3,4,22,-10,-9,-5,-1,-6,-6,3,107,49,33,8,9,187,5,0,206,162,177,200,1,8839
117.697598934,2,4,22,2,0,6,-4,-4,0,39,-26,120,39,14,12,187,5,0,176,202,193,175,1,8840
117.728682041,2,4,22,-4,-10,-3,-1,-4,1,-131,-1,17,41,11,3,187,5,0,194,176,172,204,1,8841
117.737967015,2,4,22,-11,0,-3,-8,-5,-3,73,-38,71,40,2,5,187,5,0,198,172,196,180,1,8842
117.747263909,2,4,22,-1,2,4,-6,1,0,-250,-131,101,32,4,12,187,5,0,181,196,189,180,1,8843
117.775304079,2,4,22,-5,2,3,-3,2,3,120,3,177,33,4,6,187,5,0,194,181,187,183,1,8844
117.789901972,2,4,22,8,2,6,1,2,4,-22,96,130,28,7,7,187,5,0,172,206,186,182,1,8845
117.797343016,2,4,22,0,0,8,4,1,7,46,55,165,25,11,3,187,5,0,196,184,182,184,1,8846
117.825236082,2,4,22,11,5,4,5,3,6,131,37,116,21,7,4,187,5,0,172,204,192,177,1,8847
117.835510969,2,4,22,10,-3,-4,10,0,0,25,-89,85,30,6,3,187,5,0,178,191,178,199,1,8848
117.849972964,2,4,22,-6,-15,-9,1,-9,-6,219,-199,113,31,1,4,187,5,0,202,164,170,210,1,8849
117.875371933,2,4,22,1,2,-9,-2,-6,-9,-1,-243,255,30,-5,4,187,5,0,175,190,207,174,1,8850
117.885496855,2,4,22,-7,-5,-2,-3,-1,-6,125,-24,48,33,-17,2,187,5,0,198,173,177,198,1,8851
117.896147013,2,5,22,4,9,-9,-1,2,-5,-140,-56,117,31,-16,2,187,5,0,170,196,209,171,1,8852
117.924351931,2,5,22,-6,0,3,-1,4,-2,38,-52,136,34,-19,252,187,5,0,202,174,177,193,1,8853
117.935301066,1,5,22,-3,-4,6,-5,-2,4,-67,-190,184,23,-19,247,187,5,0,188,190,177,191,1,8854
117.945551872,1,5,22,0,4,0,-1,0,3,0,172,189,22,-15,252,187,5,0,184,190,197,176,1,8855
117.974475861,1,5,22,-6,-2,1,-3,1,1,85,-168,115,30,-25,250,187,5,0,197,177,179,193,1,8856
117.984451056,1,5,22,-4,-2,-1,-5,-2,0,-131,-244,141,18,-30,250,187,5,0,186,185,185,189,1,8857
117.995224953,0,5,22,-7,1,0,-5,0,0,83,86,115,24,-26,251,187,5,0,195,178,192,181,1,8858
118.023473025,0,5,22,5,-5,-2,-1,-1,-1,-186,-57,208,14,-24,252,187,5,0,171,199,178,197,1,8859
118.034366846,0,5,22,5,6,-7,5,0,-5,191,122,154,22,-18,244,187,5,0,180,187,203,176,1,8860
118.044275046,0,5,22,0,4,0,2,5,-3,165,-9,177,21,-27,245,187,5,0,192,181,188,185,1,8861
118.073306084,0,5,22,8,0,-8,3,2,-4,-137,45,64,21,-22,246,187,5,0,169,197,187,193,1,8862
118.083361864,0,5,22,-8,-4,-3,0,-2,-6,54,130,233,31,-14,242,187,5,0,205,165,180,195,1,8863
118.094168902,0,5,22,8,2,-4,0,-1,-3,-30,-34,47,33,-12,240,187,5,0,165,205,196,180,1,8864
118.12327385,0,5,22,-2,-5,-5,3,-1,-4,4,-70,15,30,-15,243,187,5,0,195,174,178,199,1,8865
118.133454085,0,5,22,1,3,1,0,-1,-2,-74,-27,79,23,-18,239,187,5,0,183,191,195,177,1,8866
118.144286871,0,5,22,8,4,-2,4,4,0,-2,-66,108,17,-20,237,187,5,0,174,196,192,183,1,8867
118.172358036,0,5,22,-8,-10,5,0,-2,1,136,131,98,20,-18,243,187,5,0,208,170,164,204,1,8868
118.187542916,0,5,22,1,6,-4,-3,-1,0,-240,114,71,17,-8,246,187,5,0,175,194,207,169,1,8869
118.19368887,0,5,22,-3,-8,-9,0,0,-7,155,-94,77,16,-10,238,187,5,0,189,176,172,209,1,8870
118.222265959,0,5,22,1,2,5,0,-3,-2,-3,89,210,13,-9,242,187,5,0,184,193,195,174,1,8871
118.232534886,0,5,22,5,0,3,3,1,4,-95,211,213,12,-2,241,187,5,0,181,194,185,186,1,8872
118.245827913,0,4,22,-2,-3,6,1,-1,4,39,68,228,21,0,242,187,5,0,198,180,178,191,1,8873
118.272148848,0,4,22,5,0,0,1,-1,3,-58,50,-24,16,0,240,187,5,0,177,197,190,183,1,8874
118.282407046,0,4,22,-1,-1,2,1,0,1,195,-42,101,20,-9,234,187,5,0,195,181,183,188,1,8875
118.292280913,0,4,22,5,0,0,1,0,1,-77,114,72,18,-16,238,187,5,0,177,196,188,184,1,8876
118.321361065,0,4,22,-9,3,-2,-2,2,-1,88,-237,97,19,-17,233,187,5,0,204,167,193,182,1,8877
118.334064007,-1,4,22,-3,-10,-1,-6,-3,-1,-119,221,219,12,-12,231,187,5,0,183,189,168,206,1,8878
118.342191935,-1,4,22,10,12,-9,3,0,-5,-65,138,187,11,-11,241,187,5,0,164,202,217,163,1,8879
118.371212006,-1,4,22,-11,-9,-2,0,1,-5,70,-159,151,11,-15,235,187,5,0,212,160,164,211,1,8880
118.381878853,-1,4,22,3,9,1,-4,0,0,190,-153,66,19,-19,243,187,5,0,173,201,207,164,1,8881
118.392324925,-1,4,22,-9,-6,6,-3,1,4,-179,-205,191,13,-23,239,187,5,0,205,173,167,201,1,8882
118.42038393,-1,4,22,6,0,-6,-1,-2,0,252,65,141,26,-18,240,187,5,0,167,201,195,183,1,8883
118.431634903,-1,4,22,9,-1,3,7,0,-1,40,90,141,24,-16,246,187,5,0,179,197,183,188,1,8884
118.44126606,-1,4,22,-10,-2,0,0,-1,2,116,5,181,33,-11,247,187,5,0,211,163,184,189,1,8885
118.470257044,-1,4,22,11,0,13,0,-1,7,-96,-132,157,30,-16,253,187,5,0,167,218,183,179,1,8886
118.484014988,-1,4,22,-6,-2,-16,2,-1,-1,187,-67,166,31,-19,255,187,5,0,199,160,189,198,1,8887
118.493063927,-1,4,22,6,6,-5,0,1,-11,-112,-150,150,28,-20,250,187,5,0,168,200,201,176,1,8888
118.520056963,-1,4,22,1,-7,-10,4,0,-8,5,-109,219,22,-18,246,187,5,0,186,179,175,207,1,8889
118.530274868,-1,4,22,-3,5,1,0,0,-4,154,-188,196,33,-17,251,187,5,0,193,181,200,172,1,8890
118.540823937,-1,4,22,2,-3,-1,0,0,0,-200,-37,-87,25,-17,241,187,5,0,179,193,177,197,1,8891
118.569516897,-1,5,22,-8,-7,-2,-2,-5,-1,38,-9,178,29,-16,243,187,5,0,200,171,179,196,1,8892
118.580175877,-2,5,22,-7,3,0,-7,-1,0,-2,79,135,22,-13,243,187,5,0,191,183,198,174,1,8893
118.590280056,-2,5,22,7,-2,-1,0,0,0,111,19,37,26,-7,246,187,5,0,169,202,180,194,1,8894
118.619250059,-2,5,22,-11,-1,-2,-2,-2,-2,44,245,22,34,-5,248,187,5,0,208,163,187,188,1,8895
118.629463911,-2,5,21,8,-1,-2,-1,-1,-2,-45,28,253,18,-1,251,187,5,0,163,208,186,189,1,8896
118.640207052,-2,5,21,-7,-5,4,0,-3,0,55,-155,42,29,-5,255,187,5,0,207,169,178,192,1,8897
118.668220043,-2,5,21,11,10,-4,1,2,0,-9,25,27,14,0,253,187,5,0,162,208,208,168,1,8898
118.679785013,-1,5,21,6,-4,0,8,2,-2,179,23,76,23,1,250,187,5,0,186,187,171,202,1,8899
118.689230919,-1,5,21,-6,10,7,0,2,3,-171,-219,49,14,-6,253,187,5,0,204,175,204,163,1,8900
118.718280077,-1,5,21,2,-2,0,-1,4,3,-153,102,45,6,2,244,187,5,0,178,195,174,200,1,8901
118.728560925,-1,5,21,-10,7,2,-4,2,0,-93,-78,-153,7,-7,232,187,5,0,205,170,199,172,1,8902
118.739340067,-1,4,21,13,-7,0,1,0,1,-128,232,69,-3,-4,234,187,5,0,157,216,169,203,1,8903
118.770709038,-1,4,21,-11,0,4,1,-3,2,165,183,91,7,0,235,187,5,0,217,160,191,178,1,8904
118.778213024,-1,4,21,0,0,-7,-5,0,-1,-121,139,-89,4,6,226,187,5,0,173,193,189,190,1,8905
118.788394928,-1,4,21,-4,4,5,-1,2,-1,195,62,15,11,8,231,187,5,0,196,182,192,177,1,8906
118.817348004,-1,4,21,-11,0,10,-7,2,7,-198,155,58,12,13,230,187,5,0,203,178,179,186,1,8907
118.829107046,-1,4,21,13,8,-10,1,4,0,79,190,177,11,15,225,187,5,0,153,212,204,178,1,8908
118.83839798,-1,4,21,-12,-1,-7,0,3,-9,-204,-16,227,12,5,223,187,5,0,213,154,180,199,1,8909
118.867244959,-1,4,21,0,3,0,-6,0,-3,-90,-77,44,5,6,228,187,5,0,177,196,193,180,1,8910
118.877351046,-1,4,21,-4,-5,1,-2,-1,0,-46,-59,-109,4,-3,214,187,5,0,193,181,175,197,1,8911
118.898376942,-1,4,21,1,7,1,-1,1,1,220,85,238,12,0,215,187,5,0,182,193,202,170,1,8912
118.917451859,-1,4,21,6,-11,1,3,-2,1,23,-51,132,12,-3,219,187,5,0,179,195,162,210,1,8913
118.927217961,-1,4,21,-4,3,-5,0,-4,-1,-33,42,87,19,-3,228,187,5,0,197,172,203,174,1,8914
118.937278033,-1,4,21,10,-11,-14,2,-4,-9,8,-102,38,14,-5,233,187,5,0,160,201,172,213,1,8915
118.966374874,-1,4,21,-5,0,-1,2,-6,-8,-50,-241,145,15,-14,228,187,5,0,203,168,196,178,1,8916
118.977334976,-1,3,21,-2,-7,-4,-3,-4,-3,105,42,115,15,-7,235,187,5,0,183,186,177,200,1,8917
118.987271071,-1,3,21,-8,1,-5,-5,-2,-5,95,82,148,21,-10,240,187,5,0,195,173,198,179,1,8918
119.01642108,-1,4,21,4,11,0,-2,6,-2,-66,0,1,21,-20,229,187,5,0,173,201,202,171,1,8919
119.026399851,-1,4,21,11,1,0,8,6,0,-46,73,34,11,-14,232,187,5,0,173,201,179,193,1,8920
119.037313938,-1,4,21,-11,-2,9,0,0,4,55,153,57,8,-7,225,187,5,0,217,164,177,189,1,8921
119.065392971,-1,4,21,13,6,1,1,1,5,232,0,114,18,-1,230,187,5,0,157,217,198,174,1,8922
119.076318026,-1,4,21,4,-6,6,9,0,3,-30,-32,251,11,-4,226,187,5,0,193,185,168,199,1,8923
119.086292982,-1,4,21,0,4,-7,2,-1,0,-110,-115,174,7,-9,227,187,5,0,187,180,201,177,1,8924
119.115278959,-1,4,21,4,-5,-11,2,0,-9,141,-217,-64,2,-21,221,187,5,0,176,188,179,203,1,8925
119.126499891,-1,3,21,-6,8,5,-1,1,-2,155,-49,211,8,-19,216,187,5,0,202,175,202,167,1,8926
119.138095856,-1,3,21,5,-1,0,0,3,3,-134,230,0,0,-12,212,187,5,0,173,201,177,195,1,8927
119.165215016,-1,3,21,-8,1,-1,-1,0,0,56,105,-34,4,-5,207,187,5,0,203,169,191,183,1,8928
119.175273895,-1,3,21,-7,4,3,-7,2,1,255,202,142,10,2,212,187,5,0,191,184,190,181,1,8929
119.186223984,-1,3,21,-1,4,-6,-4,4,-1,-3,25,-208,6,7,195,187,5,0,180,188,192,185,1,8930
119.21487689,-1,3,21,-17,5,14,-9,4,4,64,-101,3,13,12,204,187,5,0,217,167,185,176,1,8931
119.22674799,-1,3,21,7,-1,0,-4,1,6,-87,207,224,10,17,205,187,5,0,160,212,180,194,1,8932
119.235336066,-1,3,21,-13,2,11,-2,0,5,94,-27,43,19,15,203,187,5,0,217,165,187,177,1,8933
119.264271021,-1,3,22,11,-2,4,-1,0,7,116,136,76,19,18,204,187,5,0,160,216,179,190,1,8934
119.274337054,0,3,22,4,1,-1,7,0,1,57,-233,119,13,6,206,187,5,0,189,183,192,182,1,8935
119.288876057,0,3,22,-3,2,1,0,2,0,20,-149,249,21,1,206,187,5,0,197,178,188,184,1,8936
119.314589024,0,3,22,8,-5,-8,2,-1,-3,49,78,59,14,13,206,187,5,0,167,199,179,201,1,8937
119.324953079,0,3,21,-3,5,3,2,0,-2,-15,-42,101,20,5,208,187,5,0,201,175,198,172,1,8938
119.334536076,0,3,21,8,-7,-6,2,0,-1,77,-157,5,18,1,213,187,5,0,169,199,174,204,1,8939
119.363355875,0,3,21,-4,3,-3,1,-1,-4,-125,-198,167,19,1,209,187,5,0,198,172,199,176,1,8940
119.374333859,0,4,21,-8,-5,-3,-6,0,-3,108,21,100,26,6,217,187,5,0,194,176,177,199,1,8941
119.384212971,0,4,21,-1,3,0,-5,0,-1,42,-53,54,29,6,222,187,5,0,182,191,196,177,1,8942
119.413207054,0,4,21,-8,5,1,-5,4,0,-11,-7,123,32,-5,224,187,5,0,198,176,192,180,1,8943
119.423415899,0,4,21,0,-4,-4,-4,0,-1,-62,50,147,26,-8,225,187,5,0,179,190,177,200,1,8944
119.434431076,0,4,21,1,-3,7,0,-3,1,-90,-135,3,27,-22,234,187,5,0,186,193,182,185,1,8945
119.462388993,0,4,21,0,9,3,0,3,5,82,192,189,24,-18,238,187,5,0,190,186,203,167,1,8946
119.473536015,0,4,21,1,-7,-3,0,1,0,-94,-174,7,27,-27,243,187,5,0,183,188,168,208,1,8947
119.486085892,0,4,21,6,8,-8,3,0,-5,137,57,239,22,-30,245,187,5,0,175,191,210,170,1,8948
119.512587071,-1,4,21,2,1,-1,4,5,-4,192,-31,96,32,-30,241,187,5,0,187,185,183,192,1,8949
119.522268057,-1,4,21,-3,5,7,0,3,3,80,61,33,36,-27,241,187,5,0,198,181,191,176,1,8950
119.533959866,-1,4,21,8,-8,-4,2,-1,1,54,128,120,39,-16,253,187,5,0,168,201,171,206,1,8951
119.561259032,-1,5,21,-3,2,-4,2,-2,-4,-65,-62,28,25,-26,254,187,5,0,197,172,199,178,1,8952
119.572295904,-1,5,21,2,-1,-1,0,0,-3,31,81,91,19,-23,253,187,5,0,179,193,183,191,1,8953
119.582458019,-1,5,21,0,2,-5,1,0,-3,64,-240,-65,21,-30,243,187,5,0,186,183,194,183,1,8954
119.611201048,-1,5,21,-5,1,0,-2,2,-3,15,92,-53,21,-25,235,187,5,0,194,178,187,186,1,8955
119.621424914,-2,5,21,8,7,0,1,4,0,-114,11,83,20,-19,239,187,5,0,170,203,196,177,1,8956
119.632258892,-2,5,21,-6,-6,-1,0,0,0,-55,138,128,16,-16,240,187,5,0,203,169,171,203,1,8957
