TiempoEjecucion,AnguloPitch,AnguloRoll,AnguloYaw,G_Pitch,G_Roll,G_Yaw,G_Pitch_filtrada,G_Roll_filtrada,G_Yaw_filtrada,Ax,Ay,Az,Ax_filtrada,Ay_filtrada,Az_filtrada,posZ,posZ_filtrada,velZ,motorDelantero,motorTrasero,motorDerecho,motorIzquierdo,EstadoEncendido,MensajesRecibidos
44.596460104,1,1,-3,7,4,0,0,2,0,-15,28,16,-23,2,212,185,12,0,175,195,186,182,1,3090
44.608231068,1,1,-2,0,10,15,-2,1,0,-115,-51,28,-25,-12,209,185,12,0,196,185,190,167,1,3091
44.617986203,1,1,-2,3,-6,-8,-3,1,0,187,-76,75,-21,-15,211,185,12,0,176,186,171,205,1,3092
44.646995068,1,1,-2,-12,0,4,-3,1,1,35,-13,39,-24,-26,220,185,12,0,208,165,189,176,1,3093
44.658143998,1,0,-3,4,0,-11,-1,2,1,204,102,255,-17,-17,223,185,12,0,163,198,188,190,1,3094
44.669629097,1,0,-3,-11,4,0,0,3,2,145,-31,81,-12,-24,219,185,12,0,206,164,192,177,1,3095
44.698837042,0,0,-3,5,3,5,1,3,1,42,-24,119,-14,-30,220,185,12,0,169,205,183,182,1,3096
44.708770991,0,0,-3,5,-8,-11,0,2,0,-231,-87,71,-23,-35,214,185,12,0,176,184,174,204,1,3097
44.719027043,0,0,-3,-1,11,-7,0,1,0,-230,-2,102,-28,-42,214,185,12,0,189,174,212,163,1,3098
44.747848988,0,0,-3,6,-6,-13,-1,0,-1,53,-235,141,-20,-44,214,185,12,0,169,190,170,210,1,3099
44.759034157,0,0,-3,-4,10,-4,-1,0,-3,209,180,86,-14,-33,219,185,12,0,195,170,208,164,1,3100
44.769987107,0,0,-3,8,3,13,0,0,-4,16,-133,12,-10,-45,220,185,12,0,174,206,175,183,1,3101
44.798956156,0,0,-3,-7,-9,13,0,0,-6,22,-75,43,-12,-50,219,185,12,0,207,172,162,196,1,3102
44.809941054,-1,0,-3,-9,-3,3,1,1,-6,-13,-86,141,-14,-55,220,185,12,0,194,178,186,180,1,3103
44.824146033,-1,0,-3,5,-1,-7,2,2,-4,-121,100,49,-12,-55,222,185,12,0,165,197,189,186,1,3104
44.849930048,-2,0,-3,-2,6,-9,1,1,-1,115,118,129,-9,-51,217,185,12,0,189,173,199,178,1,3105
44.859956026,-2,0,-3,-5,-3,-2,0,0,2,-98,36,150,-14,-45,219,185,12,0,189,178,175,196,1,3106
44.871909142,-2,0,-3,9,0,-1,-1,0,4,27,148,27,-8,-39,219,185,12,0,165,203,189,181,1,3107
44.900137186,-3,0,-3,-7,-2,-5,-2,-1,3,44,-244,47,-7,-45,216,185,12,0,201,163,183,191,1,3108
44.911442995,-3,0,-3,11,9,-1,-2,-1,1,41,179,173,-7,-44,216,185,12,0,160,208,202,169,1,3109
44.921847105,-3,0,-3,-1,0,-11,-1,-1,-2,7,71,75,-9,-42,224,185,12,0,191,168,182,197,1,3110
44.950954199,-3,0,-3,3,5,-8,0,0,-5,-139,98,68,-17,-41,234,185,12,0,176,187,195,180,1,3111
44.962961197,-3,0,-3,0,-4,5,1,1,-6,-168,226,108,-12,-37,239,185,12,0,189,184,171,193,1,3112
44.97243619,-3,0,-3,0,-8,9,2,2,-7,137,162,214,-8,-32,245,185,12,0,188,188,172,189,1,3113
45.00110817,-4,0,-3,3,12,3,3,2,-6,-19,244,100,-6,-23,243,185,12,0,180,191,208,158,1,3114
45.012040139,-4,-1,-3,1,-9,-5,3,2,-4,140,23,227,1,-30,247,185,12,0,184,181,161,212,1,3115
45.022930146,-4,-1,-3,-1,9,-9,2,1,-2,-5,103,183,-2,-15,245,185,12,0,183,178,211,166,1,3116
45.052537203,-4,-1,-3,0,0,-1,1,0,0,-166,-179,115,-1,-21,239,185,12,0,182,186,179,192,1,3117
45.062947035,-4,-1,-3,-4,0,-2,0,0,2,-34,170,202,2,-22,245,185,12,0,190,176,186,185,1,3118
45.074037075,-4,-1,-3,5,-3,-4,0,0,1,-103,-29,253,0,-24,246,185,12,0,170,195,180,193,1,3119
45.102949143,-4,0,-3,-3,-6,-10,0,0,0,230,-4,68,3,-16,251,185,12,0,190,170,182,195,1,3120
45.113897086,-4,-1,-3,-6,-6,6,0,0,-2,-61,-105,64,0,-18,253,185,12,0,193,181,178,186,1,3121
45.128023148,-4,-1,-3,4,-5,-1,0,0,-4,183,184,202,0,-11,255,185,12,0,173,195,182,188,1,3122
45.15310812,-4,-1,-3,-10,6,6,0,0,-5,-2,203,13,-7,-5,251,185,12,0,206,169,196,168,1,3123
45.164058209,-4,-1,-3,8,-4,-13,0,-1,-5,10,101,95,0,-3,246,185,12,0,158,200,178,202,1,3124
45.175041199,-4,-1,-3,-7,8,4,-1,-3,-3,-44,183,209,2,14,252,185,12,0,204,169,199,166,1,3125
45.204063177,-3,-1,-3,5,-4,-5,-1,-4,-1,-232,-92,100,-1,18,250,185,12,0,168,197,173,200,1,3126
45.214828015,-3,0,-3,5,2,3,-1,-3,0,-47,78,131,-2,16,255,185,12,0,183,189,190,176,1,3127
45.226402045,-3,0,-3,1,-5,2,-1,-1,0,18,-37,241,-6,15,255,185,12,0,187,184,173,193,1,3128
45.256863118,-3,0,-3,8,-5,-15,0,0,0,186,96,85,5,26,254,185,12,0,167,189,186,195,1,3129
45.268135071,-2,0,-3,5,-3,14,0,1,0,-195,199,57,0,24,255,185,12,0,189,192,179,178,1,3130
45.276054144,-2,0,-3,-13,-3,9,2,1,-1,103,245,65,6,38,0,185,12,0,213,164,178,183,1,3131
45.305108071,-2,0,-3,1,5,9,4,0,-1,54,157,230,2,44,4,185,12,0,175,202,191,170,1,3132
45.317586184,-2,0,-3,-12,-2,7,4,-1,0,-19,99,134,1,53,0,185,12,0,208,167,174,189,1,3133
45.327018977,-1,0,-3,4,2,1,3,-3,1,-108,83,54,-6,59,251,185,12,0,168,202,189,179,1,3134
45.355936051,-1,0,-3,4,0,5,1,-3,4,-75,88,148,-11,69,253,185,12,0,184,190,181,184,1,3135
45.370108128,0,0,-3,5,0,-11,-1,-2,6,-203,-29,141,-17,68,4,185,12,0,175,185,188,191,1,3136
45.377933979,0,-1,-3,-1,-5,-9,-3,-1,8,123,34,161,-9,78,6,185,12,0,188,173,181,195,1,3137
45.40692401,0,-1,-3,-7,-1,6,-3,0,7,16,-159,152,-2,74,7,185,12,0,196,178,183,180,1,3138
45.418049097,0,-1,-3,-4,-2,-3,-2,0,4,152,-6,45,-6,80,254,185,12,0,184,182,184,187,1,3139
45.428359986,1,-1,-3,-9,0,0,0,0,0,-2,-94,246,-12,66,252,185,12,0,195,174,187,183,1,3140
45.456996203,1,-1,-3,10,3,-6,0,0,-2,-100,-34,194,-15,69,0,185,12,0,158,206,192,182,1,3141
45.467931033,2,-1,-3,-1,2,-12,0,-1,-4,217,-111,-101,-10,68,246,185,12,0,190,169,191,188,1,3142
45.479075194,2,-1,-3,2,4,-2,0,-2,-5,22,4,145,-9,70,246,185,12,0,179,188,190,180,1,3143
45.507837057,2,-1,-3,1,-6,-9,-2,-1,-4,125,-5,155,-3,61,249,185,12,0,180,181,175,202,1,3144
45.518911124,3,-1,-4,-1,0,-8,-2,0,-4,14,37,-10,-5,59,246,185,12,0,185,178,195,181,1,3145
45.529988051,3,-1,-4,2,9,7,-1,0,-4,-75,46,111,-5,53,238,185,12,0,183,191,194,169,1,3146
45.559112072,3,-1,-4,-3,-4,3,0,1,-5,70,81,117,-3,58,234,185,12,0,193,179,169,197,1,3147
45.569336176,4,0,-3,7,9,4,1,2,-5,-34,82,125,-5,66,230,185,12,0,171,201,201,165,1,3148
45.580049992,4,-1,-3,-8,-8,5,2,2,-5,-108,-159,104,-9,57,228,185,12,0,205,168,162,202,1,3149
45.60907507,4,-1,-3,6,6,0,1,1,-3,12,40,49,-9,57,227,185,12,0,168,201,201,169,1,3150
45.621887207,5,-1,-3,2,0,-3,1,1,0,103,-150,-42,-3,44,218,185,12,0,185,181,181,190,1,3151
45.631363154,5,-1,-4,-5,0,-5,0,1,2,-12,-84,207,-6,30,214,185,12,0,192,172,186,187,1,3152
45.661673069,5,-1,-4,9,1,-12,0,1,4,24,126,112,-8,35,218,185,12,0,161,198,192,187,1,3153
45.670970202,5,-1,-3,-3,0,4,0,1,3,201,46,79,-3,37,218,185,12,0,199,173,182,183,1,3154
45.681910038,5,-1,-4,16,0,-10,0,1,1,-247,80,77,-13,38,207,185,12,0,153,208,189,188,1,3155
45.710866213,5,-1,-3,-13,-7,4,1,0,-1,59,-229,109,-11,24,212,185,12,0,219,153,171,195,1,3156
45.72092104,5,-1,-4,-10,-5,-1,1,0,-4,-96,-49,189,-9,20,214,185,12,0,189,179,183,188,1,3157
45.736117125,5,-1,-4,0,-4,2,2,0,-6,45,-69,-65,-7,14,201,185,12,0,177,194,181,186,1,3158
45.760915995,5,-1,-4,0,8,2,1,0,-6,-88,57,216,-7,23,200,185,12,0,186,185,201,167,1,3159
45.772116185,5,-1,-3,3,5,1,0,-1,-4,-31,-157,165,-13,19,196,185,12,0,179,191,185,182,1,3160
45.783009053,5,-1,-3,10,3,-5,-1,-2,-1,-153,208,184,-9,27,192,185,12,0,170,194,188,186,1,3161
45.812069178,5,-1,-3,-8,-6,6,-3,-2,0,23,-23,199,-13,22,192,185,12,0,209,166,169,194,1,3162
45.822916985,5,-1,-3,3,0,-1,-3,-1,2,-3,-76,183,-7,15,190,185,12,0,171,197,190,180,1,3163
45.833110094,5,-1,-3,-11,-7,3,-1,0,2,61,-111,59,-12,3,189,185,12,0,206,166,172,194,1,3164
45.862040997,5,-1,-3,6,-7,-2,0,1,2,-46,-136,126,-12,-10,187,185,12,0,165,203,180,191,1,3165
45.87312603,5,-1,-3,-1,2,1,1,1,1,1,186,-41,0,-3,184,185,12,0,193,177,193,174,1,3166
45.884074211,5,-1,-3,2,6,7,1,0,0,-102,-186,28,-1,-10,175,185,12,0,182,194,190,173,1,3167
45.913115979,4,-1,-3,13,6,-8,0,-1,0,55,189,12,0,1,175,185,12,0,163,199,191,184,1,3168
45.92414999,4,-1,-3,-2,0,16,0,-3,0,-103,-77,-96,-7,-9,171,185,12,0,207,176,172,184,1,3169
45.935024977,4,-1,-3,2,0,7,0,-3,1,-66,21,129,-4,-13,173,185,12,0,182,193,181,182,1,3170
45.963804007,4,-1,-3,-6,-2,6,0,-1,1,34,-38,145,-6,-20,168,185,12,0,199,175,179,185,1,3171
45.975257159,3,-1,-3,2,-1,-5,2,0,3,-74,-26,61,-9,-25,164,185,12,0,173,192,186,187,1,3172
45.984920979,3,-1,-3,-5,-1,-3,3,2,4,159,33,99,-5,-27,163,185,12,0,194,172,185,187,1,3173
46.01402998,3,-1,-3,10,3,4,2,2,5,-166,67,75,-6,-27,164,185,12,0,165,208,189,176,1,3174
46.024996043,2,-1,-3,-1,-3,14,1,1,5,-233,-50,193,-10,-30,165,185,12,0,201,180,171,186,1,3175
46.035945177,2,-1,-3,-3,-1,0,0,0,4,-61,168,52,-7,-19,163,185,12,0,189,180,185,184,1,3176
46.064982176,2,-1,-3,10,1,1,0,0,2,242,-51,15,-4,-21,165,185,12,0,167,203,188,180,1,3177
46.076026202,1,-1,-3,-7,-2,-1,0,-1,2,-115,-150,172,-7,-21,159,185,12,0,204,164,180,190,1,3178
46.086863995,1,-1,-3,17,5,0,0,-1,2,-56,105,164,-12,-12,169,185,12,0,152,218,194,174,1,3179
46.115887165,1,-1,-3,-1,2,1,1,-1,2,-19,72,8,-13,-8,169,185,12,0,201,169,183,185,1,3180
46.126147986,0,-1,-3,-9,2,4,2,0,2,-32,200,179,-11,4,169,185,12,0,200,173,184,181,1,3181
46.13689518,1,-2,-3,4,-3,8,3,0,2,-72,64,108,-18,8,174,185,12,0,173,203,174,188,1,3182
46.168853999,1,-2,-3,-10,-8,-6,3,1,2,-155,44,183,-23,9,175,185,12,0,202,162,177,197,1,3183
46.176862002,1,-2,-3,10,3,0,2,1,1,-125,240,15,-29,22,172,185,12,0,160,209,197,172,1,3184
46.188099146,1,-2,-3,-5,-8,-8,1,1,1,239,60,26,-23,29,179,185,12,0,198,164,171,204,1,3185
46.216900111,1,-2,-3,1,7,-5,0,0,1,-176,9,-24,-26,34,175,185,12,0,175,190,205,168,1,3186
46.227064133,2,-3,-3,5,-12,2,-1,-1,0,164,22,171,-23,26,183,185,12,0,178,193,158,209,1,3187
46.237837077,2,-3,-3,-4,0,-10,-2,-2,0,55,-107,244,-21,22,186,185,12,0,192,169,201,177,1,3188
46.266952992,2,-3,-3,3,5,2,-1,-3,-2,-211,191,191,-24,30,188,185,12,0,176,195,192,176,1,3189
46.277956009,2,-3,-3,-6,1,9,0,-3,-3,16,124,155,-24,39,191,185,12,0,201,176,178,183,1,3190
46.288878203,2,-3,-3,5,-4,0,0,-2,-4,-50,-159,187,-27,45,197,185,12,0,171,198,177,192,1,3191
46.317897082,3,-3,-3,7,-5,-4,1,-1,-4,37,-35,139,-13,46,195,185,12,0,176,189,182,190,1,3192
46.32892108,3,-3,-3,4,-5,0,1,0,-2,-153,-160,9,-18,33,192,185,12,0,184,185,180,188,1,3193
46.338853121,3,-3,-3,9,-1,-7,1,0,0,226,121,139,-17,28,200,185,12,0,172,192,189,185,1,3194
46.373870135,3,-3,-3,-1,11,3,1,0,1,-187,-200,177,-16,21,209,187,12,0,198,177,204,167,1,3195
46.391126156,4,-3,-2,3,8,8,2,0,1,55,169,168,-16,37,204,187,12,0,183,197,186,180,1,3196
46.402016163,4,-3,-2,1,-7,9,3,-1,1,-55,-13,19,-15,38,206,187,12,0,191,189,165,201,1,3197
46.430956126,4,-3,-2,4,-2,2,4,-1,0,-34,-60,157,-17,39,212,187,12,0,182,193,187,184,1,3198
46.441832066,4,-3,-2,0,-1,2,4,0,0,35,27,116,-14,31,210,187,12,0,192,183,186,185,1,3199
46.455688,4,-3,-2,-1,-3,-6,4,1,1,-41,-49,192,-14,34,210,187,12,0,185,182,186,193,1,3200
46.481137991,4,-3,-2,2,7,0,3,1,3,21,-33,225,-3,28,211,187,12,0,183,191,201,172,1,3201
46.49191618,4,-3,-2,-8,-3,0,2,1,4,-61,-116,208,-5,26,211,187,12,0,201,171,176,198,1,3202
46.502921105,4,-3,-2,5,4,0,0,0,3,-49,186,39,-6,32,214,187,12,0,171,202,196,178,1,3203
46.531876088,4,-3,-2,0,2,8,0,0,2,-34,-40,117,-9,40,222,187,12,0,193,187,182,183,1,3204
46.542894125,5,-3,-2,2,-4,-8,0,0,0,-232,237,176,-13,50,223,187,12,0,180,186,181,199,1,3205
46.553956986,5,-3,-2,1,-2,-3,-1,0,0,129,-75,128,-17,43,234,187,12,0,185,186,189,187,1,3206
46.58289218,5,-3,-2,-7,-1,-3,0,0,-1,-37,-74,24,-15,46,240,187,12,0,197,173,188,188,1,3207
46.592962027,5,-3,-3,4,1,-6,0,0,-1,66,-145,170,-15,38,244,187,12,0,171,196,192,186,1,3208
46.604300022,5,-3,-3,-2,0,3,0,0,-1,-84,-4,133,-14,46,0,187,12,0,195,180,184,187,1,3209
46.633200169,5,-3,-3,-2,3,0,0,0,-1,-83,-241,143,-15,39,1,187,12,0,188,186,193,180,1,3210
46.644037009,5,-3,-2,-7,-2,7,0,0,-2,159,136,19,-12,44,254,187,12,0,199,180,176,191,1,3211
46.654855013,6,-3,-2,4,6,3,0,0,-2,-93,-136,208,-12,35,1,187,12,0,175,200,197,173,1,3212
46.683907032,6,-3,-2,1,3,-2,-1,0,-1,-10,-4,44,-16,27,6,187,12,0,187,184,187,188,1,3213
46.694924116,6,-3,-3,9,3,-9,-1,0,0,-22,81,166,-13,21,9,187,12,0,170,195,194,187,1,3214
46.706385136,6,-3,-3,-2,3,1,-2,1,0,-50,-133,68,-8,19,12,187,12,0,198,176,188,184,1,3215
46.734812022,6,-3,-3,-3,-8,-7,-1,2,1,146,-37,194,-3,14,9,187,12,0,187,179,174,205,1,3216
46.744916201,6,-3,-3,0,4,-3,0,3,1,228,-203,49,-3,10,3,187,12,0,181,189,202,174,1,3217
46.756616116,5,-3,-3,-8,-10,-1,1,3,0,-80,-200,84,-2,9,1,187,12,0,198,173,168,206,1,3218
46.784900189,5,-3,-3,6,-2,0,2,2,-2,110,100,45,1,2,254,187,12,0,169,203,191,183,1,3219
46.795996189,5,-2,-3,-10,1,6,1,0,-4,-3,-18,-11,1,-5,247,187,12,0,210,168,189,179,1,3220
46.80697012,5,-2,-3,4,3,-1,0,-1,-4,-135,-47,164,0,-24,241,187,12,0,170,202,190,183,1,3221
46.835826159,4,-2,-3,2,5,3,-1,-2,-4,167,158,143,5,-16,248,187,12,0,188,188,191,179,1,3222
46.847172022,4,-2,-3,1,1,-1,-2,-3,-2,21,-29,200,9,-24,248,187,12,0,186,186,185,189,1,3223
46.857221127,4,-2,-3,0,3,-3,-2,-2,0,43,196,114,13,-25,251,187,12,0,188,182,191,184,1,3224
46.886162997,4,-2,-3,0,-3,2,-1,0,1,-129,76,82,4,-31,252,187,12,0,187,188,178,193,1,3225
46.900621176,3,-2,-3,0,-4,-7,0,1,2,-64,-31,187,7,-38,1,187,12,0,183,184,186,193,1,3226
46.908028126,3,-2,-3,-8,-2,-2,1,3,2,-32,17,97,2,-38,249,187,12,0,199,172,187,187,1,3227
46.936990023,3,-2,-3,2,-3,0,1,3,1,-73,74,137,0,-28,253,187,12,0,176,197,183,190,1,3228
46.947846175,2,-2,-3,-9,-6,-5,1,2,0,-39,-241,187,3,-38,246,187,12,0,201,168,182,196,1,3229
46.958891154,2,-2,-3,5,4,0,0,0,-2,-26,108,64,2,-45,238,187,12,0,170,204,198,174,1,3230
46.987812996,1,-2,-3,1,-3,-3,-1,-2,-3,116,72,193,6,-33,244,187,12,0,188,183,179,196,1,3231
46.998463154,1,-1,-3,5,2,6,-2,-4,-3,-86,-12,160,-2,-32,245,187,12,0,182,196,190,177,1,3232
47.009114981,1,-1,-3,0,-2,16,-3,-4,-3,-17,32,224,0,-28,244,187,12,0,198,189,175,185,1,3233
47.038159132,1,-1,-3,-11,0,5,-2,-3,-2,-158,-170,87,-9,-41,236,187,12,0,206,172,187,182,1,3234
47.051698208,1,-1,-3,12,4,-1,0,-2,0,-16,8,101,-4,-36,228,187,12,0,157,215,194,181,1,3235
47.060069084,0,-1,-3,-13,2,3,0,0,2,98,-167,24,-3,-51,224,187,12,0,218,158,185,185,1,3236
47.089014054,0,-1,-3,12,-3,-5,1,0,5,-117,27,115,-5,-37,220,187,12,0,154,215,182,195,1,3237
47.099929095,0,-1,-2,-11,0,11,1,1,6,142,47,98,0,-34,225,187,12,0,219,164,184,179,1,3238
47.109961987,0,-1,-2,3,-9,0,0,1,6,-34,-54,70,-2,-36,224,187,12,0,172,201,172,201,1,3239
47.139115095,0,-1,-2,3,3,-4,0,1,5,142,221,183,1,-30,224,187,12,0,182,188,201,175,1,3240
47.150071144,0,-1,-3,-2,-6,-4,0,0,3,-92,-190,35,-7,-40,225,187,12,0,192,177,176,201,1,3241
47.160911084,-1,-1,-3,8,4,-13,-1,0,1,34,125,163,-4,-27,231,187,12,0,166,196,204,180,1,3242
47.189814091,-1,-1,-3,-10,3,9,0,-2,0,24,-31,129,-3,-33,227,187,12,0,212,168,184,182,1,3243
47.201547146,-1,-1,-2,-4,0,10,0,-2,-1,-144,202,171,-5,-27,222,187,12,0,189,192,179,186,1,3244
47.212045193,-1,-1,-2,1,0,9,0,-2,-2,129,25,115,3,-26,220,187,12,0,184,196,183,182,1,3245
47.240889073,-2,-1,-2,0,-4,9,0,-1,-2,52,-22,232,1,-24,216,187,12,0,193,188,176,189,1,3246
47.252002001,-2,-1,-2,0,3,1,0,0,0,-195,11,-1,-2,-16,209,187,12,0,187,186,195,177,1,3247
47.26493311,-2,-1,-2,0,-1,2,-1,0,2,103,253,97,-1,-6,201,187,12,0,185,190,180,190,1,3248
47.290997029,-2,-1,-2,1,4,-11,-1,1,5,109,32,11,3,-5,198,187,12,0,181,183,199,183,1,3249
47.302070141,-2,-1,-2,-4,-5,-6,-2,1,7,-7,-252,239,4,-5,194,187,12,0,191,177,177,201,1,3250
47.31309104,-2,-1,-2,4,7,-2,-1,0,7,5,155,135,1,-5,203,187,12,0,175,196,203,172,1,3251
47.341998101,-2,-1,-2,2,-5,-4,0,0,4,-180,-105,48,-1,1,206,187,12,0,185,184,175,202,1,3252
47.352873087,-2,0,-2,0,12,8,0,0,0,-61,157,199,-2,18,209,187,12,0,193,187,206,160,1,3253
47.36413312,-1,-1,-2,2,-7,8,0,0,-3,-76,-96,178,-3,14,210,187,12,0,186,194,161,205,1,3254
47.392886162,-1,-1,-2,-5,-9,-1,1,0,-5,34,-33,179,-1,16,213,187,12,0,196,176,180,195,1,3255
47.403872013,-1,-1,-2,5,0,-2,1,1,-5,-21,173,223,-12,22,213,187,12,0,173,198,195,179,1,3256
47.414841175,-1,-1,-2,-3,-1,-4,1,0,-2,18,93,86,-11,29,214,187,12,0,194,175,186,191,1,3257
47.442939043,0,-1,-2,2,12,-3,0,0,0,-73,123,80,-10,37,214,187,12,0,179,191,209,167,1,3258
47.453880072,0,-1,-2,0,-3,0,0,-1,2,131,-101,209,-10,32,218,187,12,0,188,185,171,203,1,3259
47.465105057,0,-1,-2,-2,0,-8,0,-1,3,-46,112,57,-11,42,220,187,12,0,188,179,192,187,1,3260
47.493969202,0,-1,-2,0,-1,-1,0,-1,1,-221,-209,36,-13,44,223,187,12,0,182,190,185,190,1,3261
47.505694151,0,-1,-2,-1,2,-3,0,0,-1,52,20,81,-16,34,222,187,12,0,188,182,193,183,1,3262
47.516238213,0,-1,-2,-1,-3,3,0,0,-3,-20,-239,8,-17,35,223,187,12,0,189,187,178,192,1,3263
47.548035145,0,-1,-2,0,0,13,0,1,-5,69,49,193,-16,32,219,187,12,0,191,194,183,179,1,3264
47.556189061,1,-1,-2,8,2,-1,0,1,-5,113,102,136,-10,32,214,187,12,0,174,198,192,183,1,3265
47.566404105,1,-1,-2,0,6,-5,0,0,-3,21,59,30,-8,35,210,187,12,0,190,179,197,181,1,3266
47.595180035,1,-1,-2,4,0,0,0,0,0,18,-121,18,-7,31,214,187,12,0,181,192,181,191,1,3267
47.606034994,1,-1,-3,-5,6,-6,0,0,2,141,-4,38,-1,23,212,187,12,0,196,172,198,180,1,3268
47.616830111,1,-1,-3,-10,7,3,1,0,3,-128,-202,-8,-4,24,207,187,12,0,199,177,191,179,1,3269
47.646112204,2,-1,-3,9,-3,6,2,1,3,213,-161,124,1,17,208,187,12,0,166,212,173,195,1,3270
47.656918049,1,-1,-3,-9,0,-4,1,2,1,171,-188,114,3,4,206,187,12,0,206,163,190,187,1,3271
47.667860985,1,-1,-3,5,1,2,0,4,0,-19,-227,73,4,5,204,187,12,0,172,204,188,183,1,3272
47.696997166,1,-1,-3,1,1,-4,0,4,-1,0,110,34,5,7,206,187,12,0,187,182,190,186,1,3273
47.707132101,1,-1,-3,0,5,-2,-1,3,-1,-56,5,0,1,24,210,187,12,0,186,185,194,181,1,3274
47.717952013,2,-1,-3,-1,-8,1,-2,2,0,46,-33,105,3,23,217,187,12,0,189,185,169,203,1,3275
47.74715209,2,0,-3,-13,-4,0,-1,0,0,35,71,243,1,29,222,187,12,0,205,167,187,186,1,3276
47.757905007,2,-1,-2,0,-3,9,0,0,0,78,46,101,6,23,228,187,12,0,180,200,181,184,1,3277
47.769080162,2,0,-2,-4,-2,-1,0,0,0,25,-9,11,3,15,220,187,12,0,192,180,187,187,1,3278
47.79795909,2,0,-2,0,12,-1,0,-1,0,-151,250,79,0,23,226,187,12,0,181,191,207,167,1,3279
47.808920145,2,0,-2,-13,-2,11,-1,-2,0,85,-183,12,0,13,228,187,12,0,212,170,168,196,1,3280
47.819841147,2,0,-2,11,3,-1,-3,-2,1,-191,175,131,-3,28,231,187,12,0,157,214,195,180,1,3281
47.849893093,2,0,-2,-2,0,3,-4,-1,2,77,-123,238,-2,16,226,187,12,0,201,175,181,190,1,3282
47.859649182,2,0,-2,0,-1,0,-4,0,2,-12,-9,171,-9,16,234,187,12,0,185,188,185,188,1,3283
47.870126009,2,0,-2,4,-6,-2,-4,1,3,239,-84,177,0,9,234,187,12,0,179,192,179,195,1,3284
47.898869038,2,0,-2,-10,5,0,-2,2,3,85,97,186,-1,5,236,187,12,0,206,167,200,173,1,3285
47.909999132,2,0,-2,7,-1,-4,0,2,2,33,116,204,-1,8,235,187,12,0,164,205,181,196,1,3286
47.921044112,2,0,-2,-10,2,2,0,0,1,-21,-92,220,2,0,240,187,12,0,210,165,190,181,1,3287
47.950044155,2,0,-2,9,-3,2,0,0,0,-94,-73,7,-2,-8,245,187,12,0,164,211,178,193,1,3288
47.960944176,2,0,-2,-5,-6,-4,0,-1,-1,87,-32,52,-2,-10,246,187,12,0,201,168,181,195,1,3289
47.972033978,2,0,-2,5,8,0,0,-1,-1,-168,-204,225,-6,-15,245,187,12,0,174,199,205,168,1,3290
48.003923178,1,0,-2,4,-5,-12,-1,-1,-1,172,-217,21,-2,-24,242,187,12,0,179,184,176,207,1,3291
48.011376143,1,0,-2,0,4,6,-1,-1,-1,119,-86,110,4,-30,237,187,12,0,192,187,195,173,1,3292
48.021970034,1,0,-2,3,-2,6,0,0,-1,-18,-85,89,5,-49,228,187,12,0,184,194,176,191,1,3293
48.050976038,1,0,-2,-9,1,-2,0,0,-1,-76,-20,225,5,-47,229,187,12,0,202,169,192,183,1,3294
48.067339182,0,0,-2,7,9,-2,2,0,-1,-181,-220,94,0,-52,221,187,12,0,166,204,201,174,1,3295
48.076392174,0,0,-2,-7,-5,-7,2,0,-1,42,25,128,8,-55,219,187,12,0,201,165,173,206,1,3296
48.102094174,0,0,-2,2,-1,2,2,0,0,27,25,247,2,-51,223,187,12,0,178,197,188,183,1,3297
48.112895012,0,0,-2,-6,-6,6,1,1,0,32,-100,182,5,-56,225,187,12,0,201,177,176,192,1,3298
48.123929024,0,0,-2,-2,-1,12,0,1,0,-143,-73,-72,-1,-56,212,187,12,0,189,194,185,178,1,3299
48.152978182,-1,0,-2,8,9,1,-1,0,0,-50,206,151,-1,-47,220,187,12,0,172,203,201,170,1,3300
48.163227082,-1,0,-2,1,-7,5,-2,0,0,56,-11,104,5,-48,216,187,12,0,193,184,165,203,1,3301
48.173863173,-1,0,-2,11,4,0,-2,-1,1,-145,121,109,0,-39,210,187,12,0,171,202,199,174,1,3302
48.202857018,-2,0,-2,-7,-5,-1,-1,-1,3,-3,-147,-14,0,-43,203,187,12,0,207,165,175,199,1,3303
48.213905096,-2,0,-2,1,3,-7,0,-1,5,-62,-100,51,-2,-47,206,187,12,0,175,192,199,180,1,3304
48.225138188,-2,0,-2,-8,-4,1,2,0,5,-44,169,148,-6,-46,206,187,12,0,202,172,176,195,1,3305
48.253901005,-3,0,-2,0,-2,7,3,0,4,-56,83,130,-8,-45,209,187,12,0,183,196,183,184,1,3306
48.269335986,-3,0,-2,-3,-2,7,3,0,2,-23,10,37,-9,-35,209,187,12,0,194,185,181,185,1,3307
48.275953055,-3,0,-2,3,3,0,1,0,0,-75,56,151,-15,-34,212,187,12,0,179,194,195,178,1,3308
48.304956198,-3,0,-2,9,0,-15,0,-1,0,31,160,89,-11,-25,215,187,12,0,169,191,190,195,1,3309
48.315311194,-3,0,-2,0,0,-2,-2,-1,0,-150,196,122,-20,-16,221,187,12,0,194,177,187,188,1,3310
48.326142073,-3,0,-2,5,-1,-13,-3,-1,0,-19,134,94,-25,-8,220,187,12,0,173,190,190,194,1,3311
48.355190993,-3,-1,-2,-9,-2,-6,-1,-1,0,182,-239,152,-20,-8,222,187,12,0,202,166,186,191,1,3312
48.366283179,-3,-1,-2,4,4,0,0,0,-1,130,136,172,-16,-7,219,187,12,0,173,200,196,177,1,3313
48.376986981,-3,-1,-2,-3,2,-2,2,0,-3,-23,192,43,-9,-9,214,187,12,0,194,177,187,188,1,3314
48.405839205,-3,-1,-2,10,2,2,3,0,-6,0,-236,102,-10,-14,208,187,12,0,168,206,188,183,1,3315
48.417085171,-3,-1,-2,-8,2,0,2,0,-7,-23,69,175,-12,-14,212,187,12,0,208,166,188,184,1,3316
48.42793417,-3,-1,-2,1,0,0,1,1,-7,-82,-43,-24,-16,-16,203,187,12,0,177,196,185,188,1,3317
48.457117081,-3,-1,-2,-1,-3,0,0,1,-4,-57,-178,54,-18,-14,204,187,12,0,190,182,181,193,1,3318
48.467130185,-3,-1,-2,-6,-8,-6,0,1,-2,44,49,233,-13,-19,201,187,12,0,192,176,180,198,1,3319
48.478042126,-3,-1,-2,11,8,-4,0,1,0,71,-157,44,-13,-19,196,187,12,0,162,208,207,169,1,3320
48.507075072,-4,-1,-2,-7,5,13,0,1,1,-61,-53,-73,-10,-24,184,187,12,0,213,171,182,179,1,3321
48.517932177,-3,-1,-2,6,4,0,0,0,1,-48,-27,18,-13,-22,185,187,12,0,171,203,189,184,1,3322
48.528897047,-4,-1,-2,5,-2,-5,0,0,0,-131,49,-28,-10,-20,174,187,12,0,182,187,181,196,1,3323
48.557933092,-4,-1,-2,-3,-3,6,0,0,0,-254,-142,57,-22,-22,177,187,12,0,199,179,180,188,1,3324
48.568938017,-4,-1,-3,4,3,-11,1,0,0,-34,-167,248,-25,-29,179,187,12,0,172,191,200,182,1,3325
48.578908205,-4,-2,-3,1,1,0,1,1,0,-10,-196,0,-26,-36,173,187,12,0,189,185,186,186,1,3326
48.608317137,-4,-2,-3,11,-6,-13,2,2,0,126,-176,173,-22,-38,179,187,12,0,165,197,180,204,1,3327
48.618818999,-4,-2,-3,-2,-3,3,2,2,0,62,63,115,-19,-35,175,187,12,0,202,174,185,185,1,3328
48.630120993,-4,-2,-3,-1,0,3,2,1,-1,184,58,37,-16,-26,168,187,12,0,188,188,188,182,1,3329
48.658076048,-5,-2,-3,2,3,0,2,0,-2,108,70,130,-9,-13,166,187,12,0,181,192,193,181,1,3330
48.668963194,-4,-2,-2,4,3,5,2,-1,-3,-48,78,129,-21,-6,162,187,12,0,184,193,186,183,1,3331
48.680528164,-4,-2,-2,-1,6,-3,2,-2,-3,-30,198,61,-25,7,167,187,12,0,191,180,195,180,1,3332
48.712773085,-4,-2,-2,3,1,4,2,-1,-2,54,-96,18,-23,13,172,187,12,0,182,194,182,188,1,3333
48.719014168,-4,-3,-2,6,3,3,1,0,0,121,98,2,-18,16,173,187,12,0,181,195,189,180,1,3334
48.730009079,-3,-3,-2,0,-3,0,1,1,1,-115,-106,150,-16,12,174,187,12,0,192,181,179,195,1,3335
48.758903981,-3,-3,-2,15,0,-8,1,3,2,-171,-27,175,-22,11,182,187,12,0,161,205,193,187,1,3336
48.770495177,-3,-3,-2,3,0,8,2,4,3,-52,219,95,-24,10,178,187,12,0,196,183,184,182,1,3337
48.780986071,-3,-3,-2,3,-1,-4,3,3,2,109,-105,5,-22,9,180,187,12,0,183,186,186,191,1,3338
48.809909106,-2,-3,-2,-7,6,3,4,2,1,143,-171,202,-15,7,187,187,12,0,202,174,196,174,1,3339
48.820960045,-2,-3,-2,1,-6,-11,5,1,0,10,121,157,-13,-1,181,187,12,0,173,191,176,205,1,3340
48.831341982,-2,-3,-2,-10,0,5,5,0,0,60,-238,4,-13,0,184,187,12,0,205,172,189,180,1,3341
48.85985303,-2,-3,-2,-1,0,1,4,0,-1,146,75,254,-6,-7,188,187,12,0,181,193,187,184,1,3342
48.871123076,-2,-3,-2,4,3,1,2,0,-1,228,-63,214,0,0,194,187,12,0,178,196,191,181,1,3343
48.881975174,-2,-3,-2,-1,5,3,0,0,-1,-10,101,141,-5,5,196,187,12,0,194,182,189,181,1,3344
48.910983086,-2,-3,-2,6,-5,3,-3,0,0,127,7,113,-1,1,202,187,12,0,177,199,173,197,1,3345
48.921916008,-2,-3,-2,4,6,4,-3,0,0,-60,-150,67,-1,-4,200,187,12,0,187,189,199,171,1,3346
48.93287611,-2,-3,-2,0,-12,6,-3,1,1,97,-39,171,1,-11,203,187,12,0,194,184,161,207,1,3347
48.962054015,-2,-3,-2,-10,-7,0,0,1,2,174,-192,50,8,-18,194,187,12,0,201,172,185,187,1,3348
48.972972155,-2,-2,-2,2,-1,3,1,1,3,201,123,235,12,-19,198,187,12,0,175,201,189,181,1,3349
48.98299098,-2,-2,-2,-9,-3,0,2,0,4,137,8,123,19,-17,192,187,12,0,203,170,183,190,1,3350
49.012320996,-2,-2,-2,15,14,-3,2,-2,4,-50,51,181,18,-19,187,187,12,0,155,215,212,163,1,3351
49.023285151,-2,-2,-2,-13,0,7,0,-3,3,-101,225,148,11,-7,194,187,12,0,220,156,171,197,1,3352
49.033982039,-2,-2,-2,2,1,1,0,-4,3,231,236,31,14,-5,197,187,12,0,171,203,190,183,1,3353
49.062900067,-2,-1,-2,5,0,3,-2,-3,1,211,-62,28,19,-18,196,187,12,0,182,194,182,188,1,3354
49.075217009,-2,-1,-2,2,2,-11,-2,0,1,-90,204,191,17,-7,198,187,12,0,183,181,196,186,1,3355
49.084139109,-2,-1,-2,6,2,4,-2,1,0,110,-182,192,21,-13,192,187,12,0,180,196,187,183,1,3356
49.113112212,-2,-1,-2,-7,-1,-1,0,3,0,-83,-69,73,21,-20,201,187,12,0,203,170,183,191,1,3357
49.123857022,-2,0,-2,7,1,-12,1,3,0,146,56,163,26,-14,204,187,12,0,164,199,195,188,1,3358
49.136115074,-2,0,-2,-9,-2,-5,2,3,0,-36,-117,189,24,-25,203,187,12,0,204,164,184,194,1,3359
49.163875103,-2,0,-2,2,-1,2,3,2,-1,-98,-118,160,13,-24,206,187,12,0,177,198,186,185,1,3360
49.174943209,-3,0,-3,-8,2,-9,2,0,-2,13,5,2,15,-22,214,187,12,0,198,168,194,186,1,3361
49.185972214,-3,0,-3,4,-9,-1,1,0,-4,10,-225,54,16,-27,215,187,12,0,171,200,172,203,1,3362
49.215066195,-3,0,-3,3,0,-1,0,0,-5,21,145,3,20,-25,222,187,12,0,184,188,195,178,1,3363
49.226225138,-3,0,-3,3,1,9,-1,-1,-5,25,-13,201,27,-28,219,187,12,0,188,192,185,181,1,3364
49.236397982,-3,0,-2,-5,0,5,-2,-1,-4,-57,-97,169,27,-26,224,187,12,0,200,178,181,187,1,3365
49.271016121,-3,0,-2,-19,-2,3,-1,-1,-3,104,-109,204,29,-24,229,189,12,0,215,165,184,191,1,3366
49.282051087,-3,0,-2,-1,1,-1,0,-1,-1,-90,115,105,24,-17,227,189,12,0,174,201,193,185,1,3367
49.292889119,-3,0,-2,0,-7,7,0,-1,1,207,110,80,28,-16,233,189,12,0,188,194,173,198,1,3368
49.321874142,-3,1,-2,-2,1,0,-1,-1,3,-19,-220,179,23,-29,236,189,12,0,193,184,197,180,1,3369
49.332937003,-4,1,-2,-8,-4,9,-3,-1,4,-1,-184,46,20,-35,241,189,12,0,202,183,177,192,1,3370
49.342885018,-4,1,-2,-3,0,8,-4,-1,5,-42,-72,200,26,-46,242,189,12,0,190,194,187,182,1,3371
49.372202158,-4,1,-2,2,12,3,-5,-1,4,-5,166,13,27,-46,241,189,12,0,184,196,206,168,1,3372
49.382910014,-4,1,-2,1,3,-3,-5,-1,4,15,-82,234,26,-46,240,189,12,0,186,188,185,195,1,3373
49.394297123,-4,1,-2,5,1,-11,-4,-1,4,-57,-77,114,22,-50,243,189,12,0,178,190,192,194,1,3374
49.423037052,-5,1,-2,-4,-7,0,-3,0,4,-23,-150,74,24,-45,248,189,12,0,200,178,176,201,1,3375
49.434008122,-5,2,-2,3,3,-1,-1,1,3,61,217,101,30,-39,239,189,12,0,179,196,200,178,1,3376
49.444912196,-5,2,-2,-6,-4,11,0,2,1,106,123,19,34,-41,237,189,12,0,205,181,174,194,1,3377
49.473793984,-5,2,-2,9,0,18,1,2,0,-118,39,104,28,-31,233,189,12,0,177,215,185,177,1,3378
49.484202147,-5,2,-2,-4,1,4,1,2,-1,8,48,-40,25,-26,227,189,12,0,204,176,189,185,1,3379
49.495033026,-5,2,-2,4,0,4,1,0,-1,-86,209,2,22,-24,230,189,12,0,180,201,186,187,1,3380
49.524128199,-5,2,-2,2,4,-1,0,-1,1,11,186,6,27,-13,224,189,12,0,188,187,195,183,1,3381
49.53593421,-5,2,-2,-3,0,-3,0,-1,5,-51,-2,90,22,-15,226,189,12,0,194,180,185,195,1,3382
49.546741009,-5,2,-2,12,0,-8,0,-1,7,91,149,116,19,-10,230,189,12,0,164,206,192,191,1,3383
49.575303078,-5,2,-2,0,1,-11,0,0,8,-44,-137,164,24,-22,224,189,12,0,195,172,196,191,1,3384
49.586203099,-5,3,-2,4,5,-4,1,0,5,-27,-164,115,21,-26,218,189,12,0,180,194,198,183,1,3385
49.600775004,-5,3,-2,-7,0,-8,2,1,1,176,-13,32,26,-29,223,189,12,0,200,170,188,196,1,3386
49.628247977,-5,3,-2,3,3,0,2,2,-3,-37,-234,51,17,-34,214,189,12,0,177,199,193,184,1,3387
49.636510134,-5,3,-2,0,2,-1,3,2,-7,120,-67,60,15,-31,220,189,12,0,189,186,190,189,1,3388
49.646887064,-5,3,-3,3,0,-4,2,2,-9,88,-22,237,13,-35,221,189,12,0,182,192,189,191,1,3389
49.675933123,-5,3,-3,2,0,-5,1,2,-9,37,-53,-101,10,-43,215,189,12,0,186,187,189,192,1,3390
49.687000037,-5,3,-3,4,-1,-2,0,2,-7,67,3,172,13,-44,215,189,12,0,182,193,188,191,1,3391
49.697139025,-5,3,-3,-2,-3,1,0,1,-4,116,190,105,18,-45,207,189,12,0,197,181,183,192,1,3392
49.725924015,-6,3,-3,-1,4,11,0,1,-2,-57,27,195,11,-50,205,189,12,0,193,194,194,173,1,3393
49.736879111,-6,3,-3,10,1,-8,1,0,-1,33,151,14,7,-38,211,189,12,0,168,203,190,194,1,3394
49.747977019,-6,3,-3,-8,5,3,1,0,0,-122,20,134,6,-43,210,189,12,0,212,168,195,179,1,3395
49.777059079,-6,3,-3,9,-7,2,2,0,0,17,138,212,4,-35,210,189,12,0,169,210,172,203,1,3396
49.788119078,-6,3,-3,-8,3,0,2,0,0,182,40,201,10,-19,213,189,12,0,209,169,199,177,1,3397
49.797933102,-6,3,-3,0,-2,4,1,0,1,-5,80,161,6,-19,213,189,12,0,184,196,180,193,1,3398
49.827118159,-6,3,-3,6,-5,-4,1,0,1,191,-124,173,12,-12,213,189,12,0,177,197,184,197,1,3399
49.837973118,-6,3,-2,7,1,12,0,0,1,-5,247,210,21,-3,214,189,12,0,188,199,191,176,1,3400
49.848935128,-6,3,-2,-9,-4,7,0,0,1,62,-115,233,22,-6,213,189,12,0,211,172,178,193,1,3401
49.877922058,-6,3,-2,-7,3,0,0,0,2,-6,-58,46,22,-9,207,189,12,0,192,186,197,179,1,3402
49.888800145,-5,3,-2,9,-1,-1,0,-1,2,62,-76,85,23,-14,202,189,12,0,168,208,184,194,1,3403
49.899799109,-5,3,-2,-9,-1,0,0,-2,3,-129,45,50,19,-6,205,189,12,0,210,167,188,189,1,3404
49.928970099,-5,3,-2,14,1,1,0,-2,4,31,-210,116,21,-9,197,189,12,0,161,218,192,184,1,3405
49.939188004,-5,3,-2,-8,-3,-2,0,-1,4,-68,-183,142,17,-17,196,189,12,0,212,162,183,196,1,3406
49.94984603,-5,3,-2,3,7,1,0,0,3,-25,48,172,18,-19,197,189,12,0,177,201,201,175,1,3407
49.979161024,-5,3,-2,-5,0,0,0,0,1,87,204,168,15,-17,200,189,12,0,199,177,182,195,1,3408
49.989928007,-5,3,-2,0,0,-2,0,0,0,0,-90,84,9,-20,197,189,12,0,183,192,189,190,1,3409
50.000866175,-5,3,-2,0,0,5,0,1,0,126,-22,49,13,-16,197,189,12,0,191,190,187,186,1,3410
50.030027151,-5,3,-2,-2,-9,0,0,1,-1,-44,-23,147,13,-8,196,189,12,0,192,185,174,203,1,3411
50.039884091,-5,3,-3,0,-3,-5,0,1,-1,80,153,140,15,-8,199,189,12,0,185,188,194,187,1,3412
50.056007147,-5,3,-3,-6,-1,1,-1,0,0,89,-73,86,17,-8,196,189,12,0,198,180,188,188,1,3413
50.07997799,-5,3,-3,5,5,-10,-1,0,0,-42,92,55,17,2,194,189,12,0,171,197,203,183,1,3414
50.09109807,-5,3,-2,-5,-2,7,-1,-2,0,-62,47,245,16,13,192,189,12,0,204,179,177,193,1,3415
50.102063179,-5,3,-2,-1,4,-2,-2,-3,0,77,180,175,16,12,194,189,12,0,186,189,197,182,1,3416
50.130903006,-4,3,-2,0,1,1,-1,-3,0,-10,-107,124,13,6,196,189,12,0,187,191,187,189,1,3417
50.141309023,-4,3,-3,15,5,-1,-1,-2,-1,-63,82,190,15,1,199,189,12,0,165,211,196,182,1,3418
50.151940108,-4,3,-3,-3,-2,1,-1,0,-1,-140,-195,43,11,-4,201,189,12,0,206,172,180,196,1,3419
50.181021214,-4,3,-3,3,-3,-6,0,1,-1,92,100,198,16,-7,199,189,12,0,179,193,189,194,1,3420
50.192331076,-4,3,-3,-4,-4,0,0,2,0,43,-83,34,10,-14,206,189,12,0,198,179,185,193,1,3421
50.202829123,-4,3,-3,4,2,4,2,2,0,-17,-95,189,11,-22,202,189,12,0,179,201,194,180,1,3422
50.231988192,-4,3,-3,-7,0,6,3,1,0,226,-33,90,14,-27,202,189,12,0,206,176,183,189,1,3423
50.242913008,-4,3,-3,-7,-2,-4,3,0,0,-190,-7,0,11,-17,204,189,12,0,192,181,187,194,1,3424
50.252895117,-4,3,-3,2,-5,-3,2,-1,0,76,-147,44,13,-17,209,189,12,0,177,198,185,195,1,3425
50.281905175,-4,3,-3,6,0,-6,0,-2,0,-253,-34,101,2,-11,210,189,12,0,179,193,195,188,1,3426
50.293321133,-4,3,-3,-4,0,-1,-1,-2,0,32,53,45,10,2,210,189,12,0,199,177,189,189,1,3427
50.30448103,-4,3,-3,10,5,6,-2,-2,0,47,127,77,9,6,211,189,12,0,172,210,194,177,1,3428
50.332792044,-4,3,-3,2,-1,5,-2,-2,0,23,-175,232,7,3,210,189,12,0,195,186,179,194,1,3429
50.344219208,-4,3,-3,-2,6,4,-1,-1,-1,114,100,156,9,6,217,189,12,0,197,184,198,175,1,3430
50.35402608,-3,3,-3,2,1,-3,0,0,-1,-15,-4,189,7,6,217,189,12,0,181,193,186,194,1,3431
50.382919073,-3,3,-3,-7,1,-13,2,0,0,126,-113,132,7,0,218,189,12,0,196,171,196,192,1,3432
50.394025088,-3,3,-3,0,0,-4,3,1,0,-42,-87,40,8,-3,221,189,12,0,181,193,188,193,1,3433
50.404832125,-3,3,-3,-1,-12,1,3,2,1,-121,-44,236,4,-8,220,189,12,0,192,187,169,207,1,3434
50.434183121,-3,3,-3,0,6,5,1,2,0,-60,35,180,5,-8,221,189,12,0,189,192,207,166,1,3435
50.445449114,-3,3,-3,-6,-7,5,0,1,0,197,-241,219,10,-17,221,189,12,0,201,181,169,203,1,3436
50.456175089,-3,3,-2,0,-1,13,-2,0,-2,-202,24,54,0,-24,211,189,12,0,188,200,187,179,1,3437
50.483878136,-3,3,-2,5,5,11,-3,-1,-2,-38,112,132,0,-17,217,189,12,0,184,202,194,174,1,3438
50.494898081,-3,3,-2,-7,0,3,-3,-2,0,-209,-80,36,-10,-22,213,189,12,0,206,174,183,190,1,3439
50.506052018,-3,2,-2,7,4,-5,-2,-3,2,41,189,112,-9,-17,217,189,12,0,169,204,197,184,1,3440
50.53490305,-3,2,-2,-1,-7,0,-1,-2,6,-63,-46,127,-12,-15,214,189,12,0,198,179,173,204,1,3441
50.547070027,-3,2,-3,11,7,-8,0,-1,8,50,67,65,-10,-6,221,189,12,0,167,203,210,174,1,3442
50.557128191,-3,2,-3,-6,0,3,0,0,8,-17,237,103,-12,1,228,189,12,0,209,172,181,193,1,3443
50.588014126,-3,2,-3,4,-2,6,1,2,5,-111,-62,201,-12,-7,226,189,12,0,179,203,182,190,1,3444
50.595997095,-3,2,-2,-3,0,1,2,2,2,144,139,192,-9,1,227,189,12,0,199,179,190,186,1,3445
50.608385086,-3,2,-2,2,0,0,2,2,-1,61,-24,134,0,5,234,189,12,0,182,195,188,189,1,3446
50.6358881,-3,1,-3,2,2,-5,2,1,-2,86,-110,198,2,1,228,189,12,0,185,188,195,187,1,3447
50.647268057,-3,1,-3,-3,-6,-6,1,0,-2,67,16,83,2,-3,226,189,12,0,193,178,180,203,1,3448
50.657840014,-3,1,-3,7,1,-5,0,0,-1,-93,-162,231,6,0,229,189,12,0,171,201,199,182,1,3449
50.687051058,-3,1,-3,-12,0,-1,0,0,0,62,-56,-69,4,0,220,189,12,0,213,162,186,192,1,3450
50.697838068,-2,1,-3,9,2,-2,0,0,0,15,-52,59,6,0,224,189,12,0,163,212,195,184,1,3451
50.70797205,-2,1,-3,-6,0,0,0,0,-1,-5,-104,90,4,-13,217,189,12,0,206,171,185,192,1,3452
50.737061024,-2,1,-3,4,3,4,0,0,-3,-175,13,185,-2,-11,219,189,12,0,179,202,192,182,1,3453
50.748255015,-2,1,-3,-3,-1,0,0,0,-4,104,24,133,1,-19,221,189,12,0,198,179,184,193,1,3454
50.762440205,-2,1,-3,2,-2,0,0,0,-3,-192,-247,29,-1,-33,222,189,12,0,181,196,186,191,1,3455
50.792425156,-3,1,-3,9,-5,-5,0,0,-2,198,-109,188,1,-40,222,189,12,0,175,198,185,197,1,3456
50.798827172,-3,1,-3,-1,0,2,0,0,0,-64,-155,170,0,-41,224,189,12,0,200,179,193,182,1,3457
50.80986619,-3,1,-3,3,-4,0,0,0,0,-134,26,177,-2,-43,223,189,12,0,181,196,182,196,1,3458
50.838956118,-3,1,-3,-11,-1,14,1,0,1,143,82,189,5,-36,227,189,12,0,215,174,184,181,1,3459
50.851047993,-3,1,-3,7,-1,-7,2,-1,1,184,-70,33,7,-46,229,189,12,0,165,207,190,193,1,3460
50.859932185,-4,1,-3,-8,7,2,2,-2,0,170,175,19,10,-40,229,189,12,0,209,170,199,175,1,3461
50.889110089,-4,1,-3,6,2,-6,1,-2,0,-107,-203,110,8,-36,227,189,12,0,170,202,188,194,1,3462
50.90072918,-4,1,-3,3,5,-5,0,-2,1,53,-73,135,3,-37,222,189,12,0,186,187,197,185,1,3463
50.910889149,-4,1,-3,9,0,1,0,-1,1,-38,-26,139,7,-38,225,189,12,0,178,201,184,192,1,3464
50.939884186,-4,1,-3,0,-8,-11,-1,0,0,-19,-9,77,5,-34,226,189,12,0,191,176,181,206,1,3465
50.950129032,-4,1,-3,8,0,3,0,2,0,14,-12,37,12,-40,224,189,12,0,178,203,193,180,1,3466
50.961013079,-4,1,-3,-10,-4,-5,1,3,-2,-24,-118,174,10,-57,227,189,12,0,209,163,184,197,1,3467
50.99003315,-4,1,-3,-4,1,0,3,2,-3,153,-225,76,13,-66,221,189,12,0,186,191,195,182,1,3468
51.003176213,-5,1,-3,4,1,0,4,0,-4,18,-176,53,13,-66,223,189,12,0,178,198,189,188,1,3469
51.011976004,-5,1,-3,-9,-1,-8,4,-1,-4,11,-168,245,17,-73,225,189,12,0,203,168,189,195,1,3470
51.040914059,-5,1,-3,14,1,0,2,-2,-3,-165,-129,63,13,-76,222,189,12,0,159,218,191,186,1,3471
51.050981999,-6,1,-3,-19,-3,4,0,-2,-2,-57,-81,55,8,-75,220,189,12,0,220,149,180,193,1,3472
51.0619452,-7,1,-3,6,6,0,-2,-2,-1,-69,-2,117,7,-73,222,189,12,0,163,214,201,177,1,3473
51.091060162,-7,1,-3,-3,-1,-7,-3,0,-1,86,206,187,13,-67,221,189,12,0,197,175,184,198,1,3474
51.103183031,-7,1,-3,3,0,-7,-3,0,-1,-44,135,251,13,-64,223,189,12,0,178,193,193,190,1,3475
51.112810135,-7,1,-3,3,0,3,-2,0,0,-39,159,214,7,-54,222,189,12,0,188,192,188,186,1,3476
51.141978979,-8,1,-3,-2,-8,-1,-1,1,-1,25,125,180,13,-51,226,189,12,0,195,181,176,202,1,3477
51.152966976,-8,1,-3,4,3,0,0,1,-1,73,53,27,16,-59,223,189,12,0,179,197,201,177,1,3478
51.162969113,-8,2,-3,4,-8,0,0,0,-2,40,-55,166,22,-59,226,189,12,0,186,191,173,204,1,3479
51.192023993,-8,2,-3,7,2,-13,0,0,-2,-17,-186,19,20,-75,224,189,12,0,176,190,204,183,1,3480
51.202854157,-8,2,-3,-2,-1,-1,1,-1,-2,65,-157,6,24,-77,221,189,12,0,197,179,185,194,1,3481
51.214100123,-9,2,-3,-4,7,-4,2,-2,-2,-95,-187,135,20,-84,216,189,12,0,192,181,203,178,1,3482
51.242999077,-9,2,-3,5,5,6,2,-2,-2,42,-243,165,22,-96,218,189,12,0,179,203,189,183,1,3483
51.254091978,-9,2,-3,8,8,7,2,-1,-3,229,-99,178,30,-90,217,189,12,0,184,199,193,178,1,3484
51.264799118,-10,2,-3,-1,-3,0,2,0,-3,-218,-127,77,21,-97,214,189,12,0,198,179,176,201,1,3485
51.293843985,-10,2,-3,6,-2,0,1,1,-2,-10,117,160,13,-87,215,189,12,0,177,200,187,190,1,3486
51.303910017,-10,2,-3,-3,-3,-6,1,3,-1,-150,-193,105,7,-89,213,189,12,0,196,176,188,194,1,3487
51.31507802,-11,2,-3,7,1,-5,1,4,0,240,-46,23,11,-91,211,189,12,0,173,199,196,185,1,3488
51.343897105,-11,2,-3,-8,-1,3,2,3,1,46,81,164,15,-85,216,189,12,0,209,171,183,191,1,3489
51.355111122,-12,2,-3,-8,-3,-5,2,2,1,-143,-100,131,10,-92,221,189,12,0,192,181,187,194,1,3490
51.365940094,-12,2,-3,0,-4,0,2,0,0,27,9,201,10,-90,224,189,12,0,181,195,186,192,1,3491
51.395044089,-12,2,-3,0,-2,-1,0,-2,-1,-164,226,63,6,-76,230,189,12,0,187,188,189,189,1,3492
51.405857087,-12,2,-3,0,0,-2,0,-3,-2,40,237,116,11,-70,235,189,12,0,189,186,191,188,1,3493
51.416804076,-13,2,-3,0,3,3,-2,-3,-3,-130,58,165,5,-69,236,189,12,0,190,190,192,182,1,3494
51.445944071,-13,2,-3,7,0,0,-3,-3,-3,-94,-66,155,8,-65,232,189,12,0,177,200,185,193,1,3495
51.45749712,-13,2,-3,4,4,-3,-3,-2,-2,52,154,139,4,-52,238,189,12,0,187,187,198,182,1,3496
51.468389035,-13,2,-3,3,-2,-3,-2,-1,-1,-79,120,255,4,-45,240,189,12,0,185,190,182,198,1,3497
51.496474028,-13,2,-3,-8,-4,-5,0,0,0,177,-102,73,12,-48,244,189,12,0,201,171,186,196,1,3498
51.507616997,-12,2,-4,4,2,-5,1,1,0,-10,-177,177,8,-55,250,189,12,0,173,200,199,183,1,3499
51.517910004,-12,2,-4,-10,-9,-16,3,1,0,216,-59,9,9,-48,243,189,12,0,202,162,179,211,1,3500
51.54700017,-12,2,-4,6,6,1,3,0,-1,-12,-176,224,4,-57,241,189,12,0,171,207,206,170,1,3501
51.558001042,-13,2,-4,-17,-5,-2,2,0,-3,107,-36,53,9,-53,240,189,12,0,219,157,176,203,1,3502
51.568096161,-13,2,-4,7,0,3,0,-1,-5,-19,207,250,8,-46,243,189,12,0,165,215,191,183,1,3503
51.597067118,-13,2,-4,-3,7,7,-2,-2,-7,228,29,42,14,-44,240,189,12,0,203,180,198,174,1,3504
51.608174086,-12,2,-4,1,1,-2,-3,-2,-6,-219,-65,207,9,-52,237,189,12,0,182,193,186,193,1,3505
51.618863106,-12,2,-4,1,-1,-3,-4,-1,-4,121,62,164,12,-44,234,189,12,0,186,188,187,193,1,3506
51.647908211,-12,2,-4,-5,-3,1,-4,0,-1,-154,67,179,9,-33,241,189,12,0,198,180,183,193,1,3507
51.659023047,-12,2,-4,0,4,-12,-2,0,0,47,192,184,6,-22,243,189,12,0,179,188,203,184,1,3508
51.668901205,-12,2,-4,-6,0,0,-1,1,2,-153,-18,169,2,-25,240,189,12,0,199,179,186,191,1,3509
51.697829008,-12,2,-4,5,-4,-2,0,2,1,-164,58,177,-8,-19,238,189,12,0,174,201,182,196,1,3510
51.708937168,-12,2,-4,-7,-3,4,0,1,0,-73,124,94,-6,-13,239,189,12,0,206,174,185,188,1,3511
51.719819069,-12,2,-4,3,-5,2,0,0,-2,117,-193,157,-1,-15,248,189,12,0,178,201,182,193,1,3512
51.748786211,-11,2,-4,0,5,0,-1,0,-3,-15,75,88,0,-13,241,189,12,0,192,185,201,176,1,3513
51.759984017,-11,1,-4,3,-2,-4,-1,-1,-3,-23,-49,51,-3,-20,244,189,12,0,181,193,182,198,1,3514
51.769901991,-11,1,-4,-5,0,-4,-2,-2,-2,-20,-31,44,-2,-24,238,189,12,0,198,176,192,188,1,3515
51.798860073,-11,1,-4,3,1,-3,-1,-2,0,76,123,67,0,-25,235,189,12,0,178,196,193,187,1,3516
51.809846163,-11,1,-4,-5,3,-7,0,-1,0,229,-105,136,5,-31,240,189,12,0,196,175,196,187,1,3517
51.826933146,-10,1,-4,-4,0,4,0,0,0,-227,-47,9,-2,-40,240,189,12,0,193,188,184,189,1,3518
51.855925083,-10,1,-4,6,-3,1,0,0,0,218,198,38,2,-27,243,189,12,0,176,203,182,193,1,3519
51.866832018,-11,1,-4,-13,0,4,0,1,-2,96,91,133,5,-20,246,189,12,0,215,165,191,182,1,3520
51.877834082,-10,1,-4,5,-10,-4,0,1,-3,-24,69,14,-3,-14,246,189,12,0,167,206,174,207,1,3521
51.908280135,-10,1,-4,0,6,-2,-1,1,-2,160,-23,203,2,-10,248,189,12,0,192,184,207,171,1,3522
51.917246104,-10,1,-4,6,-1,-2,-2,0,-1,145,-48,86,5,-5,246,189,12,0,178,197,182,198,1,3523
51.927951098,-9,1,-4,-2,6,-17,-2,0,0,105,-152,53,2,-7,242,189,12,0,191,173,207,184,1,3524
51.956878186,-9,1,-4,0,6,-9,-1,-1,0,60,-109,184,9,-13,245,189,12,0,183,186,197,187,1,3525
51.968273163,-9,1,-4,-2,2,-1,0,-1,0,-88,-242,76,7,-22,237,189,12,0,191,185,187,191,1,3526
51.980028153,-9,1,-4,4,2,-2,0,0,-2,-35,-60,188,10,-18,239,189,12,0,179,196,191,188,1,3527
52.00812006,-9,1,-4,-5,-7,-2,1,1,-5,-63,-4,82,2,-17,240,189,12,0,200,175,177,202,1,3528
52.01818204,-9,1,-4,-3,-2,0,1,3,-7,68,-21,249,3,-20,236,189,12,0,188,188,191,187,1,3529
52.029026985,-9,1,-4,-2,-1,2,0,4,-8,-36,-13,59,5,-11,240,189,12,0,190,189,187,187,1,3530
52.057969094,-8,1,-4,-3,-3,1,0,3,-7,-66,-6,59,-2,-18,237,189,12,0,193,185,184,192,1,3531
52.069068194,-8,1,-4,-2,0,1,-1,1,-4,167,2,128,5,-17,239,189,12,0,189,189,189,187,1,3532
52.084239006,-8,1,-4,4,-3,2,-2,0,-1,-84,-117,117,2,-26,232,189,12,0,180,199,183,192,1,3533
52.108978033,-8,1,-4,5,4,6,-3,-2,0,-110,171,199,2,-23,227,189,12,0,188,194,196,176,1,3534
52.119824171,-8,1,-4,-5,1,4,-3,-3,2,-64,-138,104,3,-25,232,189,12,0,203,178,186,187,1,3535
52.130095005,-8,1,-4,6,-2,-8,-2,-3,3,-72,154,229,0,-31,228,189,12,0,171,199,186,198,1,3536
52.158950091,-8,1,-4,-5,2,-2,0,-2,3,191,166,153,7,-30,231,189,12,0,202,174,195,183,1,3537
52.170228005,-8,1,-4,4,5,3,0,0,3,-144,89,5,0,-25,230,189,12,0,179,201,193,181,1,3538
52.180848122,-8,1,-4,0,-3,-2,1,0,1,83,-217,95,7,-26,228,189,12,0,191,184,180,199,1,3539
52.209945202,-8,1,-4,0,-1,-12,1,1,0,-254,-193,30,-3,-30,235,189,12,0,182,185,194,193,1,3540
52.222349167,-8,1,-4,-4,3,-4,1,2,0,78,-46,210,-1,-27,234,189,12,0,194,179,197,184,1,3541
52.231932164,-8,1,-4,3,1,-6,0,1,-2,-2,-145,81,-4,-29,241,189,12,0,177,195,191,191,1,3542
52.260895014,-8,1,-4,-4,-8,2,0,1,-3,207,140,101,1,-31,238,189,12,0,199,180,173,202,1,3543
52.270956993,-8,1,-4,5,-8,5,0,0,-4,-65,37,21,-6,-31,237,189,12,0,179,202,181,192,1,3544
52.281934977,-8,1,-4,0,3,8,0,0,-5,187,239,196,4,-17,237,189,12,0,198,186,196,174,1,3545
52.310854197,-8,1,-4,-8,2,13,0,-1,-4,-35,78,135,-6,-16,236,189,12,0,206,181,184,183,1,3546
52.322122097,-8,0,-4,-6,0,3,0,-2,-2,208,63,51,2,-16,233,189,12,0,192,188,187,188,1,3547
52.334057093,-7,0,-4,1,5,1,0,-2,0,-137,57,14,-1,-20,229,189,12,0,182,196,195,181,1,3548
52.36187315,-7,0,-4,0,3,-11,-1,-2,4,-57,138,79,0,-10,226,189,12,0,185,183,194,193,1,3549
52.373177052,-7,0,-4,-12,2,1,-2,-1,7,-11,121,86,4,-8,231,189,12,0,208,170,190,186,1,3550
52.383134127,-7,0,-4,4,-9,4,-2,0,7,-33,151,158,5,-7,239,189,12,0,173,207,170,204,1,3551
52.412060976,-7,0,-4,0,-4,2,-3,2,6,66,-248,112,4,-9,231,189,12,0,194,185,189,186,1,3552
52.42326808,-7,0,-4,-2,-2,14,-4,2,2,32,134,7,5,-7,235,189,12,0,197,192,183,182,1,3553
52.434128046,-7,0,-4,-6,-1,2,-3,2,0,-17,11,39,5,-6,229,189,12,0,197,182,186,189,1,3554
52.462911129,-7,0,-4,3,8,2,-3,0,-1,99,-155,31,8,-9,235,189,12,0,179,200,201,173,1,3555
52.473877192,-7,0,-3,0,-1,5,-2,-1,0,5,-136,196,6,-15,238,189,12,0,193,188,177,195,1,3556
52.48478818,-6,0,-3,0,5,-5,-1,-3,2,187,17,164,5,-12,232,189,12,0,187,185,201,181,1,3557
52.514042139,-6,1,-3,-7,-2,-4,0,-2,4,-89,-138,241,9,-8,232,189,12,0,197,176,181,200,1,3558
52.524034977,-6,0,-3,-1,-4,0,0,-1,5,22,-156,199,4,-17,229,189,12,0,185,192,185,193,1,3559
52.534893036,-6,0,-3,-4,-2,3,0,0,5,96,164,189,4,-15,231,189,12,0,195,185,187,187,1,3560
52.568395138,-6,0,-3,-3,0,12,0,1,2,-7,-232,188,4,-23,235,189,12,0,194,193,186,181,1,3561
52.574958086,-6,1,-3,-2,4,5,-1,1,0,18,-75,156,1,-30,234,189,12,0,192,189,193,180,1,3562
52.586045981,-6,1,-3,4,1,7,-2,1,-1,-44,5,43,-10,-23,233,189,12,0,182,201,184,187,1,3563
52.614917994,-6,0,-3,-1,-5,-2,-3,0,0,40,217,165,-11,-13,236,189,12,0,194,181,180,199,1,3564
52.626235009,-6,0,-3,0,3,2,-3,-1,1,-70,-206,140,-14,-9,241,189,12,0,188,191,197,178,1,3565
52.637133122,-6,0,-3,0,-10,-4,-2,-1,4,110,-120,126,-9,-6,249,189,12,0,186,188,173,208,1,3566
52.665991068,-6,0,-3,-8,1,-7,-1,-1,5,9,-45,163,-8,-12,248,189,12,0,198,172,203,181,1,3567
52.675919056,-5,0,-3,8,0,-6,0,0,5,-78,-99,160,-9,-15,250,189,12,0,166,205,190,193,1,3568
52.687024117,-5,0,-3,-7,2,1,0,-1,3,83,-11,103,-8,-14,246,189,12,0,208,171,191,185,1,3569
52.716281176,-5,0,-3,8,4,-3,0,-1,0,-3,-145,171,-14,-18,243,189,12,0,168,207,194,185,1,3570
52.726940155,-6,0,-3,-13,1,3,0,-1,-3,-18,-243,16,-6,-17,242,189,12,0,217,163,186,188,1,3571
52.738072157,-6,0,-3,2,0,0,0,-1,-5,123,105,73,-7,-21,234,189,12,0,174,203,188,189,1,3572
52.766945124,-5,0,-3,-3,-7,0,-1,0,-5,-171,-197,159,-10,-23,235,189,12,0,196,181,178,200,1,3573
52.777757168,-5,0,-3,10,-4,0,-1,0,-4,16,-195,36,-6,-32,231,189,12,0,169,207,188,190,1,3574
52.788630009,-5,0,-3,-7,1,4,-1,1,-1,74,44,189,-3,-21,227,189,12,0,210,171,192,181,1,3575
52.817265034,-5,0,-3,0,0,11,-1,1,0,24,112,85,-1,-22,229,189,12,0,186,200,181,186,1,3576
52.827852011,-5,0,-3,-6,2,6,-1,0,2,12,-89,236,-5,-29,225,189,12,0,201,182,190,182,1,3577
52.842934132,-5,0,-3,6,-2,2,0,-1,3,-237,-174,230,-7,-35,224,189,12,0,175,204,183,192,1,3578
52.867952109,-6,0,-3,-8,5,-9,0,-2,4,238,46,95,-10,-22,218,189,12,0,203,167,203,182,1,3579
52.879814148,-6,0,-3,-4,-1,0,0,-2,4,-20,94,197,-4,-15,216,189,12,0,187,189,182,195,1,3580
52.890119076,-6,0,-3,-4,0,0,0,-1,4,208,-124,51,-1,-17,218,189,12,0,191,186,189,188,1,3581
52.919022084,-6,0,-3,1,2,0,-1,0,3,-50,-89,45,-2,-22,211,189,12,0,184,194,192,184,1,3582
52.930144072,-5,0,-3,11,7,0,-2,1,1,-126,-181,246,-10,-30,214,189,12,0,173,204,198,179,1,3583
52.939984084,-5,0,-3,2,0,6,-3,1,0,111,-34,236,-6,-38,213,189,12,0,197,185,179,193,1,3584
52.969076157,-6,0,-3,3,0,-8,-2,2,-1,29,104,164,-10,-42,213,189,12,0,182,189,191,193,1,3585
52.980254174,-6,0,-3,-1,4,16,-1,2,-1,8,-155,221,-2,-47,215,189,12,0,200,191,189,175,1,3586
52.990957022,-6,0,-3,1,6,-2,0,2,-1,47,-6,222,-6,-49,213,189,12,0,185,191,195,184,1,3587
53.019891024,-6,0,-3,-8,-2,0,2,2,0,6,-108,91,-3,-53,214,189,12,0,203,174,179,198,1,3588
53.031180144,-6,0,-3,8,-5,0,4,2,1,210,98,190,3,-48,217,189,12,0,169,209,182,194,1,3589
53.042018175,-6,0,-3,-6,-3,4,3,2,3,119,10,116,6,-51,212,189,12,0,208,173,185,188,1,3590
53.070854187,-7,0,-3,9,5,3,2,1,3,-199,-62,43,2,-56,209,189,12,0,171,209,199,175,1,3591
53.080945015,-7,0,-3,-12,1,7,0,0,3,0,88,57,0,-48,207,189,12,0,217,166,183,188,1,3592
53.091925145,-7,0,-3,7,3,-1,-1,0,2,-101,-239,-46,-2,-57,200,189,12,0,166,210,194,184,1,3593
53.120904208,-7,0,-3,-4,3,-5,-1,-1,2,65,9,119,6,-57,208,189,12,0,200,172,192,189,1,3594
53.132234097,-8,0,-3,2,7,-2,-1,0,2,-169,-118,92,0,-56,203,189,12,0,180,195,198,181,1,3595
53.14292717,-8,0,-3,2,-6,2,0,0,2,136,-61,194,2,-61,209,189,12,0,188,191,171,204,1,3596
53.172221184,-8,0,-3,-8,-3,-5,0,1,1,-165,-230,50,-6,-67,213,189,12,0,201,172,191,190,1,3597
53.182911158,-8,0,-3,10,6,-2,0,2,0,4,-132,-103,-3,-67,204,189,12,0,165,210,202,177,1,3598
53.193991185,-8,0,-3,-10,-2,4,0,3,0,8,61,93,-4,-61,208,189,12,0,215,166,177,196,1,3599
53.223082066,-9,0,-3,7,1,-6,0,2,-1,-54,-86,127,-8,-68,207,189,12,0,165,207,195,187,1,3600
53.233153105,-9,0,-3,-1,-1,11,0,1,-2,82,-199,219,0,-67,207,189,12,0,202,185,180,188,1,3601
53.244259119,-9,0,-3,-2,0,-5,0,0,-2,229,64,22,5,-57,210,189,12,0,189,184,193,189,1,3602
53.272948027,-9,0,-3,2,1,0,0,0,-1,89,-81,9,15,-66,210,189,12,0,182,195,190,187,1,3603
53.284257174,-9,0,-2,10,-7,4,0,0,0,70,192,245,16,-66,212,189,12,0,177,203,174,199,1,3604
53.295022011,-10,0,-2,-1,8,0,0,0,0,130,61,80,21,-53,210,189,12,0,200,177,208,168,1,3605
53.323855162,-10,0,-2,0,3,5,0,0,1,-224,-250,104,13,-56,203,189,12,0,189,192,184,189,1,3606
53.334877014,-10,0,-2,-2,5,0,1,0,1,-42,-49,231,11,-50,205,189,12,0,193,184,194,183,1,3607
53.345894099,-10,0,-2,8,4,-1,2,0,1,-7,34,103,13,-47,197,189,12,0,174,202,191,187,1,3608
53.374945164,-10,0,-2,-4,-13,3,2,1,1,-54,-4,179,10,-46,199,189,12,0,204,176,162,212,1,3609
53.385085106,-10,0,-3,1,3,-8,2,2,1,-42,-74,11,15,-45,201,189,12,0,180,191,208,176,1,3610
53.39608717,-10,0,-3,-3,-6,-2,1,2,1,24,64,106,22,-37,204,189,12,0,194,181,177,202,1,3611
53.425015211,-10,0,-3,0,-1,-2,0,2,0,-243,-79,187,13,-42,206,189,12,0,185,190,192,187,1,3612
53.435895205,-10,1,-2,0,-1,12,0,0,0,35,51,57,18,-29,204,189,12,0,192,195,183,184,1,3613
53.44680214,-10,1,-2,-1,0,12,0,-1,-1,-108,239,-3,15,-18,203,189,12,0,196,191,183,184,1,3614
53.476441145,-10,1,-2,8,6,1,-1,-3,-1,98,167,55,16,-21,206,189,12,0,175,203,199,177,1,3615
53.488428116,-10,1,-2,2,-1,5,-1,-3,0,51,-96,122,17,-27,200,189,12,0,195,187,178,195,1,3616
53.49785614,-10,1,-2,-3,3,2,0,-3,1,198,245,218,21,-18,200,189,12,0,197,182,195,180,1,3617
53.526887179,-10,1,-2,-7,0,6,0,-1,4,208,-135,110,32,-17,203,189,12,0,199,183,181,190,1,3618
53.53690815,-9,1,-2,5,-5,7,1,0,6,-51,-128,124,25,-28,211,189,12,0,177,206,178,193,1,3619
53.552363158,-9,1,-2,-12,3,10,1,1,7,-89,114,19,23,-28,212,189,12,0,217,169,194,174,1,3620
53.577306986,-9,1,-2,3,-5,12,1,2,7,130,-74,154,21,-26,215,189,12,0,177,210,172,195,1,3621
53.588888169,-9,2,-2,-1,0,0,0,1,6,45,-96,15,24,-20,214,189,12,0,194,183,193,184,1,3622
53.598862172,-9,2,-2,-3,3,-3,-1,0,6,-166,211,32,23,-10,215,189,12,0,191,183,196,184,1,3623
53.627825022,-9,2,-2,-9,-7,0,-3,0,6,177,-78,143,25,-11,213,189,12,0,198,178,174,203,1,3624
53.639047146,-9,2,-2,1,3,-3,-3,-1,6,80,73,201,26,-6,214,189,12,0,177,197,201,179,1,3625
53.648912192,-9,2,-2,-5,-8,4,-3,-2,5,-39,-93,41,25,-11,209,189,12,0,200,181,171,202,1,3626
53.678083182,-8,2,-2,8,2,-4,-3,-2,3,82,41,225,25,-9,210,189,12,0,170,203,201,179,1,3627
53.6889112,-8,2,-2,-3,0,5,-3,-1,1,2,-21,118,25,-7,210,189,12,0,203,178,183,189,1,3628
53.6999681,-8,3,-2,8,5,-2,-2,-1,0,-1,-163,57,20,-20,213,189,12,0,172,203,199,180,1,3629
53.731157065,-8,3,-2,-9,4,3,-1,-1,-1,-39,228,164,16,-15,215,189,12,0,211,169,188,186,1,3630
53.738989115,-8,3,-2,0,0,7,0,0,-1,-75,17,162,19,-6,211,189,12,0,184,198,182,190,1,3631
53.749983073,-8,3,-2,-5,2,-8,0,0,0,166,-122,5,23,-12,210,189,12,0,193,177,196,188,1,3632
53.779006005,-7,3,-2,4,2,2,0,1,0,-239,215,200,20,0,216,189,12,0,177,202,190,185,1,3633
53.790440083,-7,3,-2,-9,-6,5,0,2,1,88,142,36,14,2,208,189,12,0,208,173,175,198,1,3634
53.801237107,-7,3,-2,13,3,5,0,2,2,-76,36,58,16,6,213,189,12,0,164,218,197,175,1,3635
53.829944134,-7,3,-2,-8,-5,9,-1,2,2,115,122,238,16,17,208,189,12,0,216,168,173,196,1,3636
53.841005087,-6,3,-2,2,-2,-2,-2,1,1,-160,-34,107,16,22,203,189,12,0,176,199,191,189,1,3637
53.852347136,-6,3,-2,-6,0,7,-1,0,2,35,-39,89,17,24,214,189,12,0,203,180,188,183,1,3638
53.879907132,-6,3,-2,0,-5,-11,-1,0,2,-46,18,-9,15,23,205,189,12,0,179,189,185,201,1,3639
53.891139984,-5,3,-2,-6,0,1,0,-2,3,49,-154,133,18,21,205,189,12,0,198,180,193,183,1,3640
53.901912213,-5,3,-2,0,-7,-1,0,-2,3,116,-23,22,19,19,207,189,12,0,183,193,178,200,1,3641
53.930989981,-5,3,-2,5,7,2,0,-2,2,-64,69,104,11,20,202,189,12,0,182,197,204,171,1,3642
53.942012072,-5,3,-1,-14,0,7,-1,-2,1,-3,41,226,9,23,201,189,12,0,217,165,181,191,1,3643
53.956394196,-4,3,-1,3,5,1,-2,-2,0,198,20,1,12,25,202,189,12,0,171,207,196,179,1,3644
53.981858015,-4,3,-1,-4,2,-6,-2,-1,-1,18,-131,207,10,7,198,189,12,0,196,175,190,192,1,3645
53.991962195,-4,3,-1,-7,4,3,-2,0,0,-166,-134,104,11,10,198,189,12,0,198,183,192,182,1,3646
54.003010035,-4,3,-1,7,3,-9,-2,1,0,-22,-204,101,12,6,195,189,12,0,168,202,194,190,1,3647
54.031911135,-4,3,-1,0,-5,-4,-2,2,0,-18,-162,93,11,1,201,189,12,0,192,181,179,202,1,3648
54.04293418,-3,3,-1,5,-2,-3,-2,3,0,190,-206,-13,17,-3,196,189,12,0,179,195,191,189,1,3649
54.056054116,-3,3,-1,4,0,-2,-2,4,0,102,195,14,21,3,197,189,12,0,186,189,190,189,1,3650
54.082929135,-3,3,-1,-6,-1,7,-1,3,-1,-99,-179,110,11,-2,197,189,12,0,204,179,184,187,1,3651
54.093063116,-3,3,-1,6,-3,-2,0,1,-3,40,-59,13,19,-2,199,189,12,0,173,202,185,194,1,3652
54.104202986,-3,3,-1,-8,-2,0,2,0,-4,115,143,56,21,-6,199,189,12,0,206,171,188,189,1,3653
54.133119107,-3,3,-1,6,1,9,2,-2,-3,31,3,77,24,-5,201,189,12,0,175,210,189,180,1,3654
54.144025088,-3,3,-2,-3,0,-9,2,-3,-1,57,-24,126,23,-16,196,189,12,0,196,173,192,193,1,3655
54.154978037,-3,3,-2,7,5,-2,1,-3,0,-137,9,234,18,-14,199,189,12,0,174,201,197,181,1,3656
54.183843136,-3,3,-2,3,1,-8,0,-2,1,218,-67,22,19,-22,200,189,12,0,185,185,190,194,1,3657
54.195242167,-3,4,-2,-3,4,6,0,-1,2,113,-196,78,16,-30,193,189,12,0,199,183,191,181,1,3658
54.204819203,-3,4,-2,9,-1,-2,0,0,1,-25,-15,40,17,-27,191,189,12,0,170,204,183,196,1,3659
54.234162093,-3,4,-2,-9,0,-4,0,2,0,-123,27,233,16,-29,190,189,12,0,209,165,193,188,1,3660
54.245140076,-3,4,-2,0,2,3,1,3,-2,165,0,10,17,-27,186,189,12,0,181,199,191,183,1,3661
54.256007195,-4,4,-2,-11,4,-3,2,3,-3,-205,-119,136,11,-28,189,189,12,0,204,170,195,185,1,3662
54.284187079,-4,4,-2,1,-7,3,1,2,-3,110,46,37,18,-32,190,189,12,0,178,202,172,202,1,3663
54.294998169,-4,4,-1,-10,-5,4,0,2,-2,47,121,208,14,-20,191,189,12,0,208,173,184,190,1,3664
54.306041003,-4,4,-1,5,-4,2,-1,1,-1,112,166,176,15,-24,191,189,12,0,173,207,186,189,1,3665
54.334959984,-4,4,-1,0,4,5,-3,0,0,-52,66,-16,15,-14,189,189,12,0,196,186,196,177,1,3666
54.345413208,-4,4,-2,-1,0,-8,-4,-1,1,-99,205,254,10,-10,190,189,12,0,187,183,190,194,1,3667
54.356081009,-4,4,-2,0,7,4,-4,-2,2,-72,-187,177,9,-14,191,189,12,0,190,191,198,176,1,3668
54.385094166,-4,4,-2,2,3,0,-3,-2,3,-61,-1,80,7,-10,185,189,12,0,184,193,187,190,1,3669
54.396345139,-4,4,-2,-2,6,-2,-2,-1,2,108,177,72,11,-11,190,189,12,0,194,182,196,182,1,3670
54.406980992,-4,4,-2,0,-2,4,0,0,1,-17,-234,-72,12,-24,184,189,12,0,188,192,178,195,1,3671
54.436875105,-4,4,-2,2,3,0,0,2,0,63,27,249,10,-14,190,189,12,0,185,192,196,181,1,3672
54.446876049,-4,4,-1,-9,-1,13,1,4,0,-72,247,69,14,-13,186,189,12,0,211,177,177,189,1,3673
54.456934214,-4,4,-1,1,0,15,0,4,0,-13,93,228,11,-14,191,189,12,0,184,206,184,180,1,3674
54.485894204,-4,4,-1,-3,0,10,0,4,0,64,161,38,15,-5,191,189,12,0,199,186,184,185,1,3675
54.496850014,-4,4,-1,4,-1,0,0,3,3,-213,206,133,7,-3,195,189,12,0,179,197,187,190,1,3676
54.507961035,-4,4,-1,5,-3,-12,-1,1,5,58,-33,253,12,-3,198,189,12,0,179,187,190,198,1,3677
54.53698206,-4,4,-1,4,0,3,-2,0,8,52,240,98,12,3,192,189,12,0,188,192,189,185,1,3678
54.548280001,-4,3,-1,-7,-3,1,-1,-1,9,-37,-191,123,13,-1,195,189,12,0,203,175,183,193,1,3679
54.560456992,-4,3,-1,5,3,3,0,-2,7,115,56,4,14,10,192,189,12,0,176,203,196,178,1,3680
54.587074042,-4,3,-1,-10,3,13,1,-2,3,22,-60,68,12,15,187,189,12,0,214,173,186,181,1,3681
54.597934008,-3,3,-1,8,-9,-3,1,-1,0,177,216,27,18,19,185,189,12,0,166,208,172,208,1,3682
54.608891011,-3,3,-1,-3,2,1,1,-1,-1,159,19,143,22,25,183,189,12,0,202,176,201,175,1,3683
54.638020039,-3,3,-1,8,2,-12,1,0,0,-33,-41,101,10,10,179,189,12,0,168,199,195,192,1,3684
54.650758982,-3,4,-1,-9,10,3,0,0,0,153,100,18,13,29,181,189,12,0,210,170,201,173,1,3685
54.660003186,-2,4,-1,5,-1,-1,0,0,1,-217,-217,212,12,27,183,189,12,0,173,203,178,200,1,3686
54.687906027,-2,4,-1,-1,-4,-6,0,0,2,31,-66,169,20,24,191,189,12,0,193,179,186,196,1,3687
54.698956013,-1,4,-1,6,-5,2,0,1,0,-26,-94,75,20,19,191,189,12,0,178,201,182,193,1,3688
54.710072041,-1,4,-1,-2,-6,0,0,1,0,52,43,232,16,26,197,189,12,0,198,179,183,194,1,3689
54.738900185,-1,4,-1,-9,5,0,0,1,-2,-179,-62,154,9,19,201,189,12,0,200,178,203,174,1,3690
54.750008107,-1,4,-1,-7,2,10,0,0,-3,103,-255,153,14,17,195,189,12,0,197,189,183,185,1,3691
54.760901213,-1,4,-1,2,0,0,0,-1,-2,18,244,111,14,25,198,189,12,0,179,199,186,190,1,3692
54.789839983,0,4,-1,-4,6,3,0,-2,-1,50,-220,68,12,16,205,189,12,0,199,181,197,178,1,3693
54.800980091,0,4,-1,-11,-5,-6,-2,-2,0,-122,-97,158,8,0,207,189,12,0,199,173,177,205,1,3694
54.811166048,0,3,-1,4,0,-1,-3,-1,2,53,175,165,14,18,214,189,12,0,173,203,194,184,1,3695
54.840190173,0,3,-1,-1,0,6,-4,0,3,-26,-57,225,11,10,214,189,12,0,198,185,186,186,1,3696
54.851098061,0,4,-1,0,6,4,-5,1,3,255,206,148,12,17,217,189,12,0,188,192,196,178,1,3697
54.861914158,0,4,-1,1,7,12,-4,1,2,-165,192,143,5,33,218,189,12,0,191,196,189,177,1,3698
54.893172026,0,3,-1,1,0,0,-3,1,1,-134,-28,212,2,26,216,189,12,0,188,189,182,195,1,3699
54.901909113,0,4,-1,4,6,-7,-1,1,1,-44,-211,41,4,20,218,189,12,0,180,191,201,182,1,3700
54.912809134,0,3,-1,7,-4,-7,0,2,1,-38,-17,223,0,20,217,189,12,0,178,193,180,203,1,3701
54.941850186,0,3,-1,-10,0,3,1,2,2,203,-113,246,9,20,220,189,12,0,212,168,191,183,1,3702
54.951892138,0,3,-1,5,-4,-7,2,3,2,-76,5,117,4,19,215,189,12,0,169,202,185,198,1,3703
54.964255095,0,3,-1,-10,-6,0,2,2,1,131,-71,22,7,14,217,189,12,0,209,169,182,194,1,3704
54.992048979,0,3,-1,5,8,-2,2,1,0,-95,117,112,1,13,222,189,12,0,170,205,208,172,1,3705
55.003304005,0,3,-1,-10,-4,4,1,0,-2,37,-215,31,4,6,229,189,12,0,211,170,173,200,1,3706
55.018409014,0,3,-1,15,10,-5,0,-1,-3,-50,131,164,5,10,234,189,12,0,155,218,211,170,1,3707
55.042951107,0,3,-1,-3,0,1,-1,-2,-3,131,-8,167,10,9,233,189,12,0,206,172,178,198,1,3708
55.054002047,1,3,-1,6,-7,-1,-2,-1,-2,-20,-83,207,11,6,236,189,12,0,176,200,178,200,1,3709
55.064154148,1,3,-1,-6,-7,-2,-1,0,-1,5,104,119,8,5,238,189,12,0,203,173,185,194,1,3710
55.092935086,0,2,-1,-8,-8,5,0,0,0,97,-108,216,11,8,245,189,12,0,198,184,180,193,1,3711
55.106831074,0,3,-1,-6,2,7,0,0,0,192,-158,36,14,-2,246,189,12,0,195,188,197,174,1,3712
55.114924193,0,3,-1,0,0,13,1,0,0,-84,-18,244,14,-9,250,189,12,0,190,199,181,184,1,3713
55.144075156,0,3,-1,-6,-1,6,0,-2,1,138,83,59,18,-9,246,189,12,0,200,182,184,188,1,3714
55.154812098,0,3,-1,0,-1,-1,-1,-3,2,-63,198,123,15,-15,248,189,12,0,183,193,189,190,1,3715
55.164998055,0,3,-1,-3,-12,-1,-3,-4,4,9,65,3,20,-18,245,189,12,0,192,184,172,206,1,3716
55.194169045,0,3,-1,1,3,-2,-5,-4,5,86,-24,202,21,-18,244,189,12,0,183,192,205,174,1,3717
55.204982996,0,3,-1,-13,-3,-3,-5,-3,6,205,-76,177,25,-26,252,189,12,0,209,165,181,198,1,3718
55.21590519,0,3,-1,4,0,-4,-5,-2,5,-62,-72,72,24,-29,251,189,12,0,168,205,193,188,1,3719
55.245028019,0,3,-1,15,6,-5,-3,-1,3,-29,143,76,21,-34,253,189,12,0,166,206,200,181,1,3720
55.258745194,0,3,-1,6,0,2,-2,-1,0,-156,-89,157,16,-34,255,189,12,0,193,186,182,193,1,3721
55.267115116,0,3,-1,10,7,2,0,-1,-3,-78,77,187,10,-38,3,189,12,0,179,200,198,176,1,3722
55.296470166,0,3,-1,-10,-10,-1,1,0,-4,-37,-67,1,5,-46,6,189,12,0,213,163,167,211,1,3723
55.308056116,0,3,-1,10,0,-13,3,0,-5,40,-128,121,13,-42,6,189,12,0,159,207,203,185,1,3724
55.317401171,-1,3,-1,-14,-2,0,5,0,-4,195,-191,207,14,-56,4,189,12,0,218,159,185,193,1,3725
55.345888138,-1,3,-1,8,-3,0,6,1,-2,-106,-20,-6,17,-51,255,189,12,0,164,213,185,192,1,3726
55.356981039,-1,3,-1,-4,-2,0,5,0,-1,32,34,236,11,-42,250,189,12,0,202,174,189,189,1,3727
55.368151188,-2,3,-1,10,-8,10,3,0,-1,-29,-16,190,10,-34,253,189,12,0,174,212,174,194,1,3728
55.396934986,-2,3,-1,0,10,2,0,-2,-1,188,237,-6,14,-29,247,189,12,0,198,180,210,165,1,3729
55.407889128,-2,3,-1,5,2,-2,-1,-3,-1,122,109,187,21,-18,248,189,12,0,178,197,185,194,1,3730
55.418917179,-2,3,-1,-6,-4,0,-1,-3,0,-86,7,141,17,-5,248,189,12,0,202,174,180,198,1,3731
55.448016167,-2,3,-1,-2,5,6,0,-3,0,77,216,4,18,-6,245,189,12,0,190,192,198,174,1,3732
55.458254099,-2,3,-1,0,1,-4,0,-1,1,8,58,0,17,0,243,189,12,0,186,188,189,192,1,3733
55.468932152,-2,3,-1,-3,3,-12,1,0,2,203,-57,205,25,1,244,189,12,0,188,179,198,189,1,3734
55.497895003,-2,3,-2,4,4,-10,1,1,2,-120,7,181,14,-2,245,189,12,0,174,195,197,189,1,3735
55.509074211,-2,3,-1,-1,0,5,0,2,0,6,13,91,22,5,241,189,12,0,196,185,183,190,1,3736
55.519961119,-2,3,-1,-3,3,6,0,3,-1,-10,53,117,15,1,241,189,12,0,195,187,191,181,1,3737
55.549000979,-2,3,-1,4,-6,8,-1,3,-3,-39,141,136,18,0,247,189,12,0,183,201,173,197,1,3738
55.561532021,-2,3,-1,-8,-1,2,-1,2,-5,21,34,2,22,8,248,189,12,0,205,174,191,184,1,3739
55.570937157,-1,3,-1,7,-1,-3,-1,2,-4,-13,-39,112,23,12,250,189,12,0,170,205,188,192,1,3740
55.600224018,-1,3,-1,2,1,-7,0,1,-1,83,-198,26,26,8,245,189,12,0,187,183,196,188,1,3741
55.612171173,-1,3,-1,8,-1,-2,0,0,1,-143,12,74,17,11,247,189,12,0,177,198,186,194,1,3742
55.620900154,-1,3,-1,-5,0,12,0,-1,3,236,-131,242,25,8,250,189,12,0,209,178,185,182,1,3743
55.650298119,-1,3,-1,-4,4,-7,1,-1,3,-196,-23,39,17,2,244,189,12,0,187,184,199,184,1,3744
55.661003113,-1,3,-1,5,4,7,2,-1,1,-123,43,215,16,1,240,189,12,0,181,203,187,183,1,3745
55.671929121,-1,3,-1,-11,-3,6,2,-1,0,-207,197,162,10,11,237,189,12,0,212,170,176,195,1,3746
55.701029063,0,3,-1,8,-1,7,1,0,0,-97,-157,72,9,-2,235,189,12,0,169,214,186,185,1,3747
55.711825133,-1,3,-1,-11,-5,6,0,1,0,-203,-65,231,0,2,237,189,12,0,216,166,179,193,1,3748
55.72311306,-1,3,-1,-2,0,-7,0,1,1,38,73,103,2,13,240,189,12,0,179,192,195,188,1,3749
55.752031088,-1,3,-1,-7,0,-1,-1,1,3,117,-228,34,5,4,238,189,12,0,196,179,191,187,1,3750
55.762903214,-1,3,-1,-2,-4,-9,-3,0,5,51,-33,43,4,6,234,189,12,0,182,187,185,200,1,3751
55.772915125,-1,3,-1,-3,4,5,-3,-1,5,-83,93,31,-2,12,234,189,12,0,193,188,196,177,1,3752
55.80193615,0,3,-1,6,-5,0,-4,-2,3,149,22,32,3,13,235,189,12,0,177,200,177,200,1,3753
55.812808037,0,3,-1,1,1,2,-4,-2,0,93,11,63,1,12,241,189,12,0,193,186,194,181,1,3754
55.824099064,0,2,-1,8,-1,-3,-3,-2,-2,-164,-21,69,0,6,240,189,12,0,175,199,187,193,1,3755
55.852860213,0,2,-1,-11,2,4,-2,-1,-3,161,79,85,9,6,236,189,12,0,214,166,191,183,1,3756
55.863967181,0,2,-1,10,-7,-4,0,0,-3,40,25,192,8,14,235,189,12,0,162,211,177,203,1,3757
55.876291991,0,2,-1,-8,2,7,1,0,-1,203,-53,195,8,15,229,189,12,0,213,170,195,176,1,3758
55.903923989,0,2,-1,8,4,-7,2,0,0,-190,189,38,5,28,235,189,12,0,165,206,197,186,1,3759
55.916474104,0,2,-1,-12,3,9,2,0,1,109,138,15,8,27,233,189,12,0,218,167,185,184,1,3760
55.924858094,0,2,-1,7,0,-2,1,0,1,-171,-8,-9,8,23,229,189,12,0,167,208,188,191,1,3761
55.954011202,0,2,-1,-4,0,7,0,0,1,59,-83,45,11,19,232,189,12,0,204,180,183,187,1,3762
55.964980126,0,2,-1,9,-3,-2,0,0,1,-169,-223,147,8,15,229,189,12,0,170,205,184,195,1,3763
55.975990057,0,2,-1,-8,0,-1,-1,1,1,88,183,255,9,23,233,189,12,0,208,169,192,186,1,3764
56.00503707,0,2,-1,-5,-1,5,-1,1,1,-145,109,80,1,31,236,189,12,0,193,189,184,188,1,3765
56.016007185,0,2,-1,-7,1,-4,-1,1,1,239,-80,94,9,29,245,189,12,0,193,180,194,187,1,3766
56.031190157,1,2,-1,4,0,0,0,0,1,-166,139,2,4,38,245,189,12,0,174,202,188,190,1,3767
56.055266142,1,2,-1,-1,3,-2,0,0,1,44,-149,7,6,35,234,189,12,0,194,181,195,184,1,3768
56.066074133,1,2,-1,0,0,-5,-1,-1,0,-50,114,90,0,32,237,189,12,0,186,186,187,194,1,3769
56.076928139,1,2,-1,-3,-1,-6,-2,-1,0,72,0,244,0,22,232,189,12,0,190,182,189,194,1,3770
56.105966091,1,2,-1,0,4,4,-2,0,-1,211,-225,121,6,10,231,189,12,0,188,192,195,179,1,3771
56.118317128,1,2,-1,-18,-3,6,-2,0,-2,-35,-141,137,4,1,228,189,12,0,218,164,177,195,1,3772
56.127947092,1,2,-1,6,0,-1,-2,1,-3,-81,-90,242,1,-8,228,189,12,0,162,214,193,185,1,3773
56.156898022,1,2,-1,-3,3,-2,-2,1,-3,48,130,83,-2,2,231,189,12,0,199,177,194,185,1,3774
56.168016196,1,1,-1,1,-4,-3,-2,0,-2,-111,-24,222,-1,-4,226,189,12,0,182,193,180,199,1,3775
56.177900076,1,1,-1,5,1,-7,-3,0,0,-102,-89,1,-4,-6,230,189,12,0,179,192,198,185,1,3776
56.207024098,1,1,-1,-9,-7,-13,-3,0,0,-62,-72,7,-5,-10,227,189,12,0,201,165,181,207,1,3777
56.21796012,1,1,-1,9,-4,1,-3,0,0,111,45,39,-2,-6,225,189,12,0,168,211,187,188,1,3778
56.232073069,1,1,-1,-11,-5,1,-1,-1,-1,-192,-107,11,-7,-16,225,189,12,0,213,164,183,193,1,3779
56.257966042,0,1,-1,9,0,-1,0,-1,-3,-45,106,89,-8,-12,225,189,12,0,164,212,193,185,1,3780
56.269738198,0,1,-1,-8,-1,2,0,-2,-5,132,-215,209,-7,-12,229,189,12,0,210,169,185,190,1,3781
56.279862166,0,1,-1,0,-4,-1,0,-3,-5,-169,-104,26,-7,-15,228,189,12,0,181,195,183,195,1,3782
56.308874131,0,1,-1,2,7,0,0,-4,-4,35,97,126,-12,-3,225,189,12,0,184,193,205,173,1,3783
56.31883812,0,1,-1,2,6,-1,0,-4,-2,-41,65,10,-15,11,231,189,12,0,187,190,192,185,1,3784
56.330511093,0,0,-1,-2,-6,0,0,-3,0,122,-75,248,-9,8,232,189,12,0,194,183,173,203,1,3785
56.358886004,0,0,-1,-1,-3,-4,-1,-1,0,174,41,220,0,4,233,189,12,0,187,187,190,190,1,3786
56.369920016,0,0,-1,0,-2,5,0,0,1,4,129,178,3,11,229,189,12,0,191,190,186,187,1,3787
56.380975008,0,0,-1,5,0,5,0,1,1,198,-122,84,13,10,232,189,12,0,181,200,188,184,1,3788
56.409917116,0,0,-1,-3,2,-2,0,1,0,-202,-89,82,7,0,232,189,12,0,197,178,193,186,1,3789
56.420935154,0,0,-1,13,0,-3,0,0,0,-129,47,239,0,6,230,189,12,0,165,209,187,193,1,3790
56.432308197,0,0,-1,-6,1,-3,0,0,0,121,-234,95,2,1,238,189,12,0,207,167,193,187,1,3791
56.461022139,0,0,-1,7,-5,-6,1,-1,0,-91,-50,163,-3,-1,235,189,12,0,170,202,180,201,1,3792
56.470943213,0,0,-1,-2,-5,-4,1,-1,0,121,21,185,-4,-1,232,189,12,0,197,177,187,193,1,3793
56.485630989,0,0,-1,1,5,0,2,-1,0,-134,-201,209,-10,-7,230,189,12,0,184,193,201,176,1,3794
56.51108718,0,0,-1,7,-5,0,2,0,-1,161,166,140,-2,-2,231,189,12,0,178,198,176,202,1,3795
56.523066998,0,0,-1,1,0,2,2,0,-3,-100,217,76,-15,0,231,189,12,0,194,185,192,183,1,3796
56.533122063,0,0,-1,0,-2,2,2,-1,-3,219,223,219,-10,0,238,189,12,0,189,190,183,191,1,3797
56.561876059,0,0,-1,3,5,-8,2,-1,-3,-17,50,65,-22,2,241,189,12,0,181,189,202,181,1,3798
56.575522185,0,0,-1,-2,7,8,2,-1,-2,237,28,149,-11,4,244,189,12,0,198,186,192,178,1,3799
56.583791018,0,0,-1,3,3,-6,2,-1,0,-149,105,143,-18,3,241,189,12,0,179,193,190,193,1,3800
56.612768174,0,0,-1,-9,-3,6,2,0,0,105,-45,153,-11,9,251,189,12,0,208,174,178,194,1,3801
56.623007059,0,0,-1,10,-1,-8,1,0,1,-182,-24,75,-17,10,252,189,12,0,162,208,192,191,1,3802
56.633919001,0,0,-1,-3,-10,0,1,2,1,141,-102,202,-9,13,254,189,12,0,202,175,174,203,1,3803
56.662927151,1,0,-1,1,7,-1,0,2,0,-114,-121,178,-14,6,2,189,12,0,182,193,210,169,1,3804
56.674233198,0,0,-1,-11,0,7,0,2,0,150,-170,212,-7,0,255,189,12,0,210,173,180,191,1,3805
56.684930086,0,0,-1,7,2,3,0,0,-1,-117,151,28,-16,4,253,189,12,0,169,211,190,184,1,3806
56.71389699,0,0,-1,4,0,10,0,0,-1,99,-120,76,-9,-8,255,189,12,0,192,193,181,187,1,3807
56.724052191,0,0,-1,-1,1,5,0,-1,0,-98,75,59,-13,-2,7,189,12,0,196,185,189,183,1,3808
56.735230208,0,0,-1,4,1,-1,0,-1,0,2,225,55,-11,0,12,189,12,0,180,196,190,188,1,3809
56.764120102,0,0,-1,-7,-2,-4,0,0,3,15,-155,137,-13,-9,10,189,12,0,202,171,185,196,1,3810
56.774924994,0,0,-1,-1,2,3,0,0,5,76,3,247,-16,-4,13,189,12,0,186,194,194,180,1,3811
56.785974026,0,0,-1,0,0,-6,0,1,5,55,-8,223,-14,-7,15,189,12,0,184,188,188,194,1,3812
56.815016032,0,0,-1,0,4,3,0,1,4,-239,-204,209,-18,-3,21,189,12,0,191,189,194,181,1,3813
56.826068163,0,0,-1,-11,1,7,0,1,2,75,-164,166,-17,-17,16,189,12,0,208,176,184,186,1,3814
56.836896181,0,0,-1,7,0,-3,0,1,0,5,-10,233,-14,-17,17,189,12,0,167,207,188,192,1,3815
56.866326094,0,0,-1,0,0,0,-1,0,-1,-147,-243,167,-15,-21,14,189,12,0,196,182,187,189,1,3816
56.876077175,0,-1,-1,-2,-8,2,-2,0,-1,-137,-106,145,-17,-21,11,189,12,0,192,187,175,200,1,3817
56.887012005,0,-1,-1,-10,-3,1,-2,0,0,-142,48,70,-24,-28,12,189,12,0,203,175,189,186,1,3818
56.916872979,0,-1,-1,8,0,6,-2,0,0,42,83,3,-18,-17,12,189,12,0,170,212,190,182,1,3819
56.92695117,0,-1,-1,-6,-2,-5,-1,0,1,180,47,59,-12,-12,11,189,12,0,202,170,186,195,1,3820
56.937894106,0,-1,-1,8,4,3,-1,-1,2,-90,-12,117,-18,-7,9,189,12,0,172,207,197,178,1,3821
56.967071057,0,-1,-1,-4,1,-3,-1,-2,2,205,-67,52,-8,-6,3,189,12,0,200,174,188,192,1,3822
56.978340149,0,-1,-1,7,17,-2,0,-3,2,6,24,200,-9,-7,5,189,12,0,172,203,214,165,1,3823
56.988852024,0,-1,-1,-9,-3,1,0,-2,1,-136,-11,-10,-5,-22,254,189,12,0,210,168,169,207,1,3824
57.017953158,0,-1,-1,0,1,2,0,0,0,23,123,147,-7,-11,2,189,12,0,181,197,192,183,1,3825
57.028213024,-1,-1,-1,-10,0,6,0,2,0,-40,-58,186,-13,-13,1,189,12,0,207,175,185,187,1,3826
57.038962126,-1,-1,-1,2,1,0,0,4,-1,35,-64,155,-12,-25,0,189,12,0,176,201,192,186,1,3827
57.067982197,-1,-1,-1,-1,2,8,0,5,0,89,21,202,-15,-15,3,189,12,0,197,187,187,183,1,3828
57.079020977,-1,-1,0,5,-4,11,-1,5,0,-34,107,130,-17,-10,254,189,12,0,183,203,176,192,1,3829
57.08983016,-1,-1,0,-4,-1,3,-2,3,2,204,170,210,-9,-7,4,189,12,0,201,179,189,185,1,3830
57.119593144,-1,-1,0,-6,0,-4,-3,1,4,-43,-80,42,-13,-3,252,189,12,0,192,181,191,189,1,3831
57.130431176,-1,-1,0,3,-5,0,-2,0,5,32,132,169,-3,1,252,189,12,0,178,198,181,197,1,3832
57.140944004,-1,-1,0,-3,6,-3,-1,-1,6,99,-40,83,-4,-6,0,189,12,0,195,180,205,175,1,3833
57.169846058,-1,-1,0,6,-2,4,-1,-2,5,69,-156,158,0,-5,255,189,12,0,178,202,177,197,1,3834
57.180500031,-1,-1,0,-3,3,2,0,-2,3,145,38,141,0,-8,255,189,12,0,200,179,194,180,1,3835
57.192769051,-1,-1,0,-1,-1,13,0,-1,1,-80,-9,140,0,-14,7,189,12,0,193,194,179,188,1,3836
57.219968081,-1,-1,0,1,3,-2,0,0,0,-205,-199,191,-9,-24,0,189,12,0,183,192,195,184,1,3837
57.23132205,-1,-1,0,2,6,2,0,0,0,-90,43,174,-5,-25,252,189,12,0,187,192,195,180,1,3838
57.242032051,-1,-1,0,6,0,0,0,1,0,-174,130,81,-15,-28,244,189,12,0,182,196,181,195,1,3839
57.270832062,-1,-1,0,4,-4,-4,0,1,2,113,83,111,-8,-29,250,189,12,0,186,187,185,195,1,3840
57.281860113,-1,-1,0,9,3,0,0,2,3,-62,-108,62,-13,-37,247,189,12,0,178,199,197,180,1,3841
57.292915106,-1,-1,0,-6,-1,4,1,2,3,216,-39,162,-3,-37,250,189,12,0,208,173,182,192,1,3842
57.321820021,-2,-1,0,-8,-6,3,2,1,2,44,-32,6,-5,-36,251,189,12,0,196,183,179,196,1,3843
57.33219409,-2,-1,0,8,-4,-1,3,0,1,190,-89,62,2,-35,242,189,12,0,169,208,187,191,1,3844
57.342836142,-2,-1,0,-12,2,-4,3,0,0,-216,129,90,-7,-27,245,189,12,0,213,160,198,183,1,3845
57.372644186,-2,-1,0,16,-4,0,2,-1,0,3,47,153,-4,-30,248,189,12,0,153,220,180,197,1,3846
57.383001089,-2,-1,0,-13,0,5,0,-2,0,124,89,9,-3,-25,246,189,12,0,220,157,190,183,1,3847
57.393902064,-2,-1,0,6,0,0,-1,-3,0,-64,-24,238,-8,-27,245,189,12,0,168,209,188,188,1,3848
57.423017025,-2,-1,0,5,-4,6,-1,-3,0,143,-91,112,0,-35,240,189,12,0,188,195,180,192,1,3849
57.43386817,-3,-1,0,2,3,0,-1,-2,0,62,25,57,2,-18,244,189,12,0,189,188,198,179,1,3850
57.444813013,-3,-1,0,2,0,7,0,-1,1,-30,-99,28,0,-27,245,189,12,0,190,193,181,190,1,3851
57.473935128,-3,-1,0,4,4,5,0,-1,1,-134,133,73,-5,-17,248,189,12,0,187,195,194,179,1,3852
57.484922171,-3,-1,0,-5,4,4,2,0,2,-133,-125,108,-2,-15,239,189,12,0,201,179,190,183,1,3853
57.495102167,-3,-1,0,11,0,-6,3,0,3,43,90,39,-3,-2,242,189,12,0,165,207,187,196,1,3854
57.526871205,-3,-1,0,-10,-5,-2,3,0,4,-8,-108,205,-3,-5,241,189,12,0,212,163,182,197,1,3855
57.5348382,-2,-1,0,9,-1,-6,3,1,4,-254,172,133,-6,5,240,189,12,0,163,209,193,189,1,3856
57.546282053,-2,-1,0,-11,-6,2,2,1,3,229,-76,4,2,6,243,189,12,0,215,164,179,196,1,3857
57.575088978,-2,-1,0,1,8,0,1,1,1,-40,93,135,-1,7,238,189,12,0,177,201,206,170,1,3858
57.586886168,-2,-1,0,-12,-1,0,0,0,0,255,35,42,4,12,233,189,12,0,209,169,180,197,1,3859
57.596912146,-2,-1,0,8,11,4,0,0,-2,-166,-10,127,-4,4,228,189,12,0,167,213,205,168,1,3860
57.625858069,-2,-1,0,8,4,3,-2,-1,-3,87,0,96,0,4,234,189,12,0,185,195,184,190,1,3861
57.637123108,-2,0,0,1,4,-4,-2,0,-2,37,-79,171,-4,4,237,189,12,0,191,182,194,187,1,3862
57.652517081,-2,0,0,2,-5,-1,-2,0,0,-45,-187,154,-5,-7,242,189,12,0,185,191,176,201,1,3863
57.676081181,-2,0,0,-16,-7,-2,-1,3,1,74,-2,14,0,-6,249,189,12,0,215,160,184,195,1,3864
57.686942101,-2,0,0,0,1,4,0,4,2,57,-187,231,0,-21,245,189,12,0,175,205,195,179,1,3865
57.698831082,-2,0,0,0,0,0,1,4,1,-17,-72,187,1,-21,245,189,12,0,188,189,186,191,1,3866
57.727058173,-2,0,0,0,3,2,1,3,1,-119,30,91,-2,-12,250,189,12,0,189,190,193,182,1,3867
57.738201142,-2,0,0,-6,-7,8,0,0,0,-208,-58,16,-10,-27,245,189,12,0,203,181,171,200,1,3868
57.748926163,-2,-1,0,5,-2,-6,-1,-1,0,46,213,180,-1,-24,247,189,12,0,172,199,194,188,1,3869
57.777930022,-2,0,0,-4,3,-3,-2,-2,0,-14,-129,93,-7,-38,237,189,12,0,199,175,197,182,1,3870
57.78916812,-2,-1,0,5,-5,2,-3,-3,0,-1,-166,122,-6,-40,239,189,12,0,177,202,176,199,1,3871
57.802071095,-3,-1,0,-9,3,0,-2,-2,1,161,-11,19,-3,-44,242,189,12,0,207,171,198,179,1,3872
57.828161002,-3,-1,0,2,0,10,-1,-1,1,-79,-225,163,-7,-42,237,189,12,0,181,204,181,188,1,3873
57.838929177,-3,-1,0,-6,2,1,0,0,0,39,-5,30,-1,-38,241,189,12,0,202,176,193,183,1,3874
57.853121043,-3,-1,0,12,0,5,0,0,0,-243,-25,117,-11,-40,234,189,12,0,167,215,184,188,1,3875
57.879137993,-3,-1,0,-7,3,-5,0,0,0,207,198,-5,-4,-35,224,189,12,0,208,165,196,185,1,3876
57.890083075,-4,0,0,4,8,-1,0,0,1,64,130,151,2,-20,223,189,12,0,175,201,199,179,1,3877
57.900947094,-4,0,0,-5,-4,0,0,1,2,-150,-168,75,0,-25,220,189,12,0,200,177,174,203,1,3878
57.93007803,-4,0,0,3,-3,-6,0,1,2,141,154,157,8,-25,228,189,12,0,177,195,190,192,1,3879
57.940973997,-4,0,0,-10,4,9,0,2,2,-167,-125,189,1,-30,224,189,12,0,211,174,193,176,1,3880
57.954725027,-4,0,0,1,-4,5,0,2,0,-13,-117,225,2,-30,222,189,12,0,180,202,177,196,1,3881
57.979943991,-4,0,0,-2,-5,-2,0,2,0,163,217,135,1,-24,215,189,12,0,193,182,185,194,1,3882
57.991115094,-4,0,0,6,-3,5,0,0,-1,-157,-22,180,-3,-24,212,189,12,0,179,202,185,187,1,3883
58.002015114,-4,0,0,-3,3,2,-1,0,0,208,159,150,-3,-17,221,189,12,0,199,180,195,180,1,3884
58.03102398,-4,0,0,0,0,-2,-2,-1,0,-234,32,93,-3,-20,221,189,12,0,185,190,186,193,1,3885
58.041923046,-4,0,0,3,1,-5,-1,-2,2,30,-44,228,-2,-22,217,189,12,0,181,192,193,188,1,3886
58.052947045,-4,0,0,-5,2,-1,-1,-3,3,-34,-5,127,-6,-24,220,189,12,0,198,177,191,187,1,3887
58.082004071,-4,0,0,11,-3,-2,0,-2,2,26,-216,77,1,-29,216,189,12,0,166,209,182,197,1,3888
58.092895031,-4,0,0,-1,8,-5,0,-1,1,-157,-197,204,-11,-32,218,189,12,0,198,175,206,175,1,3889
58.102993012,-4,0,0,3,-1,-2,1,0,0,119,-55,183,-10,-40,221,189,12,0,181,194,181,198,1,3890
58.132474184,-5,0,0,-2,5,1,1,1,-2,-73,-176,222,-11,-36,219,189,12,0,195,183,198,178,1,3891
58.142971039,-5,0,0,2,1,1,2,1,-4,-231,-251,165,-14,-45,215,189,12,0,183,195,185,190,1,3892
58.154036999,-5,0,0,-1,-5,3,2,2,-4,-5,73,11,-10,-34,219,189,12,0,194,186,178,197,1,3893
58.18304205,-5,0,0,8,-3,0,2,2,-3,-70,-3,163,-13,-36,216,189,12,0,174,203,188,189,1,3894
58.193926096,-5,0,0,2,0,-4,1,2,-2,-78,-4,202,-15,-34,216,189,12,0,190,183,193,188,1,3895
58.204957009,-5,-1,0,6,-1,-2,1,1,0,-121,20,83,-12,-31,221,189,12,0,180,195,187,191,1,3896
58.236234188,-5,-1,0,-6,3,9,1,0,0,186,-54,97,-13,-31,223,189,12,0,208,176,192,178,1,3897
58.244963169,-5,-1,0,2,-2,-9,2,-1,1,155,115,230,-1,-30,226,189,12,0,175,194,185,200,1,3898
58.255099058,-5,-1,0,-7,0,-2,2,-1,0,-155,-39,57,-12,-38,226,189,12,0,201,174,193,186,1,3899
58.283954144,-5,-1,0,6,0,-8,2,-1,0,129,-80,5,-4,-40,230,189,12,0,168,202,191,193,1,3900
58.29542017,-6,0,0,-6,13,0,2,-1,0,244,-25,92,0,-47,223,189,12,0,204,173,210,167,1,3901
58.306128025,-6,0,0,14,0,-3,0,0,-2,-100,-113,218,-4,-48,224,189,12,0,160,215,179,200,1,3902
58.334933043,-6,0,0,-14,-3,-6,0,0,-3,178,-103,149,1,-46,218,189,12,0,220,152,185,197,1,3903
58.345865012,-6,0,0,3,-4,-2,0,2,-4,-185,-158,88,-5,-43,220,189,12,0,171,205,186,193,1,3904
58.357163191,-6,-1,0,-4,-2,-5,0,3,-4,88,-46,245,-4,-40,220,189,12,0,195,177,191,191,1,3905
58.385857106,-6,-1,0,7,0,-10,0,3,-4,-16,21,181,-4,-31,220,189,12,0,169,199,195,190,1,3906
58.396957159,-6,-1,0,-2,-4,9,0,2,-4,63,35,205,0,-25,216,189,12,0,203,181,177,192,1,3907
58.40795517,-6,-1,0,4,2,-1,0,0,-4,-60,86,13,3,-8,210,189,12,0,179,197,198,181,1,3908
58.436932087,-6,-1,0,3,-2,0,0,-1,-4,44,-3,208,3,-20,210,189,12,0,188,189,182,195,1,3909
58.446993113,-6,-1,0,5,-5,-2,0,-2,-3,31,136,-17,5,-7,208,189,12,0,182,193,183,196,1,3910
58.458027125,-6,0,0,-6,7,-2,1,-3,-2,-43,-132,176,4,-13,209,189,12,0,202,173,205,174,1,3911
58.48684907,-6,0,0,9,2,6,1,-2,-1,-13,-60,52,0,-20,203,189,12,0,172,210,184,188,1,3912
58.498207093,-6,0,0,-4,1,3,2,-1,0,-28,19,9,0,-14,206,189,12,0,205,175,187,188,1,3913
58.508964062,-6,0,0,8,-1,11,2,0,0,9,-61,172,-6,-15,203,189,12,0,177,210,180,187,1,3914
58.538079024,-6,0,0,-1,1,2,2,0,1,2,52,176,0,-7,205,189,12,0,199,180,191,184,1,3915
58.54923606,-6,0,0,4,7,-2,2,1,1,-56,-73,89,-6,-14,213,189,12,0,179,196,199,180,1,3916
58.559880019,-5,0,0,0,-4,-8,1,2,3,53,-203,98,-6,-29,212,189,12,0,189,181,180,204,1,3917
58.588835001,-6,0,0,-7,-2,-15,1,2,3,26,9,70,-2,-24,218,189,12,0,194,171,194,195,1,3918
58.599832058,-6,0,0,-2,0,9,1,1,3,33,-153,97,-5,-32,217,189,12,0,190,195,186,184,1,3919
58.609907151,-6,0,0,-3,-1,-8,1,1,1,-26,-103,189,-1,-38,217,189,12,0,188,182,190,194,1,3920
58.639873982,-6,0,0,-3,4,-5,0,0,-1,61,-79,59,0,-37,219,189,12,0,189,183,198,183,1,3921
58.650015116,-6,0,0,-11,-5,-12,0,0,-4,38,-167,7,-2,-53,222,189,12,0,197,170,182,205,1,3922
58.660983086,-6,0,0,4,-2,-11,-2,-1,-6,-14,-148,206,0,-56,223,189,12,0,168,200,193,193,1,3923
58.692265034,-7,0,0,0,0,-4,-3,-1,-7,-32,100,219,-5,-57,218,189,12,0,189,184,192,189,1,3924
58.701169014,-7,0,0,0,3,4,-4,-1,-7,-43,-57,44,0,-60,217,189,12,0,191,190,193,181,1,3925
58.712094069,-7,0,0,1,0,4,-4,-1,-7,-33,136,30,-2,-55,212,189,12,0,188,193,185,189,1,3926
58.740871191,-7,0,0,1,0,-3,-3,-1,-7,-9,5,43,-1,-55,210,189,12,0,186,188,191,189,1,3927
58.752178192,-7,0,0,12,1,-6,-2,0,-5,-90,69,84,-4,-48,210,189,12,0,169,203,193,190,1,3928
58.762833119,-7,0,-1,1,1,-13,0,0,-3,155,151,110,3,-39,214,189,12,0,192,174,194,194,1,3929
58.791924,-7,0,-1,0,-5,-10,1,0,-1,-50,-67,213,0,-39,209,189,12,0,186,182,184,201,1,3930
58.803064108,-7,0,0,4,4,7,3,1,-1,47,27,171,8,-34,214,189,12,0,185,198,196,175,1,3931
58.813045979,-8,0,0,-14,-3,-8,4,1,-2,44,-124,-21,15,-31,209,189,12,0,210,161,184,200,1,3932
58.841929198,-8,0,0,10,-2,0,4,0,-3,20,-54,123,16,-41,205,189,12,0,162,216,187,189,1,3933
58.853035212,-8,0,0,-2,-6,6,3,0,-5,14,-85,-46,18,-43,200,189,12,0,204,179,178,194,1,3934
58.864190102,-8,0,0,5,0,3,1,0,-6,31,9,122,20,-36,205,189,12,0,179,201,192,182,1,3935
58.893055201,-8,0,0,-4,1,12,0,-1,-4,248,90,162,30,-41,207,189,12,0,205,182,187,180,1,3936
58.908660174,-8,0,0,3,-4,-1,-1,-2,-2,69,-145,35,27,-43,205,189,12,0,179,196,181,197,1,3937
58.915357113,-8,0,0,-6,8,6,-1,-2,1,172,60,241,27,-44,205,189,12,0,204,178,202,169,1,3938
58.944244147,-8,0,0,4,2,-12,0,-2,4,-90,8,-122,29,-43,201,189,12,0,172,195,191,196,1,3939
58.954892159,-8,0,0,6,4,2,0,-1,6,29,121,140,26,-32,198,189,12,0,184,195,191,184,1,3940
58.968375206,-8,1,0,3,3,8,0,0,6,-15,-69,210,20,-26,201,189,12,0,192,192,187,183,1,3941
58.995326043,-8,1,0,-3,-6,-1,0,1,4,70,-115,32,24,-26,196,189,12,0,196,180,177,201,1,3942
59.005904198,-8,1,0,4,-1,5,1,2,2,-65,-164,29,18,-28,193,189,12,0,181,200,189,183,1,3943
59.016498089,-8,1,0,-9,-3,-5,1,3,0,61,-17,146,24,-31,188,189,12,0,204,169,187,194,1,3944
59.044979096,-8,1,0,3,-2,-1,1,3,0,-12,138,79,22,-26,184,189,12,0,175,201,188,190,1,3945
59.056204081,-8,1,0,-8,-1,0,1,1,0,-223,-140,8,16,-36,180,189,12,0,203,173,189,189,1,3946
59.067083121,-8,1,0,15,-4,-2,1,0,0,1,28,170,21,-37,185,189,12,0,158,218,184,195,1,3947
59.095903159,-8,2,0,-3,4,1,0,-2,0,192,-164,65,28,-49,193,189,12,0,207,171,198,178,1,3948
59.106955052,-8,2,0,3,-3,-2,0,-3,0,-99,42,67,24,-42,189,189,12,0,180,195,181,198,1,3949
59.117980004,-8,2,0,0,5,5,0,-3,0,171,40,238,28,-44,196,189,12,0,194,187,198,175,1,3950
59.146990061,-9,2,0,-4,0,-2,0,-2,0,-5,-247,124,22,-41,194,189,12,0,194,181,186,193,1,3951
59.158008099,-9,2,0,-3,3,3,1,-1,-1,174,104,169,27,-30,204,189,12,0,191,189,191,183,1,3952
59.172110081,-9,2,0,1,0,3,1,0,0,-11,152,44,27,-27,198,189,12,0,185,194,186,189,1,3953
59.198081017,-9,2,0,4,0,4,1,1,0,67,-34,128,29,-26,204,189,12,0,184,196,185,188,1,3954
59.208281994,-9,3,0,-11,4,14,0,2,0,158,16,191,33,-33,204,189,12,0,215,174,190,175,1,3955
59.219117165,-9,3,0,2,0,-4,0,2,2,-131,253,144,31,-25,199,189,12,0,174,200,187,194,1,3956
59.248181105,-9,3,0,0,0,6,-1,2,3,126,-9,32,32,-20,204,189,12,0,193,189,187,185,1,3957
59.258929015,-9,3,0,-8,0,8,-2,2,4,-123,102,130,29,-18,199,189,12,0,204,180,184,186,1,3958
59.271994114,-9,3,0,0,-6,-7,-2,1,5,15,-39,112,28,-22,193,189,12,0,178,193,183,200,1,3959
59.30114317,-9,4,0,6,6,0,-2,0,5,188,-24,130,34,-13,198,189,12,0,180,197,204,173,1,3960
59.310015202,-8,4,0,0,-1,1,-1,0,5,-196,-119,-7,27,-14,190,189,12,0,193,185,179,197,1,3961
59.320837021,-8,4,0,1,0,-2,-1,0,3,226,10,156,32,-3,187,189,12,0,186,189,190,188,1,3962
59.350040198,-8,4,0,-9,0,-1,-1,0,2,6,200,135,32,4,185,189,12,0,203,173,190,189,1,3963
59.36174798,-8,4,0,8,1,4,0,0,0,100,31,100,36,9,188,189,12,0,169,212,188,185,1,3964
59.370885134,-7,4,0,-5,3,5,0,0,0,10,104,195,37,13,192,189,12,0,206,175,190,182,1,3965
59.400332213,-7,4,0,7,-3,-3,0,0,-1,-176,92,61,34,12,193,189,12,0,171,203,182,198,1,3966
59.411045075,-7,5,0,-5,5,1,0,0,0,81,128,157,36,15,196,189,12,0,203,175,199,177,1,3967
59.422072172,-6,5,0,5,-2,-8,0,0,0,-208,-136,74,33,3,202,189,12,0,173,197,184,200,1,3968
59.450894118,-6,5,0,-3,6,-8,0,0,1,40,106,32,30,2,200,189,12,0,195,175,204,180,1,3969
59.46203208,-6,5,0,1,-1,-2,0,1,1,-251,-44,32,25,3,196,189,12,0,181,193,182,198,1,3970
59.473309994,-6,5,0,-3,1,7,0,1,0,-4,80,87,17,11,193,189,12,0,197,185,189,182,1,3971
59.502202034,-5,5,0,4,-7,4,0,1,-1,39,13,160,17,14,204,189,12,0,181,200,174,199,1,3972
59.512867213,-5,5,0,-2,-7,3,0,1,-3,148,123,78,20,18,210,189,12,0,197,183,182,192,1,3973
59.524205208,-5,5,0,-3,0,3,0,1,-3,119,14,43,23,21,218,189,12,0,194,186,192,182,1,3974
59.552955151,-4,5,0,0,1,-6,0,0,-2,-110,-205,147,19,9,213,189,12,0,183,189,194,189,1,3975
59.563856125,-4,5,0,10,-3,-1,0,-1,0,158,39,68,17,14,210,189,12,0,173,204,183,195,1,3976
59.574169159,-4,5,0,-11,2,0,0,-3,2,-206,-127,61,10,15,205,189,12,0,214,163,195,182,1,3977
59.603098154,-4,5,0,6,0,-4,0,-3,3,77,-117,241,8,10,205,189,12,0,168,206,189,191,1,3978
59.613973141,-3,5,0,-9,11,-2,0,-3,2,156,-118,178,14,1,212,189,12,0,207,168,206,173,1,3979
59.625014067,-3,5,0,9,-6,-2,0,-2,1,-24,-129,227,6,-11,214,189,12,0,165,210,170,209,1,3980
59.660083056,-3,5,0,11,-6,-6,0,0,0,151,-24,221,10,-10,214,190,12,0,179,195,188,196,1,3981
59.671003104,-3,5,0,-2,4,4,0,1,-2,14,12,106,9,-7,223,190,12,0,204,179,199,176,1,3982
59.68183899,-3,5,0,0,-4,-7,0,2,-3,-167,-39,230,7,-10,228,190,12,0,185,189,183,202,1,3983
59.71083808,-3,5,0,-14,5,-1,1,2,-3,198,-6,-68,10,-3,222,190,12,0,211,167,201,179,1,3984
59.721083165,-3,4,0,5,0,1,2,0,-3,-170,69,82,6,-5,229,190,12,0,170,211,184,194,1,3985
59.732096196,-3,4,0,-10,-2,-2,2,0,-2,202,-30,-16,17,-2,228,190,12,0,209,168,186,195,1,3986
59.761067152,-3,4,0,9,1,-3,1,-1,-1,-62,47,14,9,-8,224,190,12,0,165,211,195,187,1,3987
59.772086144,-3,4,0,-6,-5,-1,0,-1,-1,224,-182,249,9,-9,223,190,12,0,206,172,180,200,1,3988
59.782908202,-3,4,0,0,4,1,-2,-1,0,-190,66,71,7,-8,229,190,12,0,185,196,200,177,1,3989
59.811999083,-3,4,0,5,-4,-13,-3,0,0,37,-38,223,4,-10,229,190,12,0,176,192,184,206,1,3990
59.823001147,-3,4,0,4,6,-2,-3,0,-1,41,225,32,11,1,233,190,12,0,187,190,204,176,1,3991
59.833779097,-3,4,0,0,1,7,-2,0,-1,-95,51,47,5,6,230,190,12,0,195,189,184,189,1,3992
59.862887144,-2,4,0,0,-5,4,0,0,-2,48,169,69,6,6,230,190,12,0,191,191,178,197,1,3993
59.872996092,-2,4,0,-3,3,0,1,0,-3,33,89,81,5,9,229,190,12,0,195,184,200,179,1,3994
59.885975123,-2,4,0,10,-6,-2,2,0,-2,-41,-121,45,0,6,226,190,12,0,170,207,178,203,1,3995
59.913115979,-2,4,0,-12,-4,10,3,0,-1,110,210,174,6,5,233,190,12,0,220,166,183,188,1,3996
59.924024105,-2,3,0,-3,-5,-2,2,0,0,-59,147,-20,2,9,225,190,12,0,184,194,186,195,1,3997
59.93522811,-2,3,0,-7,1,1,1,0,1,138,-6,20,8,6,229,190,12,0,198,183,196,182,1,3998
59.963159085,-2,3,0,1,8,3,0,-1,2,-222,137,5,2,17,232,190,12,0,183,198,199,177,1,3999
59.974235058,-2,3,0,-9,0,5,-2,-2,3,45,78,144,0,20,226,190,12,0,206,177,180,194,1,4000
59.985874176,-2,3,0,9,7,-3,-3,-3,3,-13,100,171,3,31,237,190,12,0,166,210,202,180,1,4001
60.013810158,-1,3,0,6,-3,3,-4,-2,2,-34,41,199,-2,32,238,190,12,0,189,193,176,199,1,4002
60.025449038,-1,3,0,0,7,-2,-4,0,2,94,254,118,0,34,244,190,12,0,194,183,205,176,1,4003
60.035185099,-1,3,0,-2,-3,-5,-3,1,1,80,-29,16,-1,26,242,190,12,0,191,183,180,203,1,4004
60.064947129,-1,3,0,-5,-2,-6,0,3,1,-155,-97,35,-5,21,238,190,12,0,193,180,191,193,1,4005
60.075116158,0,3,0,2,-1,-3,1,3,0,166,75,96,3,20,245,190,12,0,179,197,191,190,1,4006
60.08605814,0,3,0,-5,-3,0,2,3,0,-64,-39,209,0,10,240,190,12,0,200,179,184,194,1,4007
60.115249157,0,2,0,-1,-1,0,2,1,-2,58,6,122,6,20,241,190,12,0,186,192,190,189,1,4008
60.128914118,0,2,0,-3,-3,14,0,0,-3,-233,-28,250,0,16,240,190,12,0,199,191,181,187,1,4009
60.137056113,0,2,0,-9,-3,-4,-1,-1,-3,31,-10,103,12,17,242,190,12,0,199,177,188,195,1,4010
60.165949107,0,2,0,5,0,1,-2,-3,-2,149,99,16,16,11,240,190,12,0,174,207,193,184,1,4011
60.178459168,0,2,0,1,-7,5,-4,-3,0,193,-68,-49,20,9,229,190,12,0,194,189,175,200,1,4012
60.192161084,0,2,0,0,11,2,-4,-3,1,-60,68,183,15,14,225,190,12,0,191,190,213,164,1,4013
60.216128111,0,2,0,12,1,4,-3,-2,3,155,-244,198,16,8,223,190,12,0,173,209,180,195,1,4014
60.229865074,0,3,0,6,8,9,-1,-2,4,-18,-44,141,18,12,229,190,12,0,194,193,197,174,1,4015
60.237867117,0,3,0,-1,3,16,0,0,4,-80,47,147,12,5,224,190,12,0,205,188,180,185,1,4016
60.267167092,0,3,0,-10,0,2,2,1,4,-22,-249,167,17,2,227,190,12,0,204,177,187,190,1,4017
60.277885199,0,3,0,4,1,0,4,3,5,8,119,164,15,8,231,190,12,0,174,205,191,188,1,4018
60.289019108,0,3,0,-6,-7,0,5,4,6,-129,-171,68,8,13,229,190,12,0,203,175,178,202,1,4019
60.317946196,0,3,0,2,-3,0,4,5,6,214,44,253,20,18,229,190,12,0,181,199,190,188,1,4020
60.328034163,0,3,0,-6,-2,0,1,4,6,69,-174,188,18,14,229,190,12,0,201,178,188,191,1,4021
60.338889122,0,3,0,5,-4,-2,0,1,5,-123,-23,66,15,7,221,190,12,0,175,202,186,195,1,4022
60.368312121,0,3,0,-2,13,-3,-2,0,3,-47,-90,105,18,12,224,190,12,0,197,179,215,167,1,4023
60.379237175,0,3,0,1,-5,-5,-3,-2,1,89,95,240,15,14,232,190,12,0,182,192,173,211,1,4024
60.389914036,0,3,0,0,9,4,-3,-3,-1,-154,-122,79,15,10,232,190,12,0,192,191,206,169,1,4025
60.419188977,1,3,0,4,-5,12,-1,-3,-2,64,-52,218,12,9,244,190,12,0,189,200,169,200,1,4026
60.429869175,0,3,0,-9,2,8,0,-1,-3,66,255,19,15,14,244,190,12,0,211,175,194,178,1,4027
60.443006039,0,3,0,9,-1,3,0,1,-2,29,104,156,10,21,242,190,12,0,169,213,184,192,1,4028
60.469945193,1,3,0,-6,-4,-1,1,2,0,-98,147,45,13,23,235,190,12,0,206,172,185,195,1,4029
60.480068207,1,3,0,5,5,0,1,3,2,78,190,117,14,36,239,190,12,0,177,202,201,178,1,4030
60.490981102,1,3,0,0,3,-5,0,2,5,5,-195,51,13,25,239,190,12,0,193,181,194,190,1,4031
60.519853115,1,3,0,-2,3,-2,0,0,6,-126,-112,158,12,15,242,190,12,0,192,185,192,189,1,4032
60.530856133,1,3,0,-9,4,3,0,0,5,-171,160,142,6,14,244,190,12,0,202,179,192,185,1,4033
60.551411152,1,3,0,2,-8,0,0,0,2,30,-164,25,6,8,242,190,12,0,179,201,173,206,1,4034
60.572983981,1,3,0,-1,-3,1,0,0,0,25,153,75,8,15,243,190,12,0,194,186,191,187,1,4035
60.58179617,1,2,0,9,-12,-1,-1,1,-2,-62,-226,163,4,4,237,190,12,0,174,205,174,206,1,4036
60.596203089,1,2,0,-5,6,8,-1,1,-2,158,139,241,9,4,243,190,12,0,209,176,207,165,1,4037
60.63085413,1,2,0,2,6,5,-1,0,-2,-2,14,130,6,11,239,190,12,0,183,200,191,184,1,4038
60.632785082,1,2,0,-6,-2,-6,-1,-1,0,-125,0,227,8,7,239,190,12,0,198,175,184,201,1,4039
60.642871142,1,2,0,12,7,-3,0,-2,1,-23,207,125,6,10,238,190,12,0,164,213,203,178,1,4040
60.672025204,1,2,0,-8,4,-4,0,-2,3,147,-52,38,10,7,235,190,12,0,210,165,192,191,1,4041
60.683140993,1,2,0,8,6,-2,1,-1,3,0,112,247,11,15,236,190,12,0,170,207,197,184,1,4042
60.694208145,1,2,0,-4,-2,8,1,0,1,184,-23,168,14,8,231,190,12,0,207,179,177,195,1,4043
60.722854138,1,2,0,4,0,4,1,3,0,-220,-10,169,6,2,228,190,12,0,180,203,189,187,1,4044
60.733836174,1,2,0,-9,2,3,1,4,-1,172,-95,13,14,-3,228,190,12,0,210,172,192,184,1,4045
60.746388197,1,3,0,5,0,-6,1,5,-2,-93,-34,195,1,-13,224,190,12,0,171,203,191,193,1,4046
60.774019003,1,2,0,10,4,-11,0,4,-1,-19,86,227,2,-3,231,190,12,0,174,196,199,189,1,4047
60.784044981,1,2,0,0,-1,10,0,2,0,-131,-156,51,-1,-7,229,190,12,0,204,184,179,191,1,4048
60.794993162,1,2,0,1,0,-2,0,1,1,186,8,51,8,0,230,190,12,0,185,191,193,188,1,4049
60.823908091,1,2,0,-5,0,4,0,0,1,171,-142,158,5,-3,232,190,12,0,201,181,186,189,1,4050
60.834925175,1,2,0,0,-5,4,1,0,0,25,97,9,9,-3,232,190,12,0,186,197,179,196,1,4051
60.846131087,1,2,1,-5,1,1,2,0,0,21,-67,138,4,-3,243,190,12,0,198,182,195,182,1,4052
60.875024081,1,2,1,4,0,7,1,0,0,72,-22,221,8,-18,244,190,12,0,181,204,186,187,1,4053
60.886399985,1,2,1,3,1,0,0,0,0,103,-66,69,6,-14,240,190,12,0,188,191,191,188,1,4054
60.896340132,0,2,1,-7,0,11,0,0,1,65,-240,44,8,-19,232,190,12,0,209,179,185,186,1,4055
60.925093174,0,2,1,7,1,-3,-1,0,3,-150,-184,98,7,-25,230,190,12,0,171,205,194,188,1,4056
60.936416149,0,2,0,5,5,-6,-1,0,4,-191,-39,-38,2,-19,225,190,12,0,184,190,199,185,1,4057
60.946838141,0,2,0,-1,-1,-7,0,0,5,-18,-154,32,2,-26,222,190,12,0,193,180,185,200,1,4058
60.976104021,0,2,0,13,-5,-6,0,0,4,74,16,83,7,-15,229,190,12,0,166,208,186,198,1,4059
60.987910033,0,2,1,8,2,7,1,1,2,-134,-152,5,-1,-20,229,190,12,0,192,193,195,178,1,4060
60.998703003,0,2,1,8,-1,-2,3,1,0,231,74,154,2,-14,228,190,12,0,183,194,186,195,1,4061
61.027096033,0,2,1,-9,7,2,4,1,-3,-154,-55,24,1,-8,227,190,12,0,211,170,201,176,1,4062
61.037940979,0,2,0,1,-4,-6,6,0,-4,-123,-139,207,0,-9,223,190,12,0,176,197,180,205,1,4063
61.051988125,0,2,0,-10,3,-3,6,0,-4,-45,162,145,-3,-8,221,190,12,0,205,171,200,182,1,4064
61.0779562,0,2,0,0,-5,-5,5,0,-2,6,-160,53,0,-9,220,190,12,0,178,196,181,203,1,4065
61.088037014,0,2,0,-7,4,-7,3,0,-1,-177,-238,102,-5,-13,211,190,12,0,197,175,204,181,1,4066
61.098859072,0,1,0,3,-2,2,0,0,-1,210,52,173,-1,-18,215,190,12,0,179,202,180,196,1,4067
61.129918099,0,1,0,-1,1,-8,-2,0,-1,-47,-240,85,-3,-27,213,190,12,0,191,181,198,188,1,4068
61.138873101,0,1,0,-7,-1,3,-4,0,-3,118,-150,74,1,-34,214,190,12,0,200,181,184,192,1,4069
61.149964094,-1,1,0,0,4,-7,-5,0,-4,-61,-31,246,-1,-46,210,190,12,0,181,193,201,184,1,4070
61.179095984,-1,1,0,-1,2,0,-4,0,-4,-54,-24,213,-3,-42,208,190,12,0,192,187,190,190,1,4071
61.189924002,-1,1,0,1,7,4,-3,0,-4,25,-169,113,0,-44,207,190,12,0,187,195,196,179,1,4072
61.200998068,-2,1,0,9,0,-7,-1,0,-3,-34,-24,136,3,-48,207,190,12,0,174,199,186,200,1,4073
61.229993105,-2,1,0,-12,-1,-2,0,1,-2,74,-127,113,5,-47,203,190,12,0,216,162,189,192,1,4074
61.241666079,-2,1,0,5,-7,-8,0,1,-1,-135,74,84,1,-49,203,190,12,0,168,205,182,203,1,4075
61.251935006,-3,1,0,-13,-2,6,0,2,0,154,29,208,6,-43,204,190,12,0,216,168,189,185,1,4076
61.280822039,-3,1,0,6,5,5,0,2,-1,-50,9,177,-5,-46,209,190,12,0,172,212,197,177,1,4077
61.291083098,-3,1,0,-7,0,0,0,0,-1,65,105,113,2,-50,215,190,12,0,206,174,186,193,1,4078
61.301949978,-3,1,0,6,7,5,-1,0,-1,-105,19,119,3,-50,218,190,12,0,176,208,198,176,1,4079
61.330942154,-4,1,0,5,1,3,-2,-1,-1,-26,-64,173,3,-56,220,190,12,0,188,194,184,192,1,4080
61.344833136,-4,1,0,9,6,0,-2,-1,0,3,-13,149,0,-56,216,190,12,0,181,199,198,181,1,4081
61.353024006,-4,1,0,-2,0,-5,-1,0,2,-58,-87,105,-8,-73,212,190,12,0,199,176,186,198,1,4082
61.382069111,-5,1,0,3,-4,0,0,1,3,53,219,47,-4,-67,216,190,12,0,182,197,183,197,1,4083
61.393031121,-5,1,0,0,-1,0,2,3,4,-39,-217,7,0,-66,218,190,12,0,192,187,192,187,1,4084
61.404051066,-5,1,0,3,-7,-5,4,4,3,85,-223,193,-2,-63,223,190,12,0,182,192,181,202,1,4085
61.433052063,-6,1,0,0,2,-7,4,3,1,-3,-59,113,6,-57,221,190,12,0,190,183,202,183,1,4086
61.443860054,-6,1,0,5,-1,2,4,1,0,-60,12,17,5,-53,215,190,12,0,183,199,184,193,1,4087
61.454910994,-6,1,0,-10,2,-2,3,-1,-2,150,19,69,12,-48,209,190,12,0,208,169,196,185,1,4088
61.483921051,-6,1,0,6,1,-4,1,-3,-4,-32,-62,132,0,-56,211,190,12,0,169,207,191,192,1,4089
61.49498415,-7,1,0,-8,-5,0,0,-3,-4,130,202,185,0,-48,212,190,12,0,208,171,180,199,1,4090
61.504988194,-7,1,0,6,6,3,0,-3,-4,-44,-136,160,-8,-53,209,190,12,0,173,209,202,173,1,4091
61.535077095,-7,0,0,2,-3,-3,0,-1,-3,159,-18,114,-5,-59,209,190,12,0,191,185,180,202,1,4092
61.545031071,-7,0,0,0,5,5,-1,0,-1,-75,-226,171,-9,-57,208,190,12,0,192,191,199,176,1,4093
61.556190014,-7,0,0,-3,-1,1,0,0,0,129,74,14,-8,-54,213,190,12,0,196,184,183,195,1,4094
61.585092068,-8,0,0,5,-4,-11,0,1,0,-55,-35,233,-11,-49,217,190,12,0,173,197,188,200,1,4095
61.597123146,-8,0,0,-3,6,7,0,1,0,-78,27,170,-9,-43,226,190,12,0,202,182,201,172,1,4096
61.608520985,-8,0,0,1,-3,-4,1,0,0,-139,21,50,-8,-35,228,190,12,0,183,192,181,202,1,4097
61.635951043,-8,0,0,-4,-2,0,1,0,0,22,-25,137,-1,-32,224,190,12,0,197,182,189,190,1,4098
61.647021056,-8,0,0,-1,-4,0,0,0,0,-2,56,228,-9,-38,221,190,12,0,189,191,184,194,1,4099
61.657903195,-8,0,0,-6,-7,-2,0,0,0,79,31,228,2,-33,220,190,12,0,196,180,184,197,1,4100
61.686834097,-8,0,0,5,12,4,0,0,-1,-243,-117,70,-9,-38,218,190,12,0,179,204,212,163,1,4101
61.699266196,-8,0,0,-17,-4,-2,-1,-1,-1,22,-26,102,1,-44,220,190,12,0,218,158,174,207,1,4102
61.709485054,-8,0,0,5,0,-2,-2,-1,0,-242,39,239,-1,-39,221,190,12,0,165,211,195,186,1,4103
61.737990141,-9,0,0,-2,0,0,-3,-1,0,108,158,123,2,-39,227,190,12,0,198,181,188,191,1,4104
61.748186112,-8,0,0,2,9,5,-3,-1,0,-136,-203,24,-1,-40,226,190,12,0,187,197,202,173,1,4105
61.75889206,-9,0,0,-1,-4,1,-3,0,0,31,69,140,3,-32,233,190,12,0,195,186,174,204,1,4106
61.788144112,-9,0,0,-8,0,-7,-3,0,0,-46,-42,130,-2,-41,226,190,12,0,198,175,197,188,1,4107
61.798983097,-8,0,0,7,4,2,-2,1,0,58,30,172,0,-34,228,190,12,0,171,210,195,182,1,4108
61.810100079,-8,0,1,-4,-4,5,-1,2,0,23,94,153,-2,-28,230,190,12,0,206,178,177,198,1,4109
61.838958025,-8,0,1,10,3,2,0,1,0,-14,-148,132,-1,-31,234,190,12,0,171,210,197,180,1,4110
61.849925042,-8,0,1,3,-2,8,0,1,0,2,147,101,0,-27,237,190,12,0,197,189,179,193,1,4111
61.861011982,-8,0,1,-2,0,2,0,0,0,12,51,109,0,-21,237,190,12,0,196,185,190,187,1,4112
61.889883995,-8,0,1,3,-4,-2,0,0,1,-17,-130,203,0,-30,239,190,12,0,181,196,185,196,1,4113
61.901106119,-8,0,1,2,-10,-3,1,0,2,109,-85,253,1,-29,242,190,12,0,187,189,179,203,1,4114
61.912415028,-8,0,1,-1,4,6,2,-1,3,-36,6,75,3,-31,249,190,12,0,197,188,202,172,1,4115
61.944940091,-8,0,1,7,-5,8,2,-1,3,94,13,211,2,-32,249,190,12,0,180,206,175,198,1,4116
61.951730013,-8,0,1,1,1,1,2,-2,2,140,-3,85,13,-32,246,190,12,0,194,186,196,182,1,4117
61.961878062,-8,0,1,4,-1,-2,2,-3,2,1,165,106,5,-30,246,190,12,0,184,194,187,193,1,4118
61.990951062,-8,0,1,-6,-5,3,2,-3,1,97,51,239,10,-30,243,190,12,0,204,178,181,196,1,4119
62.004334212,-8,0,1,7,5,3,2,-3,1,118,69,250,14,-20,245,190,12,0,174,207,201,175,1,4120
62.013122082,-7,0,1,-4,0,-2,2,-2,2,-136,-62,170,10,-21,245,190,12,0,202,175,186,195,1,4121
62.041889191,-7,0,1,4,-5,-4,2,-1,2,-75,68,230,16,-11,248,190,12,0,178,198,183,200,1,4122
62.053725005,-7,0,1,-4,-2,1,1,0,2,34,237,119,9,-10,250,190,12,0,200,181,190,188,1,4123
62.063405037,-7,0,1,-1,-6,-1,1,0,1,31,-75,134,11,-13,253,190,12,0,187,190,183,198,1,4124
62.092619181,-7,0,1,-3,0,-4,0,0,0,-47,53,210,8,-6,247,190,12,0,192,183,197,186,1,4125
62.103378058,-7,0,1,-10,-3,-6,0,0,0,208,244,101,13,0,254,190,12,0,199,175,186,197,1,4126
62.11402607,-7,0,1,-1,1,1,-1,-2,-1,-13,-26,82,14,-6,249,190,12,0,184,196,194,183,1,4127
62.14291811,-7,0,1,8,0,1,-2,-2,-2,28,221,67,11,-1,255,190,12,0,176,205,188,190,1,4128
62.154528141,-7,0,1,-4,0,10,-3,-3,-2,-100,87,60,16,2,253,190,12,0,207,180,186,185,1,4129
62.164911032,-6,0,1,14,-3,-2,-3,-2,-2,-154,134,229,9,0,254,190,12,0,163,214,185,196,1,4130
62.193876028,-6,0,1,-11,-1,-7,-3,-1,-1,230,-93,169,16,1,5,190,12,0,216,157,193,193,1,4131
62.211099148,-6,1,1,-9,0,-8,-1,0,0,-237,-217,243,6,3,2,192,12,0,193,184,197,193,1,4132
62.221959114,-6,1,1,-1,-4,2,0,0,0,22,92,208,8,11,9,192,12,0,187,198,183,198,1,4133
62.250766993,-6,1,1,-1,-1,1,1,0,1,143,-187,17,8,4,9,192,12,0,192,192,192,190,1,4134
62.261002064,-5,1,1,0,-1,1,0,0,0,-71,-165,57,8,1,11,192,12,0,193,192,190,191,1,4135
62.272054196,-5,1,1,3,-5,-5,0,-1,-1,116,88,16,13,2,1,192,12,0,183,196,186,201,1,4136
62.301074982,-5,1,1,0,2,0,-2,-2,-2,60,-163,239,18,-8,6,192,12,0,194,189,200,183,1,4137
62.312105179,-5,1,1,3,-2,4,-3,-2,-2,76,-91,230,13,-9,8,192,12,0,189,198,184,195,1,4138
62.32288909,-5,1,1,0,5,-1,-3,-2,-2,-75,-44,181,17,-12,7,192,12,0,194,188,202,182,1,4139
62.352720023,-5,1,1,-4,2,5,-1,-2,-1,126,-170,12,12,-17,8,192,12,0,200,187,189,190,1,4140
62.36285615,-5,1,1,-8,-3,-1,0,-1,0,177,-251,167,23,-20,17,192,12,0,200,182,184,200,1,4141
62.376257181,-5,1,1,3,4,1,1,0,1,-108,130,85,13,-10,23,192,12,0,179,205,201,180,1,4142
62.40378213,-5,1,1,5,-6,0,1,0,1,-22,167,40,19,-7,24,192,12,0,187,196,178,205,1,4143
62.41340518,-5,1,1,-9,4,0,0,1,1,-30,125,14,15,-1,21,192,12,0,209,174,204,179,1,4144
62.424148083,-5,1,1,6,-5,2,-1,1,1,44,134,192,20,6,19,192,12,0,176,209,178,203,1,4145
62.452867985,-4,1,1,1,-6,-3,-1,1,1,-65,-249,7,17,-1,16,192,12,0,192,188,188,198,1,4146
62.464663983,-4,1,1,6,-2,-1,-2,0,0,18,127,45,19,9,20,192,12,0,183,198,193,191,1,4147
62.473986149,-4,1,1,-6,-2,-1,-1,0,0,-121,-209,11,14,-3,23,192,12,0,206,176,191,193,1,4148
62.503070116,-4,1,1,10,7,-8,0,-2,0,-128,147,204,10,-1,30,192,12,0,168,208,208,182,1,4149
62.514061213,-4,1,1,-1,-1,0,1,-3,0,-114,-233,60,8,-3,22,192,12,0,203,180,183,200,1,4150
62.525757075,-4,1,1,9,-3,-7,2,-3,-1,29,99,85,9,-5,22,192,12,0,174,204,191,198,1,4151
62.556414128,-4,1,1,-3,-3,-4,3,-2,-2,131,210,9,12,-1,19,192,12,0,202,177,191,196,1,4152
62.564913035,-3,1,1,3,0,3,3,-1,-3,-190,87,33,7,17,21,192,12,0,185,200,192,188,1,4153
62.575841189,-3,1,1,-10,0,12,3,0,-4,191,241,175,9,25,26,192,12,0,215,178,186,186,1,4154
62.605045081,-3,1,1,0,0,1,2,0,-3,-112,-47,8,1,23,18,192,12,0,183,201,191,191,1,4155
62.614932061,-3,1,1,-5,4,1,1,0,-2,75,190,92,1,34,21,192,12,0,200,184,198,183,1,4156
62.629182101,-2,1,1,6,-2,1,0,0,0,43,-193,132,-1,30,16,192,12,0,178,206,184,198,1,4157
62.654935122,-2,1,1,3,-4,-14,-1,-1,1,27,-54,4,0,24,13,192,12,0,186,185,193,202,1,4158
62.666192055,-2,1,1,2,4,5,-2,0,3,88,-14,93,0,22,10,192,12,0,192,195,200,179,1,4159
62.676958084,-2,1,1,-6,0,-1,-2,0,3,-131,-187,-4,-7,10,3,192,12,0,202,179,187,197,1,4160
62.70702219,-1,1,1,5,0,0,-1,0,2,144,92,94,0,20,1,192,12,0,178,205,193,190,1,4161
62.717516184,-1,1,1,-3,-4,0,0,0,0,-149,-60,243,-2,17,2,192,12,0,200,182,184,199,1,4162
62.728160143,-1,1,1,5,-1,-1,1,0,-1,80,104,138,0,13,2,192,12,0,180,202,193,191,1,4163
62.75694108,-1,1,1,-5,7,4,1,0,-2,238,41,75,4,23,250,192,12,0,206,180,203,177,1,4164
62.772199154,-1,1,1,4,-5,-8,1,0,-2,-165,149,235,1,25,251,192,12,0,177,199,181,209,1,4165
62.778031111,-1,1,1,-12,7,5,1,0,-1,249,55,18,2,27,242,192,12,0,217,171,206,173,1,4166
62.806917191,0,1,1,0,-1,-4,0,0,0,-38,-136,134,-4,24,244,192,12,0,180,199,184,202,1,4167
62.818090201,0,1,1,0,5,4,0,0,0,14,243,38,1,25,237,192,12,0,193,194,199,180,1,4168
62.829166174,0,1,1,10,1,4,-1,0,0,-44,-211,159,-3,17,233,192,12,0,177,210,188,191,1,4169
62.857818127,0,1,1,0,-1,0,-2,1,0,168,-86,109,4,12,236,192,12,0,200,182,188,195,1,4170
62.868927002,0,1,1,0,-5,1,-2,2,0,32,-164,-163,0,3,221,192,12,0,191,193,183,199,1,4171
62.879846096,0,0,1,0,-6,0,-1,2,0,-52,-98,77,-2,6,224,192,12,0,193,191,187,196,1,4172
62.908922196,0,0,1,-3,-1,4,0,2,1,228,121,95,2,14,214,192,12,0,198,189,192,187,1,4173
62.91981411,0,0,1,-5,0,5,1,0,1,117,-23,104,2,18,217,192,12,0,199,188,190,189,1,4174
62.930040121,0,0,1,10,-3,-3,2,-1,1,-13,25,-42,3,29,208,192,12,0,170,210,188,197,1,4175
62.959053994,0,0,1,-7,5,0,1,-2,2,204,-110,201,5,24,212,192,12,0,212,172,202,180,1,4176
62.969871998,0,0,1,-1,-4,-1,0,-3,2,212,80,126,9,36,209,192,12,0,186,196,180,203,1,4177
62.98092103,0,0,1,-8,7,4,0,-3,2,178,-36,1,12,31,204,192,12,0,205,182,205,174,1,4178
63.010074139,0,1,1,3,7,3,-1,-2,2,-40,-212,194,6,27,204,192,12,0,180,206,195,185,1,4179
63.020962,0,1,1,-12,5,-1,-2,0,1,40,48,71,10,33,205,192,12,0,212,170,193,190,1,4180
63.032058001,1,1,1,9,0,0,-2,1,1,-113,-90,-25,-2,30,194,192,12,0,167,216,186,196,1,4181
63.061022044,1,1,1,1,0,3,-2,3,0,4,6,193,6,34,197,192,12,0,199,187,189,191,1,4182
63.071838141,1,1,1,-1,5,0,-2,4,1,-11,-123,99,0,26,192,192,12,0,194,189,200,183,1,4183
63.081973076,1,1,1,0,-7,0,-2,5,1,8,145,50,1,20,193,192,12,0,191,192,176,207,1,4184
63.111008168,1,1,1,-6,-1,0,-1,4,1,191,177,109,5,21,191,192,12,0,201,183,194,188,1,4185
63.121884108,2,1,1,6,1,8,0,2,1,-154,204,14,2,33,191,192,12,0,180,209,191,185,1,4186
63.133002043,2,1,1,-6,-5,4,0,0,1,220,-167,65,7,25,192,192,12,0,208,178,181,198,1,4187
63.16190219,2,1,1,8,10,-3,0,0,1,-25,-101,0,3,35,185,192,12,0,172,209,213,173,1,4188
63.172808171,2,1,1,-4,-4,0,0,-2,1,3,60,21,7,32,174,192,12,0,205,178,176,207,1,4189
63.184163094,2,1,1,-6,5,0,0,-2,2,38,26,154,10,39,176,192,12,0,197,186,203,180,1,4190
63.212888003,3,1,1,3,-3,5,0,-1,2,-58,-14,18,8,36,175,192,12,0,184,204,180,199,1,4191
63.223273039,3,1,1,1,6,5,0,0,2,239,5,31,11,37,169,192,12,0,194,193,202,177,1,4192
63.234035015,3,1,1,0,6,12,0,1,1,-119,-125,128,13,26,165,192,12,0,198,195,190,183,1,4193
63.263338089,4,1,1,12,1,0,0,2,1,12,44,167,8,27,158,192,12,0,172,210,188,195,1,4194
63.273822069,4,1,1,3,8,6,0,2,2,-86,61,124,15,30,161,192,12,0,199,189,201,177,1,4195
63.284846068,4,1,1,6,1,1,0,3,3,24,199,123,14,24,162,192,12,0,186,198,186,196,1,4196
63.313924075,4,2,1,-5,-1,-7,2,3,4,179,-240,125,17,22,162,192,12,0,202,175,192,197,1,4197
63.325591088,4,2,1,6,2,1,3,3,5,-115,22,133,14,24,165,192,12,0,178,206,195,187,1,4198
63.334916115,4,2,1,-10,-3,2,4,3,5,53,-21,-104,19,24,160,192,12,0,214,172,183,198,1,4199
63.364083052,5,2,1,1,0,6,5,3,3,-172,-213,146,18,23,164,192,12,0,182,206,193,185,1,4200
63.375078202,5,2,1,-3,0,0,3,2,1,108,-26,26,17,14,162,192,12,0,198,185,192,191,1,4201
63.388406992,5,2,1,-7,4,-2,1,1,0,-13,98,231,21,18,162,192,12,0,199,182,199,186,1,4202
63.414781094,5,2,1,0,4,0,0,0,0,9,-139,149,19,12,162,192,12,0,185,199,194,188,1,4203
63.425134182,4,2,1,-4,-9,0,-2,0,0,158,-85,194,17,2,165,192,12,0,199,184,173,210,1,4204
63.436100006,4,2,1,4,9,1,-4,0,0,-23,196,106,14,4,168,192,12,0,182,203,213,169,1,4205
63.464876175,4,2,1,3,-2,-4,-4,0,0,251,-12,69,14,-4,169,192,12,0,188,192,183,204,1,4206
63.47586608,4,3,2,0,12,5,-3,0,1,-236,72,106,16,1,175,192,12,0,195,192,209,170,1,4207
63.486934185,4,3,2,5,-5,-4,-2,1,0,142,-4,34,13,-5,181,192,12,0,182,198,175,212,1,4208
63.516091109,4,3,2,-9,-1,-3,0,1,0,35,-131,205,21,-3,182,192,12,0,209,172,195,191,1,4209
63.526077986,4,3,2,8,-8,2,1,2,0,185,-241,234,21,-6,179,192,12,0,173,212,179,201,1,4210
63.536995173,4,3,2,-8,1,5,2,2,0,-106,-52,194,18,-4,188,192,12,0,213,174,199,180,1,4211
63.568086148,3,3,2,3,0,2,2,1,0,-205,-130,113,21,-4,183,192,12,0,180,205,190,191,1,4212
63.576871157,3,3,2,-12,1,4,1,0,0,-21,-48,156,14,-15,184,192,12,0,215,172,191,188,1,4213
63.587805033,3,3,2,5,-4,-9,0,-1,0,-123,-35,238,8,-22,181,192,12,0,169,206,188,203,1,4214
63.616974116,2,3,2,3,1,0,-1,-2,1,232,252,152,14,-22,192,192,12,0,190,193,197,186,1,4215
63.628329039,2,3,2,1,-2,-5,-2,-2,1,-22,2,255,9,-13,194,192,12,0,190,189,188,199,1,4216
63.637861014,2,3,2,3,-1,0,-2,-2,1,-126,28,67,0,-21,199,192,12,0,188,196,191,192,1,4217
63.666990996,2,3,2,5,-3,-3,-1,-1,0,149,-133,-2,0,-17,199,192,12,0,185,195,189,197,1,4218
63.677988053,2,3,2,1,6,7,0,0,0,51,81,35,8,-10,201,192,12,0,197,192,202,176,1,4219
63.692147017,1,3,2,6,0,3,1,0,-2,110,-115,118,4,-14,196,192,12,0,184,202,185,196,1,4220
63.717887163,1,3,2,-7,2,0,3,0,-2,26,-227,64,14,-11,198,192,12,0,207,175,195,188,1,4221
63.728118182,1,3,2,9,4,-9,4,0,-2,10,136,29,7,-14,188,192,12,0,167,208,200,190,1,4222
63.739021063,1,3,2,-14,-1,-2,4,0,0,42,-3,118,15,-17,188,192,12,0,220,160,186,199,1,4223
63.76789999,1,3,2,11,-4,-3,3,0,0,49,134,178,16,-18,191,192,12,0,161,219,188,198,1,4224
63.780410052,1,3,1,-8,-3,0,2,1,0,28,-162,23,12,-26,195,192,12,0,214,168,190,194,1,4225
63.790094138,0,3,1,5,-6,-8,0,1,0,28,23,125,17,-31,198,192,12,0,172,204,189,201,1,4226
63.818885088,0,3,1,-4,3,3,0,1,-1,46,-155,141,19,-30,194,192,12,0,204,182,200,180,1,4227
63.828931094,0,3,2,5,-2,3,-1,0,-3,54,241,46,27,-22,201,192,12,0,181,205,183,197,1,4228
63.840145111,0,3,2,-5,10,6,-1,-1,-4,0,-196,-175,27,-28,196,192,12,0,207,181,206,171,1,4229
63.86908412,0,3,2,0,2,0,-1,-2,-3,-106,-67,206,23,-31,198,192,12,0,187,196,187,196,1,4230
63.879894019,0,3,2,0,4,3,0,-2,-2,-155,-41,28,21,-31,198,192,12,0,192,193,195,185,1,4231
63.891007185,0,4,2,2,0,-5,0,-1,0,84,-56,182,17,-39,202,192,12,0,186,192,189,198,1,4232
63.920161009,-1,3,2,-9,-8,-3,0,0,2,6,176,152,20,-32,209,192,12,0,205,175,181,205,1,4233
63.936858178,-1,4,2,-2,0,1,0,2,3,68,-101,36,22,-42,212,195,12,0,192,198,199,188,1,4234
63.947427988,-1,4,2,-3,-2,6,0,3,3,-174,-21,191,19,-44,220,195,12,0,200,195,189,195,1,4235
63.975967169,-1,4,2,5,0,3,-1,3,1,3,-201,45,19,-54,218,195,12,0,186,206,195,191,1,4236
63.987003088,-2,4,2,2,0,0,-2,1,0,27,46,81,15,-47,223,195,12,0,195,195,195,194,1,4237
63.9980402,-2,4,2,-3,-1,-3,-2,-1,0,-237,-65,33,12,-49,214,195,12,0,201,185,194,199,1,4238
64.027043105,-2,4,2,9,-1,-3,-2,-2,0,85,197,65,6,-43,225,195,12,0,176,211,194,197,1,4239
64.037979126,-3,3,2,-2,-8,-2,-1,-3,0,61,-9,14,12,-38,228,195,12,0,205,182,184,207,1,4240
64.049391032,-3,3,2,1,2,3,0,-2,1,94,159,249,12,-34,234,195,12,0,191,200,204,182,1,4241
64.077877999,-3,3,2,-2,4,3,1,-2,0,89,-120,13,14,-39,235,195,12,0,201,191,198,188,1,4242
64.088433028,-3,3,2,3,9,-2,2,-1,0,127,109,148,17,-33,228,195,12,0,186,201,205,185,1,4243
64.098860979,-3,4,2,-1,6,0,2,0,0,-157,-31,123,9,-25,227,195,12,0,200,190,196,192,1,4244
64.128121138,-3,3,2,-4,-5,-3,2,0,0,121,241,25,19,-24,224,195,12,0,199,187,183,209,1,4245
64.138955117,-3,4,2,3,2,-2,1,1,0,-141,-36,120,10,-25,226,195,12,0,184,202,204,188,1,4246
64.151484013,-3,3,2,-5,-4,4,0,2,0,47,11,16,17,-26,224,195,12,0,208,185,184,202,1,4247
64.178930998,-3,3,2,-3,-3,0,0,3,0,91,1,169,15,-26,221,195,12,0,194,195,192,197,1,4248
64.189958096,-4,3,2,-5,0,5,-1,3,0,160,89,133,19,-14,219,195,12,0,203,191,195,189,1,4249
64.200865031,-4,4,2,2,-2,2,-1,2,0,12,-109,102,14,-11,222,195,12,0,187,203,190,198,1,4250
64.229053021,-4,4,2,7,10,3,-2,0,0,-61,43,19,15,4,224,195,12,0,187,205,211,175,1,4251
64.243270159,-4,4,2,-2,0,4,-2,-1,0,6,129,127,21,10,231,195,12,0,207,186,184,201,1,4252
64.250924111,-3,4,2,7,6,-7,-2,-2,1,114,-57,184,24,10,231,195,12,0,178,205,206,188,1,4253
64.280081034,-3,4,2,-10,2,4,-1,-1,2,104,-49,66,30,16,227,195,12,0,218,175,191,194,1,4254
64.291152001,-3,4,2,-4,1,-3,0,0,3,-174,-121,-64,20,7,215,195,12,0,191,195,196,196,1,4255
64.302075148,-3,4,2,3,-1,-1,0,2,2,68,7,92,22,7,211,195,12,0,185,202,191,199,1,4256
64.332358122,-3,4,2,-6,-3,4,1,3,1,-56,77,110,24,14,206,195,12,0,209,184,188,197,1,4257
64.341231108,-2,4,2,6,-3,4,0,4,0,165,17,248,24,24,212,195,12,0,181,211,191,194,1,4258
64.352032185,-2,4,2,-12,-1,16,0,3,0,21,247,159,23,29,215,195,12,0,220,177,188,187,1,4259
64.381017208,-2,4,2,6,-5,2,-2,1,0,-82,4,65,18,32,214,195,12,0,176,216,187,200,1,4260
64.392359019,-2,4,2,-8,6,11,-2,0,0,-47,57,204,17,39,217,195,12,0,217,182,204,176,1,4261
64.402830124,-1,4,2,7,-5,-11,-3,-2,3,-149,31,51,13,36,218,195,12,0,172,208,186,212,1,4262
64.43214798,-1,4,2,-9,0,-7,-2,-3,5,27,-70,68,19,41,217,195,12,0,213,170,202,194,1,4263
64.442826033,-1,4,2,1,-7,0,-2,-3,7,47,-241,104,18,31,215,195,12,0,184,205,184,206,1,4264
64.456148148,0,4,2,3,-2,9,-1,-2,6,129,-208,155,21,30,218,195,12,0,194,202,194,188,1,4265
64.482058049,0,4,2,-4,6,11,-1,-1,4,-40,-105,59,19,21,216,195,12,0,209,189,202,178,1,4266
64.492949009,0,4,2,0,1,-4,0,-1,0,42,-123,49,13,15,220,195,12,0,189,196,193,200,1,4267
64.504368067,0,4,2,-4,2,-7,0,-1,-1,-7,112,236,5,12,219,195,12,0,198,185,200,195,1,4268
64.532963991,0,4,2,2,-8,-1,0,0,-1,-79,-133,74,3,13,231,195,12,0,186,202,181,209,1,4269
64.544265986,0,4,2,3,4,-3,-1,0,0,-34,185,124,5,20,236,195,12,0,190,197,209,182,1,4270
64.554290057,0,4,2,-4,-4,-2,-1,0,0,-141,-106,201,5,18,234,195,12,0,203,184,186,206,1,4271
64.583006144,0,4,2,9,-4,1,-1,0,0,208,-115,166,8,10,240,195,12,0,177,213,191,197,1,4272
64.594134093,0,4,2,-5,0,3,0,0,0,138,-156,221,11,2,235,195,12,0,213,179,196,190,1,4273
64.60504818,0,4,2,-2,-7,-5,0,0,-1,-165,-84,16,6,-3,228,195,12,0,191,194,185,208,1,4274
64.634030104,0,3,2,7,8,-1,0,-1,-2,176,-40,51,14,-4,225,195,12,0,180,208,214,175,1,4275
64.644941092,0,3,2,-2,-4,-5,1,-2,-2,92,-7,102,17,-5,220,195,12,0,202,183,182,211,1,4276
64.65746212,0,3,2,0,-1,-7,1,-2,-1,-98,60,11,13,1,218,195,12,0,190,193,199,196,1,4277
64.684895039,0,3,2,-2,2,2,1,-2,-1,169,-218,124,24,-2,220,195,12,0,200,191,199,188,1,4278
64.695387125,0,3,2,3,-5,6,0,-2,-1,105,-142,154,24,-11,222,195,12,0,190,204,181,203,1,4279
64.706313134,0,3,2,-16,0,9,0,-1,-1,42,189,166,24,-6,220,195,12,0,220,172,196,185,1,4280
64.735046149,0,3,2,2,-8,6,0,0,-1,9,3,32,21,-10,221,195,12,0,180,214,178,206,1,4281
64.74734211,0,4,2,-5,2,-3,0,0,-1,15,191,222,26,-2,220,195,12,0,204,183,207,184,1,4282
64.756970167,0,4,2,4,5,2,-2,0,0,-56,92,140,15,-2,219,195,12,0,184,207,199,188,1,4283
64.785868168,0,4,2,2,-7,-1,-3,-1,2,245,-88,176,25,-4,221,195,12,0,193,195,179,211,1,4284
64.797102213,0,4,2,-2,4,4,-3,-2,4,34,18,51,23,-9,221,195,12,0,203,190,207,179,1,4285
64.806941986,0,4,2,4,-4,6,-3,-2,5,-123,-42,34,23,-9,219,195,12,0,188,206,180,204,1,4286
64.836569071,0,4,2,-8,2,9,-2,-1,4,69,-42,73,30,-11,221,195,12,0,215,182,198,183,1,4287
64.846969128,0,4,2,5,-5,0,0,-1,3,-161,-97,81,24,-20,218,195,12,0,180,209,185,204,1,4288
64.857957125,0,4,2,1,4,0,0,0,2,97,211,198,29,-23,220,195,12,0,197,192,205,184,1,4289
64.886890173,0,4,2,-3,6,3,1,0,2,-167,-185,102,24,-25,214,195,12,0,202,190,199,187,1,4290
64.89805007,-1,4,2,-6,-2,1,1,0,3,170,-146,181,37,-36,218,195,12,0,202,189,184,203,1,4291
64.908040047,-1,4,2,4,11,2,0,0,3,-219,-37,59,31,-40,210,195,12,0,183,207,213,175,1,4292
64.93688798,-1,4,2,-2,0,0,0,0,3,-5,-95,7,28,-41,212,195,12,0,202,188,185,203,1,4293
64.948047161,-1,4,2,-4,0,-5,-1,1,3,-46,59,101,24,-38,219,195,12,0,197,188,196,197,1,4294
64.959004164,-2,4,2,2,-2,0,-1,2,2,-103,-4,101,26,-35,223,195,12,0,186,202,191,198,1,4295
64.988100052,-2,5,2,0,-4,-2,-2,3,1,129,-213,209,27,-47,226,195,12,0,197,190,191,200,1,4296
64.999013186,-2,5,2,2,0,-4,-1,3,0,50,64,4,30,-54,230,195,12,0,189,197,199,193,1,4297
65.009848118,-2,5,2,0,-3,4,-1,2,0,-192,-140,81,21,-71,225,195,12,0,199,194,188,198,1,4298
65.038858176,-3,5,2,9,8,-3,0,0,-1,27,149,136,21,-67,218,195,12,0,179,207,212,180,1,4299
65.048985005,-3,5,2,0,-3,7,0,-1,-2,-153,-22,57,20,-74,218,195,12,0,205,190,179,204,1,4300
65.060064078,-4,5,2,5,-4,-4,1,-2,-2,-72,81,171,19,-73,217,195,12,0,184,201,192,200,1,4301
65.089169979,-4,5,2,-6,4,-1,2,-2,-1,109,111,48,25,-65,224,195,12,0,208,180,205,185,1,4302
65.106094122,-4,5,2,-1,8,1,2,-1,0,-72,-100,129,17,-66,225,196,12,0,192,200,205,185,1,4303
65.117004156,-5,5,2,-8,0,0,3,0,0,159,-120,36,19,-63,224,196,12,0,206,184,187,204,1,4304
65.146625996,-5,5,2,2,3,2,2,0,0,-248,-153,180,10,-61,218,196,12,0,186,207,200,189,1,4305
65.165559054,-5,5,2,10,1,-2,0,1,0,-17,110,80,11,-50,218,198,12,0,182,211,198,199,1,4306
65.175971985,-5,5,2,-2,-5,1,0,2,0,-47,156,49,8,-36,212,198,12,0,211,185,188,207,1,4307
65.202847004,-6,5,2,0,4,-1,-1,3,0,42,-201,52,16,-44,214,198,12,0,196,198,209,187,1,4308
65.21291399,-6,4,2,-5,-5,0,-1,2,0,54,-11,27,19,-41,206,198,12,0,205,189,186,210,1,4309
65.22389102,-6,4,2,3,-1,-5,0,2,0,22,-119,195,21,-49,202,198,12,0,184,206,201,198,1,4310
65.25298214,-6,5,2,-4,3,5,0,0,0,66,-158,103,26,-50,206,198,12,0,211,189,202,188,1,4311
65.263903141,-6,5,2,0,-1,9,0,0,0,81,-211,255,23,-46,201,198,12,0,196,207,189,198,1,4312
65.274960041,-7,5,2,-6,4,0,0,-1,0,140,101,70,23,-33,204,198,12,0,208,187,205,189,1,4313
65.303945065,-7,5,2,5,1,5,0,-1,0,-40,-185,167,26,-29,208,198,12,0,187,212,194,197,1,4314
65.31500721,-7,5,2,-10,1,1,-1,-1,0,-42,49,73,20,-27,202,198,12,0,217,179,198,195,1,4315
65.324994088,-7,5,2,7,4,7,-1,0,2,15,182,119,19,-16,202,198,12,0,181,220,200,189,1,4316
65.354060173,-7,5,2,0,-4,7,-2,1,3,86,-108,56,23,-26,203,198,12,0,208,193,184,206,1,4317
65.364984036,-7,5,2,5,3,4,-2,2,4,-29,239,246,18,-15,207,198,12,0,190,209,205,187,1,4318
65.376847029,-7,5,3,-11,1,14,-1,2,5,250,-52,85,22,-13,205,198,12,0,220,181,191,193,1,4319
65.406394005,-6,5,3,0,0,0,0,2,5,-178,71,-87,16,-16,198,198,12,0,189,206,195,199,1,4320
65.415932179,-6,5,3,0,1,1,0,2,6,210,167,212,21,-12,197,198,12,0,197,200,199,195,1,4321
65.425868035,-6,5,3,-10,-7,0,0,1,6,-167,-211,93,10,-22,193,198,12,0,213,181,186,209,1,4322
65.455006123,-6,5,3,11,3,-6,0,0,6,-55,51,47,17,-16,197,198,12,0,169,220,211,189,1,4323
65.465877056,-6,5,3,5,-7,5,-1,0,5,29,-158,11,11,-18,200,198,12,0,202,197,181,209,1,4324
65.477488995,-6,5,3,-8,6,4,-2,0,4,59,-122,212,12,-21,197,198,12,0,216,182,212,180,1,4325
65.506161213,-6,5,3,1,7,15,-2,-1,2,149,-253,179,19,-27,201,198,12,0,193,214,197,186,1,4326
65.5170362,-6,5,3,-6,2,-6,-1,-1,0,-239,-179,55,5,-37,194,198,12,0,206,184,198,203,1,4327
65.52987504,-6,5,3,6,1,0,0,-1,0,53,103,221,10,-25,198,198,12,0,182,212,198,198,1,4328
65.560995102,-6,5,3,2,-6,3,0,0,1,-27,-69,67,0,-32,201,198,12,0,200,197,186,206,1,4329
65.56693101,-6,4,3,12,1,5,0,1,2,-126,62,118,1,-26,207,198,12,0,183,217,203,188,1,4330
65.578097105,-6,4,3,-6,-2,5,0,2,3,144,-66,241,-5,-24,203,198,12,0,220,180,190,200,1,4331
65.606863022,-6,4,3,0,-2,-3,0,2,3,-255,-173,61,-5,-34,203,198,12,0,190,202,197,200,1,4332
65.620368004,-6,4,3,4,4,8,1,1,3,146,154,36,-2,-28,203,198,12,0,195,207,203,186,1,4333
65.628038168,-6,4,3,-6,-7,-8,2,0,2,-160,-121,-18,-11,-38,194,198,12,0,207,182,186,216,1,4334
65.656988144,-6,4,3,9,3,6,2,-1,2,71,-28,207,0,-39,203,198,12,0,181,220,206,184,1,4335
65.667926073,-7,3,3,-12,0,0,2,-2,2,155,-133,127,0,-43,201,198,12,0,220,171,195,199,1,4336
65.678003073,-7,3,3,9,0,-11,1,-2,1,100,-186,193,1,-50,199,198,12,0,169,217,201,203,1,4337
65.706847191,-7,3,3,-2,-1,2,0,-1,1,152,-160,160,9,-44,201,198,12,0,210,187,194,198,1,4338
65.717947007,-7,3,3,-1,-3,-5,0,-1,0,-76,-236,2,7,-60,204,198,12,0,195,195,196,204,1,4339
65.729006052,-8,3,3,-1,5,9,0,0,0,40,117,25,12,-44,210,198,12,0,202,201,205,182,1,4340
65.756885052,-8,3,3,5,2,2,0,0,-1,-47,-5,86,12,-46,214,198,12,0,189,208,196,198,1,4341
65.768041134,-8,3,3,4,0,1,0,0,-2,102,137,155,12,-51,217,198,12,0,196,200,196,198,1,4342
65.778911114,-8,3,3,5,2,-2,0,0,-1,25,74,154,15,-47,218,198,12,0,192,201,202,195,1,4343
65.807975054,-8,3,3,-7,-9,-3,0,0,0,22,-168,136,11,-48,214,198,12,0,212,180,182,216,1,4344
65.81896019,-8,3,3,-1,6,-1,1,0,0,47,194,186,19,-40,214,198,12,0,193,201,215,181,1,4345
65.829100132,-8,3,3,-11,-7,-1,2,1,1,-13,-158,119,19,-46,208,198,12,0,212,182,182,214,1,4346
65.857947111,-8,3,3,-2,0,0,2,0,1,43,18,78,21,-43,215,198,12,0,193,203,203,191,1,4347
65.869055033,-9,3,3,-7,-1,2,0,0,0,-37,-60,190,19,-46,212,198,12,0,207,190,195,198,1,4348
65.879980088,-9,3,3,10,-3,0,-1,0,0,-70,-68,123,16,-48,215,198,12,0,176,219,193,202,1,4349
65.909017086,-9,3,3,-5,11,3,-3,-1,-1,127,212,4,18,-39,216,198,12,0,216,182,216,176,1,4350
65.919867993,-9,3,3,-2,-6,-4,-5,-2,-1,-63,-92,202,15,-38,213,198,12,0,195,196,181,218,1,4351
65.930046082,-9,3,3,1,13,-7,-5,-1,0,171,115,243,17,-23,212,198,12,0,191,199,220,174,1,4352
65.959078074,-9,3,3,2,2,7,-3,0,0,-133,-82,196,11,-34,209,198,12,0,197,204,187,202,1,4353
65.970052004,-9,3,3,0,0,0,-1,0,0,65,118,76,13,-20,207,198,12,0,200,195,195,199,1,4354
65.980853081,-9,3,3,13,2,7,0,2,0,-45,124,92,13,-18,207,198,12,0,181,220,198,191,1,4355
66.009957075,-9,3,3,-9,-5,-1,1,4,0,34,88,37,14,-21,205,198,12,0,220,172,188,208,1,4356
66.021061182,-8,3,3,1,0,-2,2,4,0,-126,196,241,8,-13,203,198,12,0,187,206,203,194,1,4357
66.031117201,-8,3,3,-8,1,0,2,4,0,120,-136,65,12,-22,199,198,12,0,211,184,200,196,1,4358
66.060060025,-8,3,3,-2,0,-1,2,2,1,-52,39,137,4,-20,194,198,12,0,194,200,198,199,1,4359
66.071202994,-8,3,3,-11,3,6,1,0,1,-114,202,21,6,-17,197,198,12,0,215,186,199,191,1,4360
66.082020998,-8,3,3,1,-5,3,0,0,1,154,-171,55,5,-25,199,198,12,0,188,210,185,207,1,4361
66.112195015,-8,3,3,0,7,7,-2,-1,0,76,44,222,11,-12,202,198,12,0,201,200,211,178,1,4362
66.122196198,-8,3,3,6,-8,1,-4,-1,0,-54,-101,194,11,-23,200,198,12,0,189,207,179,216,1,4363
66.13299799,-8,3,3,2,5,0,-5,0,1,154,221,12,14,-13,200,198,12,0,199,196,213,183,1,4364
66.161401987,-8,3,3,-3,7,0,-4,0,2,-146,14,54,9,-3,202,198,12,0,205,189,204,192,1,4365
66.172039032,-8,3,3,-7,7,2,-2,0,3,154,-182,49,9,-2,205,198,12,0,207,190,202,191,1,4366
66.182957173,-7,3,3,11,5,-2,0,1,3,-118,115,89,12,11,212,198,12,0,173,220,200,197,1,4367
66.212098122,-7,3,3,-15,-3,4,1,1,3,205,136,31,16,12,214,198,12,0,220,166,186,206,1,4368
66.223173142,-7,3,3,6,2,2,1,3,2,19,207,241,17,19,212,198,12,0,176,220,204,189,1,4369
66.233834029,-6,3,3,-10,-1,13,1,4,0,-26,157,2,19,21,203,198,12,0,220,182,187,197,1,4370
66.264159203,-6,3,3,3,-1,9,0,4,0,-185,-228,27,11,17,204,198,12,0,187,215,193,194,1,4371
66.273211003,-6,3,3,-9,-1,-1,-2,3,1,154,29,216,21,29,208,198,12,0,214,180,197,199,1,4372
66.284004212,-5,3,3,-2,1,-6,-3,2,2,-99,-150,252,15,21,207,198,12,0,190,200,204,196,1,4373
66.313073159,-5,3,3,14,1,-13,-4,0,4,-40,-19,210,25,24,212,198,12,0,169,215,204,202,1,4374
66.324113131,-5,3,3,5,0,3,-4,0,5,103,-40,187,19,23,205,198,12,0,202,196,193,199,1,4375
66.334908009,-4,3,3,-3,-1,0,-3,-1,4,-217,-172,167,10,29,206,198,12,0,207,188,196,200,1,4376
66.364188195,-4,3,3,-10,-3,4,-1,-1,1,234,141,199,13,37,207,198,12,0,213,186,192,199,1,4377
66.373934031,-3,3,3,3,0,-3,0,0,-1,139,-84,161,13,32,213,198,12,0,182,211,203,195,1,4378
66.388092041,-3,3,3,-6,1,-6,2,0,-3,-33,-91,250,14,36,213,198,12,0,208,182,202,199,1,4379
66.413848162,-3,3,3,7,2,0,2,0,-4,23,-28,42,13,26,213,198,12,0,180,215,201,194,1,4380
66.425351143,-2,3,3,0,3,-3,1,0,-3,-128,-74,121,11,24,208,198,12,0,201,191,201,196,1,4381
66.435907126,-2,3,3,3,5,1,0,0,-2,-47,108,17,8,24,204,198,12,0,194,202,202,192,1,4382
66.466899157,-2,3,3,-1,-3,-7,-1,0,-1,-157,-130,141,3,18,204,198,12,0,199,190,190,211,1,4383
66.4758811,-1,3,3,1,-3,-5,-1,0,0,-28,103,50,2,32,208,198,12,0,192,198,199,201,1,4384
66.485985041,-1,3,3,-1,0,2,0,1,-1,164,-128,10,5,17,210,198,12,0,202,195,199,194,1,4385
66.515086174,-1,3,3,4,-1,-4,0,2,-2,-43,-243,2,4,15,214,198,12,0,188,203,197,202,1,4386
66.526214123,-1,3,3,8,2,7,1,1,-2,20,-150,42,3,4,213,198,12,0,191,210,200,189,1,4387
66.539523125,0,3,3,6,2,0,2,0,-3,-5,-167,217,4,8,213,198,12,0,195,200,200,195,1,4388
66.565989018,0,3,3,-6,2,2,2,0,-3,-46,249,129,5,16,220,198,12,0,214,183,197,195,1,4389
66.577031136,0,3,3,-4,-1,0,2,0,-1,-73,-90,138,0,9,217,198,12,0,198,197,193,202,1,4390
66.587960005,0,3,3,-1,2,-14,2,0,0,-5,46,75,1,18,220,198,12,0,190,194,209,198,1,4391
66.617170096,0,3,3,5,1,-4,2,0,1,-33,-24,189,-9,9,219,198,12,0,187,204,199,199,1,4392
66.627031088,0,2,3,-9,-2,-2,1,1,1,-21,-140,229,-13,7,220,198,12,0,214,178,193,204,1,4393
66.638024092,0,2,3,4,0,0,0,1,0,253,55,39,-8,5,225,198,12,0,183,211,201,195,1,4394
66.667235136,0,2,3,-6,1,9,-1,1,-1,-72,-220,-84,-9,-2,221,198,12,0,214,188,195,193,1,4395
66.677996159,0,2,3,-5,-1,-12,-1,1,-3,102,-70,55,-7,-13,221,198,12,0,196,190,200,205,1,4396
66.688876152,0,2,3,-3,1,5,-2,0,-4,9,127,213,-4,-14,220,198,12,0,200,200,199,191,1,4397
66.718169213,0,2,3,1,-7,-6,-2,0,-4,-81,-63,84,-9,-12,227,198,12,0,190,200,187,214,1,4398
66.727997065,0,2,3,0,2,6,-2,0,-2,-101,9,230,-10,-13,230,198,12,0,201,199,206,184,1,4399
66.739103079,0,1,3,9,-8,0,-2,0,-1,-39,57,184,-8,-17,234,198,12,0,183,212,182,213,1,4400
