TiempoEjecucion,AnguloPitch,AnguloRoll,AnguloYaw,G_Pitch,G_Roll,G_Yaw,G_Pitch_filtrada,G_Roll_filtrada,G_Yaw_filtrada,Ax,Ay,Az,Ax_filtrada,Ay_filtrada,Az_filtrada,posZ,posZ_filtrada,velZ,motorDelantero,motorTrasero,motorDerecho,motorIzquierdo,EstadoEncendido,MensajesRecibidos
47.255723953,5,-1,0,8,-2,0,1,0,2,148,-21,62,-31,0,184,0,0,0,108,113,104,113,1,4256
47.26682806,5,-1,0,8,-2,0,1,0,2,148,-21,62,-31,0,184,0,0,0,108,113,108,109,1,4257
47.28006196,4,-1,0,7,-2,0,0,-1,2,148,-21,62,-31,0,184,0,0,0,110,108,110,110,1,4258
47.29783988,2,0,0,6,-2,0,0,-1,2,170,-188,217,-2,-62,218,0,0,0,109,109,116,103,1,4259
47.308691978,0,2,0,4,-1,0,-1,-1,1,155,-162,15,88,-96,251,0,0,0,109,109,116,103,1,4260
47.319802999,0,2,0,4,-1,0,-1,-1,1,155,-162,15,88,-96,251,0,0,0,110,110,103,115,1,4261
47.330925941,0,2,0,4,-1,0,0,0,0,155,-162,15,88,-96,251,0,0,0,110,110,103,115,1,4262
47.350739002,-1,2,0,2,0,0,0,0,0,5,-113,28,171,-117,15,0,0,0,110,106,114,107,1,4263
47.361768961,-3,0,0,0,2,0,0,1,0,-80,-122,192,160,-149,12,0,0,0,110,106,114,107,1,4264
47.372750997,-3,0,0,0,2,0,0,1,0,-80,-122,192,160,-149,12,0,0,0,110,109,110,110,1,4265
47.383773088,-3,0,0,0,2,0,0,0,-1,-80,-122,192,160,-149,12,0,0,0,110,109,110,110,1,4266
47.40465498,-2,3,0,-1,3,0,-1,0,-1,62,15,87,53,-152,246,0,0,0,111,110,104,112,1,4267
47.416017055,-3,1,0,-3,2,0,0,0,0,-58,-37,100,-47,-99,201,0,0,0,111,110,104,112,1,4268
47.429656029,-3,1,0,-3,2,0,0,0,0,-58,-37,100,-47,-99,201,0,0,0,112,105,115,106,1,4269
47.437934875,-3,1,0,-2,2,0,0,0,0,-58,-37,100,-47,-99,201,0,0,0,112,105,115,106,1,4270
47.460933924,0,0,0,-3,0,0,0,0,0,-44,113,135,-57,-25,132,0,0,0,109,112,108,109,1,4271
47.469040871,0,3,0,-2,0,0,0,0,0,140,19,145,-11,27,85,0,0,0,106,113,108,110,1,4272
47.480175972,0,3,0,-2,0,0,0,0,0,140,19,145,-11,27,85,0,0,0,106,113,108,110,1,4273
47.490638971,0,2,0,-1,0,0,-1,0,0,140,19,145,-11,27,85,0,0,0,109,109,109,111,1,4274
47.511744022,1,3,0,0,0,0,0,0,0,60,55,195,22,53,101,0,0,0,114,104,112,108,1,4275
47.523578882,1,6,0,1,1,0,1,0,0,202,39,173,54,59,156,0,0,0,114,104,112,108,1,4276
47.533804893,1,6,0,1,1,0,1,0,0,202,39,173,54,59,156,0,0,0,106,116,109,107,1,4277
47.544652939,1,6,0,1,1,0,0,0,0,202,39,173,54,59,156,0,0,0,106,116,109,107,1,4278
47.564740896,4,6,0,2,3,0,0,0,0,-4,154,173,105,53,192,0,0,0,118,100,110,110,1,4279
47.575707912,4,11,0,3,5,0,-1,0,0,228,26,65,138,59,186,0,0,0,118,100,110,110,1,4280
47.58693099,4,11,0,3,5,0,-1,0,0,228,26,65,138,59,186,0,0,0,105,112,109,112,1,4281
47.597962856,4,10,0,2,5,0,-2,1,0,228,26,65,138,59,186,0,0,0,105,112,109,112,1,4282
47.61780405,7,11,0,4,8,0,-2,1,0,10,34,30,125,80,147,0,0,0,108,110,112,108,1,4283
47.628809929,7,10,0,6,10,0,-1,0,-1,0,45,183,95,82,96,0,0,0,108,110,112,108,1,4284
47.639852047,7,10,0,6,10,0,-1,0,-1,0,45,183,95,82,96,0,0,0,117,101,105,115,1,4285
47.650702953,7,9,0,5,9,0,0,0,-2,0,45,183,95,82,96,0,0,0,117,101,105,115,1,4286
47.672110081,8,11,0,7,11,0,0,-1,-1,57,44,50,66,50,65,0,0,0,102,117,114,105,1,4287
47.682683945,8,10,0,7,12,0,0,0,1,-5,-21,28,31,20,86,0,0,0,102,117,114,105,1,4288
47.693798065,8,10,0,7,12,0,0,0,1,-5,-21,28,31,20,86,0,0,0,111,111,106,109,1,4289
47.706049919,7,10,0,7,11,0,1,1,2,-5,-21,28,31,20,86,0,0,0,111,111,106,109,1,4290
47.724817991,7,9,0,7,10,0,3,1,1,-30,36,77,5,19,151,0,0,0,114,104,105,115,1,4291
47.735790014,7,7,0,7,9,0,1,1,0,-53,10,151,-3,21,228,0,0,0,114,104,105,115,1,4292
47.746762991,7,7,0,7,9,0,1,1,0,-53,10,151,-3,21,228,0,0,0,106,111,117,104,1,4293
47.75960207,6,6,0,6,9,0,-1,0,-1,-53,10,151,-3,21,228,0,0,0,106,111,117,104,1,4294
47.777842045,7,6,0,6,8,0,-1,0,-1,-2,96,15,-14,17,24,0,0,0,113,104,103,118,1,4295
47.788676023,6,6,0,6,7,0,-2,-1,-2,33,-53,114,-32,23,19,0,0,0,113,104,103,118,1,4296
47.799660921,6,6,0,6,7,0,-2,-1,-2,33,-53,114,-32,23,19,0,0,0,110,106,106,115,1,4297
47.810721874,6,5,0,6,7,0,-2,-2,-2,33,-53,114,-32,23,19,0,0,0,110,106,106,115,1,4298
47.830851078,5,5,0,6,6,0,-2,-2,-2,-37,-44,214,-27,33,252,0,0,0,112,108,110,109,1,4299
47.842002869,4,5,0,6,6,0,-2,-3,-1,61,-60,91,2,10,14,0,0,0,112,108,110,109,1,4300
47.855479002,4,5,0,6,6,0,-2,-3,-1,61,-60,91,2,10,14,0,0,0,108,112,107,111,1,4301
47.864491939,4,5,0,5,5,0,-2,-4,0,61,-60,91,2,10,14,0,0,0,108,112,107,111,1,4302
47.884744882,3,3,0,5,5,0,0,-1,1,-114,-46,78,19,-43,53,0,0,0,105,115,116,102,1,4303
47.895920038,1,4,0,3,5,0,2,2,2,62,-83,212,1,-77,64,0,0,0,105,115,116,102,1,4304
47.90666604,1,4,0,3,5,0,2,2,2,62,-83,212,1,-77,64,0,0,0,109,110,113,106,1,4305
47.91783905,1,4,0,3,5,0,4,5,1,62,-83,212,1,-77,64,0,0,0,109,110,113,106,1,4306
47.93779397,3,2,0,2,4,0,4,5,1,-63,67,116,-25,-67,40,0,0,0,109,110,112,107,1,4307
47.951833963,4,3,0,1,3,0,3,5,0,65,69,189,-28,-29,239,0,0,0,109,110,112,107,1,4308
47.959670067,4,3,0,1,3,0,3,5,0,65,69,189,-28,-29,239,0,0,0,114,104,109,112,1,4309
47.971009016,4,3,0,1,3,0,0,3,0,65,69,189,-28,-29,239,0,0,0,114,104,109,112,1,4310
47.99078393,6,3,0,2,3,0,0,3,0,18,84,128,-3,20,166,0,0,0,111,106,109,112,1,4311
48.00185895,6,6,0,4,4,0,-2,1,-1,108,30,117,28,70,123,0,0,0,111,106,109,112,1,4312
48.012943029,6,6,0,4,4,0,-2,1,-1,108,30,117,28,70,123,0,0,0,107,111,113,107,1,4313
48.02363801,6,5,0,3,3,0,-3,0,-1,108,30,117,28,70,123,0,0,0,107,111,113,107,1,4314
48.043742895,9,6,0,6,5,0,-3,0,-1,32,131,126,52,90,127,0,0,0,106,110,103,119,1,4315
48.054777861,11,3,0,7,6,0,-1,-1,-2,-158,159,171,60,82,139,0,0,0,106,110,103,119,1,4316
48.065696001,11,3,0,7,6,0,-1,-1,-2,-158,159,171,60,82,139,0,0,0,111,107,107,113,1,4317
48.080398083,10,3,0,7,5,0,0,-2,-1,-158,159,171,60,82,139,0,0,0,111,107,107,113,1,4318
48.097769976,12,0,0,9,5,0,1,-3,0,-117,110,86,21,89,135,0,0,0,107,112,116,102,1,4319
48.109721899,10,0,0,11,3,0,1,-2,1,-12,-64,15,-67,121,134,0,0,0,107,112,116,102,1,4320
48.122015953,10,0,0,11,3,0,1,-2,1,-12,-64,15,-67,121,134,0,0,0,113,107,104,113,1,4321
48.130717993,9,0,0,10,3,0,0,1,2,-12,-64,15,-67,121,134,0,0,0,113,107,104,113,1,4322
48.150923014,11,1,0,12,1,0,0,1,2,72,99,31,-127,114,157,0,0,0,108,111,115,104,1,4323
48.16166091,10,1,0,12,0,0,0,2,1,86,-4,166,-72,47,217,0,0,0,106,112,111,108,1,4324
48.172757864,10,1,0,12,0,0,0,2,1,86,-4,166,-72,47,217,0,0,0,106,112,111,108,1,4325
48.183624983,9,1,0,11,0,0,0,2,0,86,-4,166,-72,47,217,0,0,0,108,109,111,109,1,4326
48.204416036,10,0,0,11,0,0,0,2,0,-102,59,121,45,-4,52,0,0,0,108,110,112,109,1,4327
48.214741945,7,0,0,10,1,0,1,2,0,-14,-138,46,88,6,130,0,0,0,108,110,112,109,1,4328
48.227655887,7,0,0,10,1,0,1,2,0,-14,-138,46,88,6,130,0,0,0,109,109,111,108,1,4329
48.236670971,7,0,0,9,1,0,1,2,-1,-14,-138,46,88,6,130,0,0,0,109,109,111,108,1,4330
48.259545088,5,2,0,10,1,0,1,2,-1,100,-95,179,16,14,138,0,0,0,114,105,102,117,1,4331
48.270731926,4,4,0,8,0,0,0,1,0,117,-43,220,-44,-41,62,0,0,0,114,105,102,117,1,4332
48.278707027,4,4,0,8,0,0,0,1,0,117,-43,220,-44,-41,62,0,0,0,113,105,113,106,1,4333
48.291488886,3,3,0,8,0,0,-2,-1,0,117,-43,220,-44,-41,62,0,0,0,113,105,113,106,1,4334
48.31063509,1,2,0,5,1,0,-3,-1,0,-27,-67,118,10,-109,214,0,0,0,105,113,114,105,1,4335
48.321783066,0,4,0,3,2,0,-1,0,0,119,-99,228,101,-108,155,0,0,0,105,113,114,105,1,4336
48.337213039,0,4,0,3,2,0,-1,0,0,119,-99,228,101,-108,155,0,0,0,108,110,100,120,1,4337
48.343689918,0,4,0,3,2,0,2,2,0,119,-99,228,101,-108,155,0,0,0,108,110,100,120,1,4338
48.367488861,2,3,0,1,4,0,2,2,0,-24,63,115,104,-59,156,0,0,0,107,113,118,101,1,4339
48.374691963,2,1,0,1,5,0,3,1,0,-77,30,229,34,-24,176,0,0,0,107,113,118,101,1,4340
48.385716915,2,1,0,1,5,0,3,1,0,-77,30,229,34,-24,176,0,0,0,113,108,103,114,1,4341
48.398249864,2,1,0,1,4,0,2,-1,0,-77,30,229,34,-24,176,0,0,0,113,108,103,114,1,4342
48.416681051,1,0,0,0,4,0,2,-1,0,-82,-43,211,-23,-4,183,0,0,0,114,105,114,105,1,4343
48.430821895,-1,0,0,1,3,0,0,0,1,-34,-173,207,-55,10,189,0,0,0,114,105,114,105,1,4344
48.438755989,-1,0,0,1,3,0,0,0,1,-34,-173,207,-55,10,189,0,0,0,106,113,119,100,1,4345
48.449732065,-1,0,0,1,2,0,-1,2,1,-34,-173,207,-55,10,189,0,0,0,106,113,119,100,1,4346
48.46963191,0,0,0,0,1,0,-1,2,1,73,118,52,-69,-14,209,0,0,0,106,113,103,116,1,4347
48.480683088,0,3,0,0,0,0,-1,4,0,164,-27,161,-39,-61,236,0,0,0,106,113,103,116,1,4348
48.491714001,0,3,0,0,0,0,-1,4,0,164,-27,161,-39,-61,236,0,0,0,115,103,108,112,1,4349
48.502712965,0,3,0,0,0,0,0,2,0,164,-27,161,-39,-61,236,0,0,0,115,103,108,112,1,4350
48.522978067,0,2,0,-1,1,0,0,-2,-1,-11,10,170,44,-49,245,0,0,0,105,113,113,107,1,4351
48.533807993,0,4,0,0,3,0,0,-5,0,111,-22,198,115,15,220,0,0,0,105,113,113,107,1,4352
48.544817924,0,4,0,0,3,0,0,-5,0,111,-22,198,115,15,220,0,0,0,109,108,108,112,1,4353
48.556037903,0,4,0,0,2,0,0,-3,0,111,-22,198,115,15,220,0,0,0,109,108,108,112,1,4354
48.580781937,0,4,0,0,5,0,0,-3,0,46,-49,117,109,37,185,0,0,0,110,110,116,102,1,4355
48.587842941,-3,5,0,0,5,0,0,1,0,42,-194,221,57,-15,199,0,0,0,108,110,117,103,1,4356
48.599317074,-3,5,0,0,5,0,0,1,0,42,-194,221,57,-15,199,0,0,0,108,110,105,114,1,4357
48.611541986,-3,4,0,0,5,0,1,3,0,42,-194,221,57,-15,199,0,0,0,113,105,105,114,1,4358
48.629854917,-5,6,0,-1,6,0,1,3,0,190,-206,85,39,-92,15,0,0,0,111,107,115,104,1,4359
48.643441915,-7,6,0,-3,6,0,0,2,0,8,-217,69,72,-159,70,0,0,0,111,107,115,104,1,4360
48.651930094,-7,6,0,-3,6,0,0,2,0,8,-217,69,72,-159,70,0,0,0,108,113,103,114,1,4361
48.663038015,-6,5,0,-2,5,0,0,0,0,8,-217,69,72,-159,70,0,0,0,108,113,103,114,1,4362
48.682762861,-7,5,0,-5,6,0,0,0,0,0,-27,18,104,-203,68,0,0,0,111,108,109,110,1,4363
48.693727016,-7,3,0,-7,7,0,0,0,0,-204,-50,48,76,-191,46,0,0,0,111,108,109,110,1,4364
48.704858065,-7,3,0,-7,7,0,0,0,0,-204,-50,48,76,-191,46,0,0,0,110,109,119,101,1,4365
48.715725899,-6,2,0,-6,6,0,0,0,0,-204,-50,48,76,-191,46,0,0,0,110,109,119,101,1,4366
48.743669987,-5,0,0,-7,6,0,0,1,0,-102,36,117,-25,-108,33,0,0,0,111,107,101,119,1,4367
48.746770859,-5,0,0,-7,3,0,0,2,0,-14,-18,235,-132,-9,5,0,0,0,111,107,101,119,1,4368
48.757974863,-5,0,0,-7,3,0,0,2,0,-14,-18,235,-132,-9,5,0,0,0,104,114,114,106,1,4369
48.768848896,-4,0,0,-6,3,0,1,0,0,-14,-18,235,-132,-9,5,0,0,0,104,114,114,106,1,4370
48.788708925,-2,-1,0,-5,1,0,1,0,0,-53,194,243,-152,37,210,0,0,0,111,108,102,118,1,4371
48.800136089,-3,0,0,-4,0,0,1,-3,0,57,-101,225,-75,45,183,0,0,0,108,111,108,112,1,4372
48.810765028,-3,0,0,-4,0,0,1,-3,0,57,-101,225,-75,45,183,0,0,0,108,111,108,112,1,4373
48.8269279,-3,0,0,-4,0,0,1,-4,0,57,-101,225,-75,45,183,0,0,0,111,109,113,105,1,4374
48.841786861,-3,-1,0,-3,0,0,1,-4,0,-59,0,138,9,47,207,0,0,0,110,110,110,108,1,4375
48.857338905,-3,0,0,-2,0,0,1,-3,0,124,-11,254,30,28,231,0,0,0,110,110,110,108,1,4376
48.864463091,-3,0,0,-2,0,0,1,-3,0,124,-11,254,30,28,231,0,0,0,112,106,110,110,1,4377
48.874755859,-3,0,0,-2,0,0,0,0,0,124,-11,254,30,28,231,0,0,0,112,106,110,110,1,4378
48.895817995,0,0,0,-2,0,0,0,0,0,-48,118,151,14,-13,211,0,0,0,113,106,111,108,1,4379
48.906714916,-1,1,0,-3,0,0,-2,1,0,116,-58,160,17,-19,179,0,0,0,113,106,111,108,1,4380
48.917752027,-1,1,0,-3,0,0,-2,1,0,116,-58,160,17,-19,179,0,0,0,111,107,112,108,1,4381
48.92870307,-1,1,0,-2,0,0,-3,2,0,116,-58,160,17,-19,179,0,0,0,111,107,112,108,1,4382
48.94866991,0,0,0,-2,1,0,-3,2,0,-49,102,209,38,27,171,0,0,0,102,117,111,109,1,4383
48.959945917,0,0,0,0,2,0,-2,2,-1,-51,-36,139,40,58,177,0,0,0,102,117,111,109,1,4384
48.970772982,0,0,0,0,2,0,-2,2,-1,-51,-36,139,40,58,177,0,0,0,107,112,111,108,1,4385
48.983547926,0,0,0,0,2,0,1,1,0,-51,-36,139,40,58,177,0,0,0,107,112,111,108,1,4386
49.002000093,-1,0,0,0,2,0,4,1,0,-26,-44,56,5,35,180,0,0,0,108,110,105,115,1,4387
49.012741089,-1,-1,0,0,1,0,3,0,0,-41,-55,123,-42,-10,202,0,0,0,108,110,105,115,1,4388
49.024211883,-1,-1,0,0,1,0,3,0,0,-41,-55,123,-42,-10,202,0,0,0,110,109,110,109,1,4389
49.034735918,-1,-1,0,0,1,0,0,-1,0,-41,-55,123,-42,-10,202,0,0,0,110,109,110,109,1,4390
49.055846929,-3,0,0,0,0,0,0,-1,0,41,-130,55,-57,-48,7,0,0,0,107,111,107,113,1,4391
49.065914869,-3,0,0,-1,0,0,0,-2,0,-13,-39,229,-28,-74,82,0,0,0,107,111,107,113,1,4392
49.077051878,-3,0,0,-1,0,0,0,-2,0,-13,-39,229,-28,-74,82,0,0,0,108,110,113,107,1,4393
49.087849855,-3,0,0,-1,0,0,0,-2,-1,-13,-39,229,-28,-74,82,0,0,0,108,110,113,107,1,4394
49.108994007,-4,0,0,-2,0,0,0,-2,-1,62,-90,254,12,-89,94,0,0,0,120,99,109,111,1,4395
49.119752884,-2,-1,0,-3,0,0,0,0,-1,-125,208,99,27,-77,31,0,0,0,120,99,109,111,1,4396
49.131486893,-2,-1,0,-3,0,0,0,0,-1,-125,208,99,27,-77,31,0,0,0,113,108,104,113,1,4397
49.141700029,-2,-1,0,-3,0,0,-3,0,0,-125,208,99,27,-77,31,0,0,0,113,108,104,113,1,4398
49.161753893,-1,0,0,-3,0,0,-3,0,0,84,46,11,8,-17,239,0,0,0,101,116,114,107,1,4399
49.17277503,0,0,0,-2,0,0,-5,0,0,-35,79,157,-20,74,8,0,0,0,101,116,114,107,1,4400
49.183847904,0,0,0,-2,0,0,-5,0,0,-35,79,157,-20,74,8,0,0,0,105,113,112,109,1,4401
49.194623947,0,0,0,-1,0,0,-1,-1,0,-35,79,157,-20,74,8,0,0,0,105,113,112,109,1,4402
49.214725971,0,3,0,0,0,0,4,0,0,216,-54,164,-15,124,33,0,0,0,106,114,111,107,1,4403
49.227724075,0,3,0,1,0,0,5,3,0,31,-19,210,40,79,233,0,0,0,106,114,111,107,1,4404
49.236903906,0,3,0,1,0,0,5,3,0,31,-19,210,40,79,233,0,0,0,114,104,112,108,1,4405
49.247808933,0,3,0,1,0,0,2,3,0,31,-19,210,40,79,233,0,0,0,114,104,112,108,1,4406
49.267862081,0,6,0,0,3,0,2,3,0,112,55,84,108,-11,150,0,0,0,107,113,109,109,1,4407
49.278773069,1,4,0,0,5,0,0,2,1,-50,42,146,123,-45,126,0,0,0,109,112,107,111,1,4408
49.289916992,1,4,0,0,5,0,0,2,1,-50,42,146,123,-45,126,0,0,0,109,112,107,111,1,4409
49.300957918,1,4,0,0,5,0,0,0,0,-50,42,146,123,-45,126,0,0,0,115,102,109,112,1,4410
49.321851969,4,6,0,0,7,0,0,0,0,101,103,104,74,6,142,0,0,0,112,106,109,111,1,4411
49.332733869,6,5,0,2,7,0,0,0,0,-46,187,2,15,80,140,0,0,0,112,106,109,111,1,4412
49.342707872,6,5,0,2,7,0,0,0,0,-46,187,2,15,80,140,0,0,0,110,110,113,106,1,4413
49.354074955,5,5,0,1,6,0,0,0,0,-46,187,2,15,80,140,0,0,0,110,110,113,106,1,4414
49.374682903,4,4,0,4,6,0,0,0,0,-89,-58,224,-3,117,141,0,0,0,107,112,120,99,1,4415
49.385876894,4,1,0,6,5,0,-2,1,0,-172,0,34,-14,105,187,0,0,0,107,112,120,99,1,4416
49.396724939,4,1,0,6,5,0,-2,1,0,-172,0,34,-14,105,187,0,0,0,112,106,97,123,1,4417
49.409156084,4,1,0,5,5,0,-1,3,0,-172,0,34,-14,105,187,0,0,0,112,106,97,123,1,4418
49.427953005,3,0,0,6,4,0,0,1,0,-34,-7,47,-66,46,0,0,0,0,115,104,116,103,1,4419
49.438845873,2,0,0,5,2,0,0,-2,0,-90,-36,233,-127,-22,39,0,0,0,115,104,116,103,1,4420
49.449761867,2,0,0,5,2,0,0,-2,0,-90,-36,233,-127,-22,39,0,0,0,111,110,109,108,1,4421
49.460726023,2,0,0,4,2,0,-2,-2,1,-90,-36,233,-127,-22,39,0,0,0,111,110,109,108,1,4422
49.481730938,2,-2,0,4,0,0,-4,1,2,-127,11,205,-127,-46,32,0,0,0,104,113,103,118,1,4423
49.492645979,0,-2,0,3,0,0,-2,3,1,2,-71,156,-81,-23,250,0,0,0,103,117,116,102,1,4424
49.503988981,0,-2,0,3,0,0,-2,3,1,2,-71,156,-81,-23,250,0,0,0,103,117,116,102,1,4425
49.514981031,0,-2,0,3,0,0,2,0,0,2,-71,156,-81,-23,250,0,0,0,113,103,106,115,1,4426
49.534885883,2,-2,0,3,-1,0,2,0,0,-6,102,251,-54,-3,204,0,0,0,109,108,109,112,1,4427
49.547576904,2,1,0,2,-2,0,4,-2,-1,168,0,137,-38,0,178,0,0,0,109,108,109,112,1,4428
49.559738874,2,1,0,2,-2,0,4,-2,-1,168,0,137,-38,0,178,0,0,0,114,106,115,103,1,4429
49.567589044,2,1,0,2,-2,0,2,0,-1,168,0,137,-38,0,178,0,0,0,114,106,115,103,1,4430
49.587660074,1,1,0,2,-2,0,2,0,-1,2,-31,174,14,11,182,0,0,0,112,106,103,117,1,4431
49.598731995,3,-1,0,3,0,0,-2,1,0,-107,87,89,77,27,185,0,0,0,112,106,103,117,1,4432
49.611661911,3,-1,0,3,0,0,-2,1,0,-107,87,89,77,27,185,0,0,0,106,113,109,111,1,4433
49.620694876,3,-1,0,3,0,0,-4,0,0,-107,87,89,77,27,185,0,0,0,106,113,109,111,1,4434
49.641998052,3,-3,0,3,1,0,0,-1,0,-131,22,177,61,26,159,0,0,0,111,110,111,106,1,4435
49.653625965,2,-3,0,3,0,0,4,-1,0,38,-41,238,-46,20,130,0,0,0,111,110,111,106,1,4436
49.664011001,2,-3,0,3,0,0,4,-1,0,38,-41,238,-46,20,130,0,0,0,112,104,105,118,1,4437
49.674880028,2,-2,0,3,0,0,4,0,0,38,-41,238,-46,20,130,0,0,0,112,104,105,118,1,4438
49.694913864,3,0,0,3,-3,0,4,0,0,79,49,99,-121,22,142,0,0,0,111,110,116,101,1,4439
49.706022024,3,0,0,4,-4,0,0,0,0,80,-19,26,-58,14,185,0,0,0,111,110,116,101,1,4440
49.716672897,3,0,0,4,-4,0,0,0,0,80,-19,26,-58,14,185,0,0,0,109,112,106,112,1,4441
49.728610039,3,0,0,3,-3,0,-4,0,0,80,-19,26,-58,14,185,0,0,0,109,112,106,112,1,4442
49.747853994,3,0,0,3,-2,0,-4,0,0,-61,35,41,69,1,212,0,0,0,108,112,114,104,1,4443
49.758868933,1,0,0,3,0,0,-2,1,1,14,-146,74,106,-2,231,0,0,0,108,112,114,104,1,4444
49.769938946,1,0,0,3,0,0,-2,1,1,14,-146,74,106,-2,231,0,0,0,106,113,113,107,1,4445
49.780833959,1,0,0,3,0,0,2,3,1,14,-146,74,106,-2,231,0,0,0,106,113,113,107,1,4446
49.805491924,0,0,0,3,0,0,2,3,1,56,-171,12,29,-18,21,0,0,0,113,104,105,116,1,4447
49.812011957,0,1,0,1,0,0,3,3,0,83,58,57,-33,-74,67,0,0,0,113,104,105,116,1,4448
49.823713064,0,1,0,1,0,0,3,3,0,83,58,57,-33,-74,67,0,0,0,117,100,110,110,1,4449
49.83363986,0,1,0,1,0,0,0,0,-2,83,58,57,-33,-74,67,0,0,0,117,100,110,110,1,4450
49.854902029,0,-1,0,0,0,0,-5,-2,-3,-169,-15,193,0,-118,63,0,0,0,110,110,113,104,1,4451
49.867069006,-3,-2,0,-1,0,0,-5,-3,-1,-51,-170,169,40,-82,14,0,0,0,110,110,113,104,1,4452
49.876704931,-3,-2,0,-1,0,0,-5,-3,-1,-51,-170,169,40,-82,14,0,0,0,105,113,105,116,1,4453
49.889950037,-3,-2,0,-1,0,0,-1,-1,0,-51,-170,169,40,-82,14,0,0,0,105,113,105,116,1,4454
49.907718897,-1,-2,0,-1,0,0,-1,-1,0,-24,60,203,-13,-16,215,0,0,0,114,109,112,103,1,4455
49.918839931,-3,-1,0,-1,-2,0,1,0,1,35,-121,212,-95,-17,181,0,0,0,114,109,112,103,1,4456
49.929832935,-3,-1,0,-1,-2,0,1,0,1,35,-121,212,-95,-17,181,0,0,0,110,112,103,113,1,4457
49.940855026,-3,-1,0,-1,-2,0,1,0,2,35,-121,212,-95,-17,181,0,0,0,108,110,105,115,1,4458
49.960860968,-1,-3,0,-2,-3,0,1,0,2,-158,139,31,-84,-58,182,0,0,0,104,114,116,104,1,4459
49.97170186,-3,-6,0,-3,-3,0,0,0,2,-125,-56,129,-22,-44,215,0,0,0,104,114,116,104,1,4460
49.987382889,-3,-6,0,-3,-3,0,0,0,2,-125,-56,129,-22,-44,215,0,0,0,110,110,114,104,1,4461
49.993856907,-2,-5,0,-2,-3,0,1,1,2,-125,-56,129,-22,-44,215,0,0,0,110,110,114,104,1,4462
50.017742872,0,-6,0,-2,-4,0,1,1,2,-81,204,14,-37,23,239,0,0,0,116,101,110,111,1,4463
50.024970055,-1,-6,0,-1,-5,0,1,4,0,-7,-45,16,-116,77,230,0,0,0,116,101,110,111,1,4464
50.035660028,-1,-6,0,-1,-5,0,1,4,0,-7,-45,16,-116,77,230,0,0,0,113,105,110,110,1,4465
50.046880007,-1,-5,0,-1,-5,0,-1,4,-2,-7,-45,16,-116,77,230,0,0,0,113,105,110,110,1,4466
50.06794095,1,-3,0,0,-6,0,-4,1,-2,51,73,102,-128,83,215,0,0,0,110,111,103,115,1,4467
50.080147982,0,0,0,1,-7,0,-3,-2,-1,98,-31,84,-33,55,210,0,0,0,110,111,103,115,1,4468
50.08979392,0,0,0,1,-7,0,-3,-2,-1,98,-31,84,-33,55,210,0,0,0,104,114,111,109,1,4469
50.101938963,0,0,0,1,-6,0,0,-3,0,98,-31,84,-33,55,210,0,0,0,104,114,111,109,1,4470
50.121003866,2,-1,0,1,-5,0,0,-3,0,-74,89,169,67,20,178,0,0,0,110,109,104,115,1,4471
50.131746054,0,-1,0,1,-2,0,2,-3,0,0,-137,227,78,4,120,0,0,0,110,109,105,113,1,4472
50.142678022,0,-1,0,1,-2,0,2,-3,0,0,-137,227,78,4,120,0,0,0,110,109,105,113,1,4473
50.154115915,0,-1,0,1,-2,0,1,-3,0,0,-137,227,78,4,120,0,0,0,110,112,112,104,1,4474
50.174799919,1,0,0,1,-1,0,0,-3,0,111,128,58,15,3,119,0,0,0,111,105,117,105,1,4475
50.18621397,0,0,0,1,-1,0,0,-1,0,11,-190,139,-22,-4,211,0,0,0,111,105,117,105,1,4476
50.196721077,0,0,0,1,-1,0,0,-1,0,11,-190,139,-22,-4,211,0,0,0,110,112,106,110,1,4477
50.208093881,0,0,0,1,-1,0,0,2,0,11,-190,139,-22,-4,211,0,0,0,110,112,106,110,1,4478
50.227658033,0,0,0,0,-1,0,0,2,0,43,57,163,18,-24,65,0,0,0,111,107,117,103,1,4479
50.238892078,0,0,0,0,0,0,0,5,0,-66,7,178,67,-40,91,0,0,0,111,107,117,103,1,4480
50.249881029,0,0,0,0,0,0,0,5,0,-66,7,178,67,-40,91,0,0,0,107,111,111,110,1,4481
50.264638901,0,0,0,0,0,0,0,4,0,-66,7,178,67,-40,91,0,0,0,107,111,111,110,1,4482
50.280827999,3,-2,0,0,0,0,0,1,-1,-137,207,192,39,-24,11,0,0,0,111,111,100,116,1,4483
50.295130968,4,-5,0,0,-1,0,0,-1,-1,-82,43,59,-50,42,161,0,0,0,111,111,100,116,1,4484
50.302944898,4,-5,0,0,-1,0,0,-1,-1,-82,43,59,-50,42,161,0,0,0,112,105,113,108,1,4485
50.314363003,4,-5,0,0,-1,0,0,-4,0,-82,43,59,-50,42,161,0,0,0,112,105,113,108,1,4486
50.333811998,6,-3,0,3,-3,0,0,-4,0,96,116,14,-116,120,118,0,0,0,107,113,106,112,1,4487
50.344734907,4,-4,0,5,-4,0,-1,-3,0,-69,-92,5,-92,136,146,0,0,0,110,109,107,112,1,4488
50.356021881,4,-4,0,5,-4,0,-1,-3,0,-69,-92,5,-92,136,146,0,0,0,110,109,115,104,1,4489
50.366707086,4,-4,0,5,-4,0,0,0,0,-69,-92,5,-92,136,146,0,0,0,111,109,114,104,1,4490
50.389575004,5,-2,0,6,-4,0,0,0,0,74,89,199,-6,70,204,0,0,0,110,109,108,110,1,4491
50.397980928,8,-4,0,6,-3,0,0,1,0,-35,54,38,47,-2,243,0,0,0,110,109,108,110,1,4492
50.408807039,8,-4,0,6,-3,0,0,1,0,-35,54,38,47,-2,243,0,0,0,111,111,106,110,1,4493
50.419803858,7,-4,0,5,-3,0,0,1,0,-35,54,38,47,-2,243,0,0,0,111,111,106,110,1,4494
50.439822912,10,-2,0,5,-2,0,0,1,0,157,174,199,35,-1,216,0,0,0,113,103,111,111,1,4495
50.45076704,11,0,0,7,-2,0,0,0,1,113,83,200,23,74,139,0,0,0,113,103,111,111,1,4496
50.46172595,11,0,0,7,-2,0,0,0,1,113,83,200,23,74,139,0,0,0,105,112,106,114,1,4497
50.472759962,10,0,0,6,-1,0,-1,-2,0,113,83,200,23,74,139,0,0,0,105,112,106,114,1,4498
50.49375987,8,2,0,9,0,0,-1,-2,0,168,-118,234,70,134,111,0,0,0,107,110,113,108,1,4499
50.504684925,6,1,0,10,2,0,-1,-2,-2,-42,-148,43,137,92,178,0,0,0,107,110,113,108,1,4500
50.515682936,6,1,0,10,2,0,-1,-2,-2,-42,-148,43,137,92,178,0,0,0,117,102,112,107,1,4501
50.525816917,5,1,0,9,2,0,0,0,-2,-42,-148,43,137,92,178,0,0,0,117,102,112,107,1,4502
50.546828985,4,1,0,8,3,0,0,2,0,-2,-43,114,136,-41,13,0,0,0,104,115,109,110,1,4503
50.557729959,3,1,0,6,4,0,-1,3,1,9,-50,58,51,-147,61,0,0,0,104,115,109,110,1,4504
50.57081604,3,1,0,6,4,0,-1,3,1,9,-50,58,51,-147,61,0,0,0,109,108,111,110,1,4505
50.580736875,3,1,0,5,3,0,0,1,1,9,-50,58,51,-147,61,0,0,0,109,108,111,110,1,4506
50.600678921,4,2,0,4,3,0,2,0,0,115,93,120,-28,-127,79,0,0,0,114,104,103,117,1,4507
50.611701012,3,3,0,3,2,0,3,-2,-1,107,-10,3,-12,-19,89,0,0,0,114,104,103,117,1,4508
50.622690916,3,3,0,3,2,0,3,-2,-1,107,-10,3,-12,-19,89,0,0,0,108,113,108,109,1,4509
50.639518022,3,3,0,3,2,0,0,-3,0,107,-10,3,-12,-19,89,0,0,0,108,113,108,109,1,4510
50.654828071,2,2,0,3,3,0,-2,-4,0,-7,-9,129,72,58,77,0,0,0,108,109,116,105,1,4511
50.665750027,4,0,0,4,4,0,-3,-2,0,-61,58,117,112,49,16,0,0,0,108,109,116,105,1,4512
50.676620006,4,0,0,4,4,0,-3,-2,0,-61,58,117,112,49,16,0,0,0,102,114,108,114,1,4513
50.688169002,4,0,0,3,4,0,-1,0,-2,-61,58,117,112,49,16,0,0,0,102,114,108,114,1,4514
50.707720995,3,2,0,4,5,0,-1,0,-2,53,-36,166,52,4,175,0,0,0,113,104,114,106,1,4515
50.718757868,2,0,0,3,3,0,1,1,-3,-53,-45,178,-33,-12,107,0,0,0,113,104,114,106,1,4516
50.729839086,2,0,0,3,3,0,1,1,-3,-53,-45,178,-33,-12,107,0,0,0,112,107,101,118,1,4517
50.740781069,2,0,0,3,3,0,2,0,-2,-53,-45,178,-33,-12,107,0,0,0,112,107,101,118,1,4518
50.761800051,1,6,0,2,1,0,0,-1,0,78,-9,7,-47,-7,114,0,0,0,104,117,110,107,1,4519
50.772773981,2,4,0,2,1,0,-1,-2,2,-55,46,181,2,-15,145,0,0,0,104,117,110,107,1,4520
50.783758879,2,4,0,2,1,0,-1,-2,2,-55,46,181,2,-15,145,0,0,0,112,107,115,104,1,4521
50.794655084,2,4,0,1,1,0,0,0,2,-55,46,181,2,-15,145,0,0,0,112,107,115,104,1,4522
50.814620972,3,3,0,1,2,0,0,0,2,-41,67,15,30,-18,136,0,0,0,106,116,108,107,1,4523
50.825736999,0,4,0,1,2,0,3,2,1,29,-167,31,3,10,135,0,0,0,109,112,109,108,1,4524
50.836704969,0,4,0,1,2,0,3,2,1,29,-167,31,3,10,135,0,0,0,109,112,110,107,1,4525
50.847779989,0,3,0,1,2,0,3,3,1,29,-167,31,3,10,135,0,0,0,108,109,112,109,1,4526
50.868061066,0,2,0,1,1,0,3,3,1,-73,-56,77,-35,21,210,0,0,0,107,110,113,108,1,4527
50.879544973,0,3,0,1,0,0,2,2,1,34,73,80,-38,-30,58,0,0,0,107,110,113,108,1,4528
50.889807939,0,3,0,1,0,0,2,2,1,34,73,80,-38,-30,58,0,0,0,110,108,109,110,1,4529
50.900804043,0,2,0,1,0,0,1,1,0,34,73,80,-38,-30,58,0,0,0,110,108,109,110,1,4530
50.92078495,0,2,0,0,0,0,0,0,-1,25,-48,23,-12,-80,100,0,0,0,116,104,105,113,1,4531
50.931936979,-1,2,0,0,0,0,-2,-3,-2,15,-115,28,9,-50,74,0,0,0,116,104,105,113,1,4532
50.94272995,-1,2,0,0,0,0,-2,-3,-2,15,-115,28,9,-50,74,0,0,0,108,109,110,111,1,4533
50.953777075,-1,2,0,0,0,0,-4,-5,-1,15,-115,28,9,-50,74,0,0,0,108,109,110,111,1,4534
50.974946022,-2,3,0,0,0,0,-4,-3,0,93,-66,36,24,-3,34,0,0,0,105,117,115,102,1,4535
50.985773086,-3,5,0,0,1,0,-2,0,0,221,-229,124,46,-41,22,0,0,0,105,117,115,102,1,4536
50.996737003,-3,5,0,0,1,0,-2,0,0,221,-229,124,46,-41,22,0,0,0,114,108,102,114,1,4537
51.011746883,-3,4,0,0,1,0,0,2,1,221,-229,124,46,-41,22,0,0,0,114,108,102,114,1,4538
51.028037071,-2,8,0,-2,2,0,0,2,1,141,41,138,93,-126,38,0,0,0,103,118,112,106,1,4539
51.038810015,-1,7,0,-3,4,0,2,1,2,26,78,216,153,-146,44,0,0,0,110,111,107,110,1,4540
51.049921989,-1,7,0,-3,4,0,2,1,2,26,78,216,153,-146,44,0,0,0,110,111,107,110,1,4541
51.060724974,-1,7,0,-3,3,0,3,0,2,26,78,216,153,-146,44,0,0,0,113,108,112,105,1,4542
51.080944061,0,4,0,-4,6,0,3,0,2,-117,15,122,159,-57,252,0,0,0,110,109,111,108,1,4543
51.09158206,0,0,0,-2,7,0,3,0,1,-143,37,100,60,57,169,0,0,0,110,109,111,108,1,4544
51.102854967,0,0,0,-2,7,0,3,0,1,-143,37,100,60,57,169,0,0,0,108,110,116,104,1,4545
51.113756895,0,0,0,-2,6,0,1,2,0,-143,37,100,60,57,169,0,0,0,108,110,116,104,1,4546
51.134459972,-2,-1,0,0,4,0,1,2,0,-111,-120,135,-88,87,114,0,0,0,110,107,111,110,1,4547
51.144730091,-1,-1,0,0,0,0,0,4,-1,12,19,242,-168,16,111,0,0,0,110,107,111,110,1,4548
51.156033039,-1,-1,0,0,0,0,0,4,-1,12,19,242,-168,16,111,0,0,0,107,112,109,110,1,4549
51.166790962,-1,-1,0,0,0,0,0,4,-1,12,19,242,-168,16,111,0,0,0,107,112,109,110,1,4550
51.188083887,-1,-1,0,-1,-2,0,0,1,0,-6,19,22,-127,-59,147,0,0,0,109,111,112,106,1,4551
51.198947906,0,0,0,-2,-2,0,0,-2,1,124,67,104,-23,-53,214,0,0,0,109,111,112,106,1,4552
51.210258961,0,0,0,-2,-2,0,0,-2,1,124,67,104,-23,-53,214,0,0,0,112,106,106,115,1,4553
51.220818043,0,0,0,-1,-2,0,0,-1,1,124,67,104,-23,-53,214,0,0,0,112,106,106,115,1,4554
51.240922928,0,-1,0,-1,-1,0,0,-1,1,-117,28,250,50,18,33,0,0,0,108,111,116,103,1,4555
51.251724958,0,0,0,0,-1,0,0,0,0,125,-56,42,54,68,74,0,0,0,110,108,117,103,1,4556
51.262745857,0,0,0,0,-1,0,0,0,0,125,-56,42,54,68,74,0,0,0,110,108,104,116,1,4557
51.276789904,0,0,0,0,-1,0,0,2,-1,125,-56,42,54,68,74,0,0,0,109,108,105,116,1,4558
51.293825865,-5,0,0,0,0,0,0,2,-1,-44,-208,96,17,37,53,0,0,0,109,108,119,103,1,4559
51.307765007,-2,0,0,-1,0,0,0,1,-1,21,120,4,-3,-51,243,0,0,0,109,108,119,103,1,4560
51.31585288,-2,0,0,-1,0,0,0,1,-1,21,120,4,-3,-51,243,0,0,0,109,112,107,111,1,4561
51.326832056,-2,0,0,0,0,0,0,1,0,21,120,4,-3,-51,243,0,0,0,109,112,107,111,1,4562
51.346978903,-2,-2,0,-3,0,0,0,1,0,-70,11,164,4,-104,183,0,0,0,110,108,107,113,1,4563
51.357851982,1,0,0,-3,0,0,0,1,0,72,186,114,4,-46,166,0,0,0,110,108,107,113,1,4564
51.36856389,1,0,0,-3,0,0,0,1,0,72,186,114,4,-46,166,0,0,0,109,109,118,102,1,4565
51.379839897,1,0,0,-3,0,0,0,1,0,72,186,114,4,-46,166,0,0,0,109,109,118,102,1,4566
51.400752067,2,-2,0,-1,0,0,0,1,0,-130,49,195,-14,79,175,0,0,0,109,111,100,118,1,4567
51.411828041,2,-1,0,1,-1,0,0,0,0,80,25,250,-26,149,172,0,0,0,109,111,100,118,1,4568
51.422700882,2,-1,0,1,-1,0,0,0,0,80,25,250,-26,149,172,0,0,0,114,104,110,110,1,4569
51.433857918,2,-1,0,1,-1,0,0,-2,0,80,25,250,-26,149,172,0,0,0,114,104,110,110,1,4570
51.453643083,0,1,0,3,-1,0,0,-2,0,117,-73,164,-16,107,171,0,0,0,105,115,103,115,1,4571
51.465022087,3,4,0,3,0,0,0,-4,0,103,93,14,23,13,189,0,0,0,110,110,113,105,1,4572
51.475864887,3,4,0,3,0,0,0,-4,0,103,93,14,23,13,189,0,0,0,110,110,113,105,1,4573
51.485751867,3,4,0,3,0,0,0,-4,0,103,93,14,23,13,189,0,0,0,110,109,113,105,1,4574
51.507843017,5,1,0,2,0,0,0,-1,0,-150,150,124,79,-29,179,0,0,0,108,109,110,110,1,4575
51.517675876,4,2,0,2,3,0,1,2,0,76,-47,29,84,19,117,0,0,0,108,109,110,110,1,4576
51.528771877,4,2,0,2,3,0,1,2,0,76,-47,29,84,19,117,0,0,0,104,115,105,114,1,4577
51.539711952,4,1,0,2,3,0,1,3,0,76,-47,29,84,19,117,0,0,0,104,115,105,114,1,4578
51.55984807,2,2,0,5,3,0,1,3,0,100,-170,141,16,84,100,0,0,0,111,107,114,106,1,4579
51.57097888,1,4,0,5,2,0,1,0,0,95,-77,231,-23,41,208,0,0,0,111,107,114,106,1,4580
51.581615925,1,4,0,5,2,0,1,0,0,95,-77,231,-23,41,208,0,0,0,112,108,106,111,1,4581
51.59275794,1,3,0,5,2,0,1,-1,0,95,-77,231,-23,41,208,0,0,0,112,108,106,111,1,4582
51.619153976,0,4,0,3,2,0,0,0,0,127,-101,73,43,-94,92,0,0,0,104,117,110,108,1,4583
51.62472105,-1,4,0,1,3,0,-3,0,1,-5,-74,140,132,-172,113,0,0,0,104,117,110,108,1,4584
51.63639307,-1,4,0,1,3,0,-3,0,1,-5,-74,140,132,-172,113,0,0,0,120,99,109,110,1,4585
51.647072077,-1,4,0,1,3,0,-2,0,1,-5,-74,140,132,-172,113,0,0,0,120,99,109,110,1,4586
51.666810036,0,1,0,0,5,0,-2,0,1,-133,106,178,123,-120,13,0,0,0,99,120,112,107,1,4587
51.677761078,2,2,0,0,5,0,0,0,0,24,137,245,18,-14,174,0,0,0,106,113,109,110,1,4588
51.688899994,2,2,0,0,5,0,0,0,0,24,137,245,18,-14,174,0,0,0,106,113,109,110,1,4589
51.69975996,1,1,0,0,4,0,2,0,0,24,137,245,18,-14,174,0,0,0,116,104,108,111,1,4590
51.719965935,1,1,0,1,3,0,2,0,0,-48,-47,24,-77,67,162,0,0,0,111,108,108,110,1,4591
51.739567041,5,0,0,2,1,0,3,0,0,-53,110,52,-84,96,211,0,0,0,111,108,108,110,1,4592
51.746012926,5,0,0,2,1,0,3,0,0,-53,110,52,-84,96,211,0,0,0,111,110,109,108,1,4593
51.75327301,4,0,0,2,1,0,2,0,0,-53,110,52,-84,96,211,0,0,0,111,110,109,108,1,4594
51.772836923,3,-1,0,3,0,0,2,0,0,-28,-47,120,-33,70,234,0,0,0,106,112,106,114,1,4595
51.784203052,4,-2,0,4,0,0,0,-1,0,-65,53,196,-13,21,176,0,0,0,106,112,106,114,1,4596
51.794718027,4,-2,0,4,0,0,0,-1,0,-65,53,196,-13,21,176,0,0,0,109,109,108,112,1,4597
51.805825949,3,-2,0,3,0,0,-1,-2,0,-65,53,196,-13,21,176,0,0,0,109,109,108,112,1,4598
51.827486038,4,0,0,3,0,0,0,-1,-1,161,117,50,-33,4,109,0,0,0,107,110,111,109,1,4599
51.836804867,4,1,0,4,-1,0,0,0,-2,128,-31,34,-19,30,144,0,0,0,107,110,111,109,1,4600
51.847688913,4,1,0,4,-1,0,0,0,-2,128,-31,34,-19,30,144,0,0,0,115,103,111,109,1,4601
51.859251022,3,1,0,3,-1,0,-1,1,-1,128,-31,34,-19,30,144,0,0,0,115,103,111,109,1,4602
51.88005805,5,1,0,4,0,0,-1,1,-1,16,108,213,60,64,5,0,0,0,105,113,109,110,1,4603
51.890702009,4,3,0,5,1,0,-2,1,0,139,-46,197,133,64,66,0,0,0,109,110,113,106,1,4604
51.901912928,4,3,0,5,1,0,-2,1,0,139,-46,197,133,64,66,0,0,0,109,110,113,106,1,4605
51.911819935,4,3,0,4,1,0,0,0,0,139,-46,197,133,64,66,0,0,0,110,111,109,108,1,4606
51.932875872,4,1,0,5,2,0,0,0,0,-156,52,252,117,34,14,0,0,0,110,111,110,108,1,4607
51.943753004,3,1,0,5,3,0,1,0,0,4,-80,2,31,6,196,0,0,0,110,111,110,108,1,4608
51.954737902,3,1,0,5,3,0,1,0,0,4,-80,2,31,6,196,0,0,0,107,111,109,111,1,4609
51.96569705,3,1,0,4,3,0,2,1,0,4,-80,2,31,6,196,0,0,0,107,111,109,111,1,4610
51.985630989,0,2,0,4,2,0,2,1,0,95,-198,202,-43,-14,196,0,0,0,108,112,110,108,1,4611
51.996896028,-1,2,0,3,1,0,1,1,0,11,-117,42,-43,-60,246,0,0,0,108,112,110,108,1,4612
52.007730961,-1,2,0,3,1,0,1,1,0,11,-117,42,-43,-60,246,0,0,0,110,110,111,108,1,4613
52.018599033,-1,2,0,3,1,0,1,0,0,11,-117,42,-43,-60,246,0,0,0,110,110,111,108,1,4614
52.041794062,0,0,0,1,1,0,1,0,0,-137,82,34,15,-125,15,0,0,0,110,108,105,115,1,4615
52.049875021,0,0,0,0,1,0,1,0,0,15,99,111,39,-126,14,0,0,0,110,108,105,115,1,4616
52.060973883,0,0,0,0,1,0,1,0,0,15,99,111,39,-126,14,0,0,0,107,111,108,112,1,4617
52.072782993,0,0,0,0,1,0,0,-1,0,15,99,111,39,-126,14,0,0,0,107,111,108,112,1,4618
52.091800928,1,-2,0,0,1,0,-1,-2,-1,-244,14,190,-26,-17,31,0,0,0,106,112,115,104,1,4619
52.105509043,0,0,0,0,0,0,-2,-1,0,112,-36,219,-109,99,51,0,0,0,106,112,115,104,1,4620
52.114198923,0,0,0,0,0,0,-2,-1,0,112,-36,219,-109,99,51,0,0,0,121,99,103,115,1,4621
52.127528906,0,0,0,0,0,0,-3,0,0,112,-36,219,-109,99,51,0,0,0,121,99,103,115,1,4622
52.145699024,0,-4,0,1,-1,0,-3,0,0,-133,27,127,-118,93,18,0,0,0,100,116,116,105,1,4623
52.156666994,-1,-1,0,1,-2,0,-2,1,0,139,-172,202,-55,-6,195,0,0,0,100,116,116,105,1,4624
52.166651964,-1,-1,0,1,-2,0,-2,1,0,139,-172,202,-55,-6,195,0,0,0,108,111,110,109,1,4625
52.18007803,-1,-1,0,1,-2,0,0,0,0,139,-172,202,-55,-6,195,0,0,0,108,111,110,109,1,4626
52.198744058,-1,0,0,0,-1,0,1,1,-1,71,-6,142,16,-79,142,0,0,0,117,103,102,116,1,4627
52.209850073,-1,0,0,-2,0,0,1,1,0,-55,-11,32,57,-83,151,0,0,0,117,103,102,116,1,4628
52.223705053,-1,0,0,-2,0,0,1,1,0,-55,-11,32,57,-83,151,0,0,0,105,116,114,103,1,4629
52.231829882,-1,0,0,-2,0,0,0,0,0,-55,-11,32,57,-83,151,0,0,0,105,116,114,103,1,4630
52.251689911,-2,0,0,-3,0,0,0,0,0,-21,-67,5,58,-55,197,0,0,0,117,100,101,120,1,4631
52.262773991,-2,0,0,-3,0,0,-3,-1,1,-14,-13,208,16,-28,242,0,0,0,117,100,101,120,1,4632
52.274338961,-2,0,0,-3,0,0,-3,-1,1,-14,-13,208,16,-28,242,0,0,0,101,117,115,104,1,4633
52.284708977,-2,0,0,-3,0,0,-2,-3,0,-14,-13,208,16,-28,242,0,0,0,101,117,115,104,1,4634
52.305702925,0,0,0,-3,0,0,0,-2,-1,113,165,251,-31,-15,7,0,0,0,112,107,112,107,1,4635
52.318832874,0,0,0,-3,0,0,0,0,-1,-8,45,241,-22,7,251,0,0,0,112,107,112,107,1,4636
52.328176975,0,0,0,-3,0,0,0,0,-1,-8,45,241,-22,7,251,0,0,0,114,104,107,113,1,4637
52.338888883,0,0,0,-2,0,0,-1,0,0,-8,45,241,-22,7,251,0,0,0,114,104,107,113,1,4638
52.35878706,1,0,0,-1,0,0,-1,0,0,-25,109,33,36,63,232,0,0,0,108,111,116,103,1,4639
52.369696855,2,0,0,0,1,0,-2,1,0,5,65,37,56,114,241,0,0,0,108,111,116,103,1,4640
52.380671978,2,0,0,0,1,0,-2,1,0,5,65,37,56,114,241,0,0,0,108,111,99,120,1,4641
52.391813993,2,0,0,0,1,0,-2,0,0,5,65,37,56,114,241,0,0,0,104,117,98,119,1,4642
52.411669969,3,0,0,1,1,0,-2,0,0,5,38,203,10,108,15,0,0,0,107,114,113,104,1,4643
52.42278409,2,-2,0,2,0,0,1,0,0,-19,-5,29,-31,64,19,0,0,0,107,114,113,104,1,4644
52.433907032,2,-2,0,2,0,0,1,0,0,-19,-5,29,-31,64,19,0,0,0,113,106,112,107,1,4645
52.445585966,2,-1,0,2,0,0,3,-1,0,-19,-5,29,-31,64,19,0,0,0,113,106,112,107,1,4646
52.464782953,4,-1,0,2,0,0,3,-1,0,23,113,167,-19,30,213,0,0,0,112,106,114,106,1,4647
52.475736856,3,-4,0,3,0,0,2,1,0,-189,-79,178,3,23,119,0,0,0,112,106,114,106,1,4648
52.486861944,3,-4,0,3,0,0,2,1,0,-189,-79,178,3,23,119,0,0,0,106,113,115,104,1,4649
52.497797012,2,-4,0,3,0,0,0,4,0,-189,-79,178,3,23,119,0,0,0,106,113,115,104,1,4650
52.518812895,0,-4,0,3,0,0,-2,4,-1,-97,-163,26,-22,21,91,0,0,0,112,108,100,118,1,4651
52.529778957,0,-8,0,3,-2,0,-1,0,-1,-198,-102,140,-97,-22,163,0,0,0,112,108,100,118,1,4652
52.540843963,0,-8,0,3,-2,0,-1,0,-1,-198,-102,140,-97,-22,163,0,0,0,107,111,112,109,1,4653
52.554640055,0,-7,0,2,-2,0,0,-4,0,-198,-102,140,-97,-22,163,0,0,0,107,111,112,109,1,4654
52.571989059,-4,-7,0,1,-4,0,0,-4,0,12,-163,135,-159,-110,241,0,0,0,109,110,103,115,1,4655
52.582823038,-6,-6,0,0,-6,0,0,-5,0,3,-97,139,-147,-169,224,0,0,0,113,105,114,106,1,4656
52.593842983,-6,-6,0,0,-6,0,0,-5,0,3,-97,139,-147,-169,224,0,0,0,113,105,114,106,1,4657
52.604691982,-6,-6,0,0,-5,0,0,-2,0,3,-97,139,-147,-169,224,0,0,0,108,112,116,102,1,4658
52.625681877,-5,-3,0,-3,-6,0,0,1,0,180,44,230,-57,-149,146,0,0,0,108,110,111,108,1,4659
52.636695862,-4,-4,0,-5,-4,0,0,3,0,-88,32,4,49,-77,120,0,0,0,108,110,111,108,1,4660
52.647782087,-4,-4,0,-5,-4,0,0,3,0,-88,32,4,49,-77,120,0,0,0,111,109,106,111,1,4661
52.659472942,-3,-3,0,-5,-4,0,0,4,0,-88,32,4,49,-77,120,0,0,0,111,109,106,111,1,4662
52.678792953,-3,-6,0,-5,-2,0,0,4,0,-165,8,250,88,0,186,0,0,0,104,114,112,107,1,4663
52.690006971,-1,-10,0,-4,-2,0,1,2,0,-133,55,36,10,47,4,0,0,0,104,114,112,107,1,4664
52.700721979,-1,-10,0,-4,-2,0,1,2,0,-133,55,36,10,47,4,0,0,0,106,111,114,106,1,4665
52.711776018,-1,-9,0,-3,-1,0,2,1,0,-133,55,36,10,47,4,0,0,0,106,111,114,106,1,4666
52.732780933,-2,-7,0,-2,-3,0,1,1,-1,73,-25,219,-120,46,244,0,0,0,106,112,110,110,1,4667
52.743541956,0,-5,0,-2,-6,0,0,1,-1,31,43,122,-154,20,157,0,0,0,106,112,110,110,1,4668
52.754947901,0,-5,0,-2,-6,0,0,1,-1,31,43,122,-154,20,157,0,0,0,119,101,109,109,1,4669
52.765765905,0,-5,0,-2,-5,0,-2,1,-1,31,43,122,-154,20,157,0,0,0,119,101,109,109,1,4670
52.785718918,-1,-4,0,-2,-7,0,-2,1,-1,30,-45,195,-43,3,105,0,0,0,104,114,114,105,1,4671
52.796698093,0,-5,0,-1,-4,0,-1,0,0,-54,81,195,76,2,138,0,0,0,104,115,107,111,1,4672
52.809861898,0,-5,0,-1,-4,0,-1,0,0,-54,81,195,76,2,138,0,0,0,104,115,107,111,1,4673
52.81884098,0,-5,0,-1,-4,0,0,1,0,-54,81,195,76,2,138,0,0,0,113,107,104,114,1,4674
52.840687036,-2,-4,0,-1,-3,0,0,1,0,32,-158,187,73,4,194,0,0,0,110,110,106,112,1,4675
52.849628925,-1,-3,0,-1,-3,0,2,0,0,55,87,27,-7,-5,212,0,0,0,110,110,106,112,1,4676
52.861020088,-1,-3,0,-1,-3,0,2,0,0,55,87,27,-7,-5,212,0,0,0,110,110,110,107,1,4677
52.87171793,-1,-3,0,-1,-2,0,2,-1,0,55,87,27,-7,-5,212,0,0,0,110,110,110,107,1,4678
52.891978025,-2,-2,0,-1,-3,0,2,-1,0,48,-93,126,-31,-26,216,0,0,0,109,111,108,111,1,4679
52.907332897,0,-1,0,-2,-2,0,0,-3,1,66,76,235,28,-34,0,0,0,0,109,111,108,111,1,4680
52.914176941,0,-1,0,-2,-2,0,0,-3,1,66,76,235,28,-34,0,0,0,0,109,110,110,109,1,4681
52.924709082,0,-1,0,-2,-2,0,0,-1,1,66,76,235,28,-34,0,0,0,0,109,110,110,109,1,4682
52.94583106,-1,0,0,-2,-1,0,0,0,0,48,-24,252,83,-14,59,0,0,0,114,104,112,108,1,4683
52.956824064,-1,0,0,-1,0,0,0,2,0,-17,-21,29,75,11,65,0,0,0,114,104,112,108,1,4684
52.967696905,-1,0,0,-1,0,0,0,2,0,-17,-21,29,75,11,65,0,0,0,111,109,107,112,1,4685
52.979700088,-1,0,0,-1,0,0,-1,2,0,-17,-21,29,75,11,65,0,0,0,111,109,107,112,1,4686
52.998653889,-1,-3,0,-1,0,0,-1,2,0,-160,0,250,27,13,13,0,0,0,109,109,110,110,1,4687
53.009685039,0,0,0,-1,0,0,-3,0,0,152,126,209,-25,-3,233,0,0,0,109,108,110,110,1,4688
53.020777941,0,0,0,-1,0,0,-3,0,0,152,126,209,-25,-3,233,0,0,0,109,108,110,110,1,4689
53.031845093,0,0,0,-1,0,0,-2,-1,0,152,126,209,-25,-3,233,0,0,0,111,108,109,110,1,4690
53.05169487,1,0,0,-1,-1,0,0,-1,0,-10,54,175,-48,5,238,0,0,0,103,116,109,110,1,4691
53.06299901,0,0,0,0,-1,0,0,0,-1,-2,-47,179,-13,52,232,0,0,0,103,116,109,110,1,4692
53.073755026,0,0,0,0,-1,0,0,0,-1,-2,-47,179,-13,52,232,0,0,0,114,102,114,107,1,4693
53.087563991,0,0,0,0,-1,0,0,0,-1,-2,-47,179,-13,52,232,0,0,0,114,102,114,107,1,4694
53.105711937,0,0,0,1,0,0,0,0,-1,91,24,223,44,74,195,0,0,0,113,108,106,111,1,4695
53.116586923,2,-1,0,1,0,0,0,1,0,-89,63,147,54,33,169,0,0,0,113,108,106,111,1,4696
53.127713919,2,-1,0,1,0,0,0,1,0,-89,63,147,54,33,169,0,0,0,107,114,111,106,1,4697
53.138632059,2,-1,0,1,0,0,-1,0,0,-89,63,147,54,33,169,0,0,0,107,114,111,106,1,4698
53.159023046,2,0,0,1,1,0,-2,0,1,31,91,116,16,-8,184,0,0,0,112,106,109,111,1,4699
53.171694994,1,-1,0,1,0,0,0,-1,1,-27,-100,108,-17,16,231,0,0,0,112,106,109,111,1,4700
53.18078208,1,-1,0,1,0,0,0,-1,1,-27,-100,108,-17,16,231,0,0,0,108,112,106,113,1,4701
53.1916399,1,0,0,1,0,0,0,-1,0,-27,-100,108,-17,16,231,0,0,0,108,112,106,113,1,4702
53.211997986,1,0,0,2,0,0,0,-1,0,64,-5,124,-21,53,43,0,0,0,112,106,117,104,1,4703
53.222707033,1,0,0,2,0,0,0,-1,-1,-26,10,250,0,21,110,0,0,0,107,112,116,103,1,4704
53.235466957,1,0,0,2,0,0,0,-1,-1,-26,10,250,0,21,110,0,0,0,107,112,104,114,1,4705
53.244859934,1,0,0,2,0,0,0,0,-1,-26,10,250,0,21,110,0,0,0,109,110,105,115,1,4706
53.264812946,2,1,0,1,0,0,0,0,-1,151,56,71,26,-37,122,0,0,0,109,110,112,107,1,4707
53.275652885,3,3,0,1,1,0,0,0,0,120,62,170,49,-27,66,0,0,0,109,110,112,107,1,4708
53.286735058,3,3,0,1,1,0,0,0,0,120,62,170,49,-27,66,0,0,0,112,106,113,107,1,4709
53.299885034,2,3,0,1,1,0,0,0,0,120,62,170,49,-27,66,0,0,0,112,106,113,107,1,4710
53.317766905,3,2,0,1,2,0,0,0,0,-93,60,61,77,43,253,0,0,0,105,114,108,110,1,4711
53.331912994,0,-1,0,2,3,0,0,1,0,-226,-176,117,75,81,226,0,0,0,105,114,108,110,1,4712
53.340419054,0,-1,0,2,3,0,0,1,0,-226,-176,117,75,81,226,0,0,0,109,109,110,110,1,4713
53.351365089,0,-1,0,2,3,0,0,1,0,-226,-176,117,75,81,226,0,0,0,109,109,110,110,1,4714
53.371734857,0,0,0,3,2,0,1,0,0,115,-77,179,-8,28,224,0,0,0,113,105,111,109,1,4715
53.382806063,-2,-3,0,1,0,0,0,-1,0,-82,-37,-29,-113,-74,196,0,0,0,113,105,111,109,1,4716
53.393666029,-2,-3,0,1,0,0,0,-1,0,-82,-37,-29,-113,-74,196,0,0,0,105,116,113,104,1,4717
53.405016899,-1,-3,0,1,0,0,0,0,0,-82,-37,-29,-113,-74,196,0,0,0,105,116,113,104,1,4718
53.424838066,0,-3,0,-1,-1,0,0,0,0,-5,91,178,-109,-124,127,0,0,0,114,105,107,112,1,4719
53.435775995,2,-3,0,-3,-2,0,0,1,1,-48,146,172,-14,-58,68,0,0,0,108,112,106,112,1,4720
53.446894884,2,-3,0,-3,-2,0,0,1,1,-48,146,172,-14,-58,68,0,0,0,108,112,106,112,1,4721
53.457849979,2,-3,0,-3,-2,0,0,2,1,-48,146,172,-14,-58,68,0,0,0,111,105,113,109,1,4722
53.487299919,3,-3,0,0,0,0,0,0,0,-7,74,186,25,69,84,0,0,0,106,114,110,108,1,4723
53.489499092,3,-2,0,2,-1,0,0,-1,-1,23,-2,225,-16,145,163,0,0,0,106,114,110,108,1,4724
53.500828028,3,-2,0,2,-1,0,0,-1,-1,23,-2,225,-16,145,163,0,0,0,114,102,113,109,1,4725
53.51176095,3,-2,0,2,-1,0,-1,0,-1,23,-2,225,-16,145,163,0,0,0,114,102,113,109,1,4726
53.531738043,2,0,0,3,-1,0,-1,0,-1,214,-27,85,-34,111,228,0,0,0,107,114,110,107,1,4727
53.54322195,3,-1,0,4,0,0,0,2,0,-84,75,47,28,19,254,0,0,0,107,114,110,107,1,4728
53.553786993,3,-1,0,4,0,0,0,2,0,-84,75,47,28,19,254,0,0,0,105,115,111,107,1,4729
53.565002918,3,-1,0,3,0,0,0,3,0,-84,75,47,28,19,254,0,0,0,105,115,111,107,1,4730
53.585803032,5,-2,0,3,0,0,2,2,1,-49,81,129,96,-25,20,0,0,0,107,110,105,115,1,4731
53.597162008,4,-6,0,3,1,0,3,1,1,-126,-19,69,60,13,21,0,0,0,107,110,105,115,1,4732
53.607951879,4,-6,0,3,1,0,3,1,1,-126,-19,69,60,13,21,0,0,0,115,107,114,102,1,4733
53.618716955,4,-5,0,2,1,0,2,0,1,-126,-19,69,60,13,21,0,0,0,115,107,114,102,1,4734
53.638982057,4,-4,0,4,0,0,2,0,1,84,24,253,-56,68,210,0,0,0,107,111,103,118,1,4735
53.649666071,4,-7,0,5,-2,0,0,0,0,-151,11,164,-115,58,122,0,0,0,107,111,103,118,1,4736
53.660788059,4,-7,0,5,-2,0,0,0,0,-151,11,164,-115,58,122,0,0,0,107,110,109,111,1,4737
53.671642065,4,-6,0,4,-2,0,0,-2,0,-151,11,164,-115,58,122,0,0,0,107,110,109,111,1,4738
53.691679001,5,-9,0,5,-4,0,0,-2,0,-87,62,125,-69,7,117,0,0,0,117,100,109,111,1,4739
53.702960968,7,-11,0,4,-5,0,0,-3,-1,-215,133,147,-34,0,177,0,0,0,117,100,109,111,1,4740
53.713744879,7,-11,0,4,-5,0,0,-3,-1,-215,133,147,-34,0,177,0,0,0,110,108,109,112,1,4741
53.724735975,6,-10,0,4,-4,0,-1,-3,-2,-215,133,147,-34,0,177,0,0,0,110,108,109,112,1,4742
53.744818926,10,-10,0,5,-6,0,-1,-3,-2,1,203,116,-90,57,189,0,0,0,106,113,114,105,1,4743
53.75752902,10,-11,0,7,-8,0,-3,-1,-2,-55,5,184,-154,131,140,0,0,0,106,113,114,105,1,4744
53.766642094,10,-11,0,7,-8,0,-3,-1,-2,-55,5,184,-154,131,140,0,0,0,110,110,105,113,1,4745
53.777731895,9,-10,0,6,-8,0,-2,0,0,-55,5,184,-154,131,140,0,0,0,110,110,105,113,1,4746
53.797702074,10,-8,0,9,-10,0,-2,0,0,117,48,244,-115,154,116,0,0,0,109,112,113,104,1,4747
53.808966875,9,-8,0,11,-9,0,1,1,1,-20,-12,86,-2,100,165,0,0,0,109,112,113,104,1,4748
53.823598862,9,-8,0,11,-9,0,1,1,1,-20,-12,86,-2,100,165,0,0,0,109,110,115,105,1,4749
53.83078599,8,-7,0,10,-8,0,2,1,2,-20,-12,86,-2,100,165,0,0,0,109,110,115,105,1,4750
53.8520329,7,-7,0,10,-7,0,1,2,1,-52,-15,58,68,15,253,0,0,0,112,105,109,111,1,4751
53.862879991,5,-8,0,8,-6,0,0,3,0,-147,-133,58,37,-31,65,0,0,0,112,105,109,111,1,4752
53.874109983,5,-8,0,8,-6,0,0,3,0,-147,-133,58,37,-31,65,0,0,0,108,112,107,110,1,4753
53.884620905,5,-8,0,8,-5,0,-1,1,0,-147,-133,58,37,-31,65,0,0,0,108,112,107,110,1,4754
53.904747009,3,-9,0,7,-6,0,-1,1,0,-132,-143,7,-58,-48,83,0,0,0,111,106,109,112,1,4755
53.915765047,2,-9,0,6,-7,0,-1,0,0,-19,-31,255,-135,-81,56,0,0,0,108,110,109,111,1,4756
53.927015066,2,-9,0,6,-7,0,-1,0,0,-19,-31,255,-135,-81,56,0,0,0,108,110,110,110,1,4757
53.937649011,2,-8,0,5,-7,0,0,-1,0,-19,-31,255,-135,-81,56,0,0,0,110,107,111,111,1,4758
53.958117008,2,-7,0,4,-8,0,0,-1,0,91,-45,79,-131,-117,18,0,0,0,109,107,106,115,1,4759
53.96906209,0,-8,0,2,-8,0,0,-1,-1,-70,-86,160,-49,-102,4,0,0,0,109,107,106,115,1,4760
53.979747057,0,-8,0,2,-8,0,0,-1,-1,-70,-86,160,-49,-102,4,0,0,0,112,106,111,109,1,4761
53.990993976,0,-8,0,2,-8,0,-1,-1,-2,-70,-86,160,-49,-102,4,0,0,0,112,106,111,109,1,4762
54.010807037,2,-9,0,1,-7,0,-1,-1,-2,-71,131,195,30,-45,5,0,0,0,108,112,108,109,1,4763
54.021797895,0,-8,0,1,-6,0,-1,-2,-1,24,-51,136,25,0,236,0,0,0,108,112,108,109,1,4764
54.032579899,0,-8,0,1,-6,0,-1,-2,-1,24,-51,136,25,0,236,0,0,0,110,111,103,114,1,4765
54.043897867,0,-7,0,1,-6,0,-1,-1,1,24,-51,136,25,0,236,0,0,0,110,111,103,114,1,4766
54.067421913,0,-5,0,1,-6,0,0,-1,3,119,-52,238,-34,17,181,0,0,0,105,113,111,109,1,4767
54.075927019,2,-3,0,1,-6,0,1,0,2,101,155,198,-29,14,152,0,0,0,105,113,111,109,1,4768
54.086739063,2,-3,0,1,-6,0,1,0,2,101,155,198,-29,14,152,0,0,0,114,105,116,102,1,4769
54.097569942,2,-2,0,1,-6,0,1,1,0,101,155,198,-29,14,152,0,0,0,114,105,116,102,1,4770
54.117727041,3,-2,0,2,-5,0,1,1,0,22,112,233,62,11,181,0,0,0,113,104,113,108,1,4771
54.128696918,3,-5,0,2,-2,0,0,3,-1,-159,12,172,121,48,225,0,0,0,101,115,110,112,1,4772
54.139838934,3,-5,0,2,-2,0,0,3,-1,-159,12,172,121,48,225,0,0,0,101,115,110,112,1,4773
54.150775909,3,-5,0,2,-2,0,-2,3,-2,-159,12,172,121,48,225,0,0,0,107,112,102,117,1,4774
54.170681953,3,-3,0,4,-1,0,-2,3,-2,131,-23,79,57,99,234,0,0,0,107,112,106,114,1,4775
54.181709051,2,-4,0,5,-2,0,0,1,-2,-131,-65,39,-51,79,229,0,0,0,107,112,106,114,1,4776
54.192862987,2,-4,0,5,-2,0,0,1,-2,-131,-65,39,-51,79,229,0,0,0,117,101,114,105,1,4777
54.204129934,2,-4,0,4,-2,0,1,-1,-1,-131,-65,39,-51,79,229,0,0,0,117,101,114,105,1,4778
54.224287987,2,-4,0,4,-3,0,1,-1,-1,13,49,88,-75,-9,2,0,0,0,111,112,105,110,1,4779
54.234724998,3,-3,0,3,-3,0,0,-3,0,27,54,90,-23,-62,61,0,0,0,111,112,105,110,1,4780
54.247531891,3,-3,0,3,-3,0,0,-3,0,27,54,90,-23,-62,61,0,0,0,105,113,111,109,1,4781
54.256953001,2,-3,0,3,-3,0,-1,-1,1,27,54,90,-23,-62,61,0,0,0,105,113,111,109,1,4782
54.280622005,2,0,0,2,-2,0,-1,1,1,7,-58,212,19,-19,94,0,0,0,115,103,113,107,1,4783
54.288934946,3,0,0,3,-1,0,1,2,0,-2,36,114,57,42,65,0,0,0,115,103,113,107,1,4784
54.299705982,3,0,0,3,-1,0,1,2,0,-2,36,114,57,42,65,0,0,0,111,110,103,115,1,4785
54.311757088,2,0,0,2,-1,0,1,1,-1,-2,36,114,57,42,65,0,0,0,111,110,103,115,1,4786
54.33080697,3,2,0,3,0,0,1,1,-1,97,38,163,114,38,238,0,0,0,113,104,113,108,1,4787
54.342479944,2,0,0,3,2,0,-2,0,0,-187,-53,227,127,-1,152,0,0,0,113,104,113,108,1,4788
54.352784872,2,0,0,3,2,0,-2,0,0,-187,-53,227,127,-1,152,0,0,0,104,116,106,113,1,4789
54.363919973,2,0,0,2,2,0,-4,-2,0,-187,-53,227,127,-1,152,0,0,0,104,116,106,113,1,4790
54.383760929,3,0,0,2,3,0,-4,-2,0,74,46,220,42,-10,130,0,0,0,112,106,112,108,1,4791
54.394757986,1,2,0,2,2,0,-1,-1,0,65,-57,140,-59,4,181,0,0,0,112,106,112,108,1,4792
54.406019926,1,2,0,2,2,0,-1,-1,0,65,-57,140,-59,4,181,0,0,0,108,109,116,105,1,4793
54.41980505,1,2,0,2,2,0,1,0,-1,65,-57,140,-59,4,181,0,0,0,108,109,116,105,1,4794
54.436696052,2,4,0,2,1,0,1,0,-1,101,35,166,-53,4,225,0,0,0,110,111,108,109,1,4795
54.451721907,0,4,0,2,2,0,1,2,-1,31,-102,23,50,-11,205,0,0,0,110,111,108,109,1,4796
54.458787918,0,4,0,2,2,0,1,2,-1,31,-102,23,50,-11,205,0,0,0,112,106,108,112,1,4797
54.469677925,0,4,0,1,1,0,0,2,0,31,-102,23,50,-11,205,0,0,0,112,106,108,112,1,4798
54.490629911,-1,4,0,1,4,0,-1,0,0,80,-136,0,123,-30,173,0,0,0,104,113,111,110,1,4799
54.501957893,-2,4,0,0,5,0,0,-3,0,25,-107,1,95,-64,204,0,0,0,104,113,111,110,1,4800
54.51287508,-2,4,0,0,5,0,0,-3,0,25,-107,1,95,-64,204,0,0,0,109,110,109,109,1,4801
54.527832031,-2,4,0,0,5,0,2,-2,0,25,-107,1,95,-64,204,0,0,0,109,110,109,109,1,4802
54.543714046,-2,6,0,-1,5,0,2,-2,0,125,0,29,39,-108,14,0,0,0,109,109,109,111,1,4803
54.559789896,-3,6,0,-2,5,0,2,0,0,79,-95,15,38,-116,40,0,0,0,110,110,108,110,1,4804
54.565638065,-3,6,0,-2,5,0,2,0,0,79,-95,15,38,-116,40,0,0,0,110,110,105,114,1,4805
54.576947927,-3,6,0,-2,5,0,1,0,0,79,-95,15,38,-116,40,0,0,0,113,102,107,115,1,4806
54.596869945,-4,7,0,-3,6,0,1,0,0,86,-67,19,82,-74,21,0,0,0,111,105,116,106,1,4807
54.607728958,-6,4,0,-4,7,0,0,0,0,-170,-139,199,102,-40,4,0,0,0,111,105,116,106,1,4808
54.618800878,-6,4,0,-4,7,0,0,0,0,-170,-139,199,102,-40,4,0,0,0,111,107,115,105,1,4809
54.629723072,-5,4,0,-3,7,0,-2,0,-1,-170,-139,199,102,-40,4,0,0,0,111,107,115,105,1,4810
54.651918888,-7,1,0,-4,7,0,-2,0,-1,-167,-119,125,43,-67,252,0,0,0,105,114,109,110,1,4811
54.66087389,-3,1,0,-6,6,0,-3,2,-1,0,141,104,-76,-113,216,0,0,0,105,114,109,110,1,4812
54.671763897,-3,1,0,-6,6,0,-3,2,-1,0,141,104,-76,-113,216,0,0,0,107,110,111,110,1,4813
54.682756901,-3,1,0,-5,5,0,0,4,-1,0,141,104,-76,-113,216,0,0,0,107,110,111,110,1,4814
54.702758074,0,4,0,-6,2,0,2,1,0,120,100,76,-150,-88,147,0,0,0,104,114,104,116,1,4815
54.715730905,3,3,0,-5,0,0,2,-1,1,10,198,166,-85,29,89,0,0,0,104,114,104,116,1,4816
54.724889994,3,3,0,-5,0,0,2,-1,1,10,198,166,-85,29,89,0,0,0,117,103,110,107,1,4817
54.736166,2,3,0,-5,0,0,1,-3,1,10,198,166,-85,29,89,0,0,0,117,103,110,107,1,4818
54.756825924,2,3,0,-1,0,0,1,-3,1,18,-49,48,56,151,90,0,0,0,105,112,106,115,1,4819
54.767674923,0,4,0,1,2,0,0,-3,0,91,-92,36,114,159,160,0,0,0,106,112,114,106,1,4820
54.779510975,0,4,0,1,2,0,0,-3,0,91,-92,36,114,159,160,0,0,0,106,112,114,106,1,4821
54.789716005,0,4,0,1,2,0,0,-2,0,91,-92,36,114,159,160,0,0,0,111,107,107,112,1,4822
54.81001091,0,5,0,1,2,0,1,0,-1,158,-80,93,65,39,5,0,0,0,107,110,116,105,1,4823
54.82071805,0,3,0,0,3,0,1,0,-1,-92,50,255,32,-91,75,0,0,0,107,110,116,105,1,4824
54.831650019,0,3,0,0,3,0,1,0,-1,-92,50,255,32,-91,75,0,0,0,110,108,105,116,1,4825
54.842685938,0,3,0,0,2,0,0,1,-1,-92,50,255,32,-91,75,0,0,0,110,108,105,116,1,4826
54.862768888,2,3,0,0,3,0,0,1,-1,-32,115,34,57,-106,79,0,0,0,111,108,114,105,1,4827
54.873806,2,0,0,0,3,0,0,0,-1,-182,47,41,37,0,39,0,0,0,111,108,114,105,1,4828
54.884754896,2,0,0,0,3,0,0,0,-1,-182,47,41,37,0,39,0,0,0,113,107,106,112,1,4829
54.89559102,2,0,0,0,3,0,-1,0,-1,-182,47,41,37,0,39,0,0,0,113,107,106,112,1,4830
54.916787863,0,0,0,0,2,0,-2,0,0,-16,-92,245,-62,102,11,0,0,0,103,118,111,106,1,4831
54.927749872,1,3,0,1,0,0,-1,0,1,222,77,213,-129,88,11,0,0,0,103,118,111,106,1,4832
54.939008951,1,3,0,1,0,0,-1,0,1,222,77,213,-129,88,11,0,0,0,114,105,113,107,1,4833
54.949753046,1,3,0,1,0,0,0,1,1,222,77,213,-129,88,11,0,0,0,114,105,113,107,1,4834
54.969691992,2,3,0,1,0,0,0,1,1,24,88,244,-57,2,8,0,0,0,105,115,114,104,1,4835
54.980731964,3,0,0,1,1,0,2,3,1,-199,39,105,84,-22,235,0,0,0,106,114,108,110,1,4836
54.99178791,3,0,0,1,1,0,2,3,1,-199,39,105,84,-22,235,0,0,0,106,114,108,110,1,4837
55.002747059,3,0,0,1,1,0,2,3,0,-199,39,105,84,-22,235,0,0,0,112,107,106,114,1,4838
55.022835016,3,0,0,2,3,0,2,3,0,-2,5,141,108,44,192,0,0,0,110,109,108,112,1,4839
55.033763885,1,-3,0,4,2,0,2,2,0,-156,-109,128,-32,84,152,0,0,0,110,109,108,112,1,4840
55.047507048,1,-3,0,4,2,0,2,2,0,-156,-109,128,-32,84,152,0,0,0,108,112,112,106,1,4841
55.056326866,1,-3,0,3,1,0,2,0,0,-156,-109,128,-32,84,152,0,0,0,108,112,112,106,1,4842
55.076909065,3,-3,0,4,-1,0,2,0,0,-15,174,238,-160,29,128,0,0,0,114,107,103,115,1,4843
55.086709022,3,-5,0,3,-4,0,0,-2,1,-129,9,67,-141,-32,145,0,0,0,114,107,103,115,1,4844
55.097985029,3,-5,0,3,-4,0,0,-2,1,-129,9,67,-141,-32,145,0,0,0,108,109,107,114,1,4845
55.109557867,3,-4,0,3,-4,0,-1,-3,0,-129,9,67,-141,-32,145,0,0,0,108,109,107,114,1,4846
55.128848076,3,-5,0,3,-5,0,-1,-3,0,-62,45,19,-60,0,213,0,0,0,114,105,113,106,1,4847
55.141026974,2,-5,0,3,-5,0,-2,-3,0,4,-117,101,-41,70,39,0,0,0,114,105,113,106,1,4848
55.150729895,2,-5,0,3,-5,0,-2,-3,0,4,-117,101,-41,70,39,0,0,0,112,107,107,112,1,4849
55.161894083,2,-4,0,3,-5,0,-2,-2,0,4,-117,101,-41,70,39,0,0,0,112,107,107,112,1,4850
55.182771921,3,-4,0,3,-5,0,-2,0,0,-31,97,232,-66,57,77,0,0,0,106,111,108,113,1,4851
55.193829059,4,-4,0,3,-5,0,0,1,0,37,130,40,-53,-13,60,0,0,0,106,111,108,113,1,4852
55.205515861,4,-4,0,3,-5,0,0,1,0,37,130,40,-53,-13,60,0,0,0,109,112,115,103,1,4853
55.215693951,4,-3,0,3,-5,0,2,1,0,37,130,40,-53,-13,60,0,0,0,109,112,115,103,1,4854
55.235682964,5,-2,0,3,-5,0,2,1,0,70,68,8,0,-11,24,0,0,0,107,111,109,112,1,4855
55.246758938,6,-3,0,4,-4,0,2,0,0,-59,67,94,39,81,8,0,0,0,108,112,108,111,1,4856
55.25773406,6,-3,0,4,-4,0,2,0,0,-59,67,94,39,81,8,0,0,0,109,111,111,107,1,4857
55.268847942,5,-2,0,3,-4,0,1,0,0,-59,67,94,39,81,8,0,0,0,108,110,112,108,1,4858
55.291539907,5,-4,0,5,-3,0,1,0,0,-90,-22,200,33,135,22,0,0,0,115,103,101,119,1,4859
55.300987005,5,-6,0,6,-3,0,0,0,0,-131,44,170,-17,80,34,0,0,0,115,103,101,119,1,4860
55.31073904,5,-6,0,6,-3,0,0,0,0,-131,44,170,-17,80,34,0,0,0,108,111,113,107,1,4861
55.321739912,5,-6,0,5,-3,0,-1,-1,0,-131,44,170,-17,80,34,0,0,0,108,111,113,107,1,4862
55.341930866,6,-10,0,5,-4,0,-1,-1,0,-109,43,40,-89,0,252,0,0,0,113,108,109,107,1,4863
55.354136944,8,-11,0,5,-7,0,-2,-3,0,-56,79,134,-133,-8,161,0,0,0,113,108,109,107,1,4864
55.364283085,8,-11,0,5,-7,0,-2,-3,0,-56,79,134,-133,-8,161,0,0,0,106,111,106,115,1,4865
55.374743938,7,-10,0,4,-6,0,-1,-1,0,-56,79,134,-133,-8,161,0,0,0,106,111,106,115,1,4866
55.39586091,7,-12,0,5,-9,0,0,0,0,-129,25,142,-123,43,81,0,0,0,112,106,116,104,1,4867
55.407548904,5,-10,0,7,-11,0,2,2,0,74,-81,37,-83,73,81,0,0,0,112,106,116,104,1,4868
55.418062925,5,-10,0,7,-11,0,2,2,0,74,-81,37,-83,73,81,0,0,0,118,102,105,113,1,4869
55.428756952,5,-10,0,6,-11,0,0,3,0,74,-81,37,-83,73,81,0,0,0,118,102,105,113,1,4870
55.451488972,5,-8,0,7,-12,0,0,3,0,70,27,210,-43,37,159,0,0,0,108,110,113,106,1,4871
55.459682941,6,-6,0,7,-11,0,-4,1,0,160,45,18,8,-22,245,0,0,0,99,120,111,108,1,4872
55.470699072,6,-6,0,7,-11,0,-4,1,0,160,45,18,8,-22,245,0,0,0,99,120,111,108,1,4873
55.481855869,5,-5,0,6,-10,0,-4,0,0,160,45,18,8,-22,245,0,0,0,106,111,106,114,1,4874
55.5075109,1,-4,0,5,-8,0,1,0,0,27,-177,105,81,-38,15,0,0,0,115,104,106,112,1,4875
55.515611887,3,-3,0,4,-5,0,6,0,-1,103,161,249,127,-14,233,0,0,0,115,104,106,112,1,4876
55.524805069,3,-3,0,4,-5,0,6,0,-1,103,161,249,127,-14,233,0,0,0,108,109,118,103,1,4877
55.535603046,3,-2,0,4,-5,0,3,-1,-1,103,161,249,127,-14,233,0,0,0,108,109,118,103,1,4878
55.555808067,1,-4,0,4,-3,0,3,-1,-1,-145,-108,83,103,-5,187,0,0,0,121,99,102,116,1,4879
55.567985058,0,-3,0,3,-2,0,-3,-1,0,48,-76,85,27,-15,204,0,0,0,121,99,102,116,1,4880
55.577862024,0,-3,0,3,-2,0,-3,-1,0,48,-76,85,27,-15,204,0,0,0,103,115,105,115,1,4881
55.588687897,0,-3,0,3,-2,0,-7,-1,0,48,-76,85,27,-15,204,0,0,0,103,115,105,115,1,4882
55.610005855,-1,-1,0,2,-2,0,-4,-3,0,69,-116,201,-35,-31,30,0,0,0,108,112,115,103,1,4883
55.619940996,-1,0,0,2,-3,0,1,-3,0,92,-8,233,-27,-66,83,0,0,0,108,112,115,103,1,4884
55.630795956,-1,0,0,2,-3,0,1,-3,0,92,-8,233,-27,-66,83,0,0,0,105,115,104,114,1,4885
55.641731977,-1,0,0,1,-2,0,4,-1,1,92,-8,233,-27,-66,83,0,0,0,105,115,104,114,1,4886
55.66285491,2,-2,0,0,-2,0,4,-1,1,-133,205,166,39,-86,34,0,0,0,108,110,121,99,1,4887
55.673829079,2,0,0,0,0,0,4,2,0,59,36,220,70,-26,198,0,0,0,113,108,115,102,1,4888
55.684724092,2,0,0,0,0,0,4,2,0,59,36,220,70,-26,198,0,0,0,113,108,115,102,1,4889
55.6956079,2,0,0,0,0,0,2,5,0,59,36,220,70,-26,198,0,0,0,107,110,107,113,1,4890
55.716737032,2,0,0,2,0,0,2,5,0,41,0,148,17,88,159,0,0,0,108,109,111,109,1,4891
55.726727009,1,3,0,4,0,0,1,6,0,10,-78,21,-23,127,182,0,0,0,108,109,111,109,1,4892
55.737856865,1,3,0,4,0,0,1,6,0,10,-78,21,-23,127,182,0,0,0,104,115,107,111,1,4893
55.751718044,1,3,0,4,0,0,0,4,0,10,-78,21,-23,127,182,0,0,0,104,115,107,111,1,4894
55.769001961,0,4,0,4,0,0,0,4,0,64,-24,218,45,36,213,0,0,0,119,101,105,113,1,4895
55.781877994,1,5,0,3,2,0,0,0,0,50,45,149,161,-71,224,0,0,0,119,101,105,113,1,4896
55.790724039,1,5,0,3,2,0,0,0,0,50,45,149,161,-71,224,0,0,0,110,108,112,108,1,4897
55.801806927,1,4,0,3,2,0,0,-3,0,50,45,149,161,-71,224,0,0,0,110,108,112,108,1,4898
55.821768045,3,2,0,2,4,0,-3,-3,0,-76,53,101,173,-71,215,0,0,0,107,113,113,105,1,4899
55.832787037,4,3,0,2,5,0,-3,0,0,142,130,203,62,19,178,0,0,0,107,113,113,105,1,4900
55.843680858,4,3,0,2,5,0,-3,0,0,142,130,203,62,19,178,0,0,0,113,104,104,117,1,4901
55.854875088,4,3,0,2,5,0,0,0,0,142,130,203,62,19,178,0,0,0,113,104,104,117,1,4902
55.87469387,4,3,0,4,4,0,0,0,0,8,-13,201,-31,95,137,0,0,0,108,113,108,108,1,4903
55.88578701,2,2,0,6,4,0,0,0,0,-59,-106,103,-9,91,149,0,0,0,108,113,108,108,1,4904
55.896943092,2,2,0,6,4,0,0,0,0,-59,-106,103,-9,91,149,0,0,0,106,113,105,114,1,4905
55.911464929,2,2,0,5,3,0,0,-2,0,-59,-106,103,-9,91,149,0,0,0,106,113,105,114,1,4906
55.928325891,3,0,0,6,4,0,0,-2,0,-251,68,55,39,22,227,0,0,0,108,111,118,101,1,4907
55.939735889,7,1,0,5,4,0,1,-2,0,61,156,83,-16,-38,51,0,0,0,108,111,118,101,1,4908
55.949769974,7,1,0,5,4,0,1,-2,0,61,156,83,-16,-38,51,0,0,0,112,108,116,102,1,4909
55.960716963,6,1,0,5,3,0,2,1,0,61,156,83,-16,-38,51,0,0,0,112,108,116,102,1,4910
55.981059074,9,0,0,4,2,0,2,1,0,-45,124,113,-125,-6,45,0,0,0,109,107,110,112,1,4911
55.996998072,9,1,0,6,0,0,1,6,0,31,20,151,-127,101,193,0,0,0,109,107,110,112,1,4912
56.002898931,9,1,0,6,0,0,1,6,0,31,20,151,-127,101,193,0,0,0,109,110,109,110,1,4913
56.01432991,8,1,0,5,0,0,0,6,-1,31,20,151,-127,101,193,0,0,0,109,110,109,110,1,4914
56.03487587,8,1,0,9,0,0,-2,1,-1,48,6,82,-14,156,93,0,0,0,103,116,101,118,1,4915
56.045924902,10,1,0,11,1,0,-1,-4,0,23,242,117,68,98,126,0,0,0,103,116,101,118,1,4916
56.05674696,10,1,0,11,1,0,-1,-4,0,23,242,117,68,98,126,0,0,0,115,104,107,112,1,4917
56.067755937,9,1,0,10,1,0,0,-6,0,23,242,117,68,98,126,0,0,0,115,104,107,112,1,4918
56.088937998,8,0,0,10,1,0,0,-6,0,-80,-61,162,54,31,13,0,0,0,101,117,103,116,1,4919
56.098999023,6,-2,0,10,1,0,2,-6,0,-115,-45,242,-4,46,104,0,0,0,108,110,104,117,1,4920
56.111779928,6,-2,0,10,1,0,2,-6,0,-115,-45,242,-4,46,104,0,0,0,108,110,111,109,1,4921
56.120764971,6,-1,0,9,1,0,3,-5,0,-115,-45,242,-4,46,104,0,0,0,111,106,112,109,1,4922
56.140763044,7,0,0,10,0,0,3,-5,0,71,74,227,-55,67,48,0,0,0,109,108,116,105,1,4923
56.151762009,6,0,0,10,0,0,2,-2,-1,126,-64,83,-64,17,201,0,0,0,109,108,116,105,1,4924
56.162719965,6,0,0,10,0,0,2,-2,-1,126,-64,83,-64,17,201,0,0,0,115,108,106,110,1,4925
56.175657987,5,0,0,9,0,0,0,0,0,126,-64,83,-64,17,201,0,0,0,115,108,106,110,1,4926
56.19373393,6,1,0,8,0,0,0,0,0,75,13,93,-2,-35,200,0,0,0,117,102,108,111,1,4927
56.204782009,3,0,0,7,0,0,-3,1,0,-114,-136,236,88,-31,39,0,0,0,117,102,108,111,1,4928
56.216033935,3,0,0,7,0,0,-3,1,0,-114,-136,236,88,-31,39,0,0,0,101,115,114,107,1,4929
56.226938963,3,0,0,7,0,0,-5,0,1,-114,-136,236,88,-31,39,0,0,0,101,115,114,107,1,4930
56.247694015,5,-2,0,6,1,0,-2,-1,0,-161,176,251,92,-14,99,0,0,0,110,110,104,114,1,4931
56.259180069,9,-3,0,6,1,0,2,-2,-2,-65,140,36,-29,-7,48,0,0,0,110,110,104,114,1,4932
56.273951053,9,-3,0,6,1,0,2,-2,-2,-65,140,36,-29,-7,48,0,0,0,116,102,115,106,1,4933
56.281244039,8,-3,0,5,1,0,3,-2,-1,-65,140,36,-29,-7,48,0,0,0,116,102,115,106,1,4934
56.303438902,12,-2,0,6,-1,0,3,-2,-1,34,101,51,-152,43,187,0,0,0,106,114,106,113,1,4935
56.311620951,9,0,0,8,-4,0,0,-1,0,89,-67,65,-132,126,84,0,0,0,111,108,111,108,1,4936
56.322679043,9,0,0,8,-4,0,0,-1,0,89,-67,65,-132,126,84,0,0,0,111,108,111,108,1,4937
56.333755016,8,0,0,7,-4,0,-3,0,0,89,-67,65,-132,126,84,0,0,0,110,111,108,109,1,4938
56.354718923,9,2,0,12,-3,0,-1,0,0,67,63,183,3,132,38,0,0,0,112,106,111,109,1,4939
56.367570877,9,1,0,12,0,0,0,0,0,-17,23,203,108,39,66,0,0,0,112,106,111,109,1,4940
56.376765013,9,1,0,12,0,0,0,0,0,-17,23,203,108,39,66,0,0,0,105,113,102,118,1,4941
56.387917995,8,1,0,12,0,0,0,-1,0,-17,23,203,108,39,66,0,0,0,105,113,102,118,1,4942
56.40779686,8,2,0,10,2,0,0,-1,0,52,18,163,96,-30,143,0,0,0,111,108,112,108,1,4943
56.418808937,5,4,0,9,2,0,0,-1,-1,80,-95,114,26,-8,204,0,0,0,111,108,112,108,1,4944
56.430078983,5,4,0,9,2,0,0,-1,-1,80,-95,114,26,-8,204,0,0,0,110,112,110,107,1,4945
56.440696955,5,4,0,8,2,0,0,0,0,80,-95,114,26,-8,204,0,0,0,110,112,110,107,1,4946
56.461864948,3,3,0,8,2,0,0,2,1,-21,-62,223,1,20,197,0,0,0,108,111,114,106,1,4947
56.473150015,3,4,0,7,3,0,-1,3,1,95,4,252,36,-20,158,0,0,0,108,111,114,106,1,4948
56.483644962,3,4,0,7,3,0,-1,3,1,95,4,252,36,-20,158,0,0,0,112,107,113,106,1,4949
56.494801044,3,4,0,7,3,0,-1,3,0,95,4,252,36,-20,158,0,0,0,112,107,113,106,1,4950
56.517493963,5,6,0,5,4,0,-1,3,0,102,134,177,64,-69,164,0,0,0,106,111,104,117,1,4951
56.525929928,8,5,0,4,5,0,0,3,-1,-19,197,210,63,-23,217,0,0,0,106,111,104,117,1,4952
56.539872885,8,5,0,4,5,0,0,3,-1,-19,197,210,63,-23,217,0,0,0,107,111,109,111,1,4953
56.547626972,7,5,0,4,4,0,1,0,-1,-19,197,210,63,-23,217,0,0,0,107,111,109,111,1,4954
56.567857981,8,4,0,5,5,0,1,0,-1,-54,33,21,54,99,242,0,0,0,109,111,107,111,1,4955
56.578675032,8,3,0,8,5,0,2,-3,-1,-44,87,2,24,177,227,0,0,0,109,111,107,111,1,4956
56.589676857,8,3,0,8,5,0,2,-3,-1,-44,87,2,24,177,227,0,0,0,111,109,111,107,1,4957
56.600812912,8,3,0,7,5,0,2,-3,0,-44,87,2,24,177,227,0,0,0,111,109,111,107,1,4958
56.620714903,10,6,0,9,4,0,2,-3,0,136,97,-35,-25,141,218,0,0,0,107,112,110,109,1,4959
56.631777048,10,4,0,10,3,0,1,-1,1,-48,3,133,-37,60,201,0,0,0,107,112,110,109,1,4960
56.642940044,10,4,0,10,3,0,1,-1,1,-48,3,133,-37,60,201,0,0,0,111,109,107,111,1,4961
56.653666019,9,4,0,9,3,0,0,0,0,-48,3,133,-37,60,201,0,0,0,111,109,107,111,1,4962
56.674244881,11,5,0,10,3,0,0,0,0,37,93,117,13,33,130,0,0,0,119,99,114,106,1,4963
56.684774876,9,7,0,11,6,0,-1,1,0,192,-120,105,61,49,66,0,0,0,119,99,114,106,1,4964
56.695927858,9,7,0,11,6,0,-1,1,0,192,-120,105,61,49,66,0,0,0,112,107,109,109,1,4965
56.706729889,9,6,0,10,5,0,-4,0,0,192,-120,105,61,49,66,0,0,0,112,107,109,109,1,4966
56.731458902,8,8,0,11,7,0,-5,1,0,100,9,173,70,36,116,0,0,0,104,114,111,109,1,4967
56.738887071,6,8,0,10,8,0,-1,1,0,67,-147,238,90,-22,243,0,0,0,104,114,111,109,1,4968
56.74979186,6,8,0,10,8,0,-1,1,0,67,-147,238,90,-22,243,0,0,0,104,113,115,107,1,4969
56.762413025,5,8,0,9,7,0,4,1,-1,67,-147,238,90,-22,243,0,0,0,104,113,115,107,1,4970
56.780701876,4,8,0,8,9,0,4,1,-1,64,-69,17,123,-79,46,0,0,0,109,110,109,110,1,4971
56.795521974,4,8,0,6,10,0,5,1,-2,34,-5,98,110,-98,6,0,0,0,109,110,109,110,1,4972
56.802907944,4,8,0,6,10,0,5,1,-2,34,-5,98,110,-98,6,0,0,0,113,107,109,110,1,4973
56.813746929,3,8,0,6,9,0,2,1,-1,34,-5,98,110,-98,6,0,0,0,113,107,109,110,1,4974
56.833750009,2,6,0,4,10,0,2,1,-1,-112,-86,10,51,-79,238,0,0,0,109,112,106,111,1,4975
56.844867945,2,8,0,3,9,0,0,0,0,161,-26,247,-1,-49,29,0,0,0,109,112,106,111,1,4976
56.855715036,2,8,0,3,9,0,0,0,0,161,-26,247,-1,-49,29,0,0,0,106,114,109,110,1,4977
56.866868019,2,7,0,3,8,0,0,-1,1,161,-26,247,-1,-49,29,0,0,0,106,114,109,110,1,4978
56.886769056,0,9,0,3,8,0,0,-1,1,117,-103,163,-7,-36,61,0,0,0,114,104,112,109,1,4979
56.897894859,-3,10,0,2,8,0,1,-1,1,44,-173,134,44,-55,6,0,0,0,114,104,112,109,1,4980
56.908976078,-3,10,0,2,8,0,1,-1,1,44,-173,134,44,-55,6,0,0,0,108,109,115,106,1,4981
56.919791937,-3,9,0,1,8,0,0,0,-1,44,-173,134,44,-55,6,0,0,0,108,109,115,106,1,4982
56.943336964,-5,9,0,0,9,0,-1,2,-2,41,-108,144,110,-98,169,0,0,0,107,111,115,105,1,4983
56.95193696,-3,10,0,-2,11,0,-4,2,-2,84,137,2,112,-129,122,0,0,0,107,111,115,105,1,4984
56.963263988,-3,10,0,-2,11,0,-4,2,-2,84,137,2,112,-129,122,0,0,0,119,101,98,120,1,4985
56.977935076,-3,9,0,-2,10,0,-3,0,-1,84,137,2,112,-129,122,0,0,0,119,101,98,120,1,4986
56.993736982,-5,10,0,-4,11,0,-3,0,-1,57,-152,220,58,-100,149,0,0,0,102,115,115,106,1,4987
57.00797987,-6,9,0,-4,11,0,-1,-1,0,13,-53,167,30,-24,211,0,0,0,103,115,111,109,1,4988
57.015744924,-6,9,0,-4,11,0,-1,-1,0,13,-53,167,30,-24,211,0,0,0,103,115,111,109,1,4989
57.026834965,-5,9,0,-4,10,0,0,-1,0,13,-53,167,30,-24,211,0,0,0,112,109,109,108,1,4990
57.04697895,-6,9,0,-4,11,0,0,-1,0,15,-82,78,46,2,244,0,0,0,110,112,109,108,1,4991
57.057790041,-7,7,0,-5,11,0,3,0,0,-106,-50,252,44,-55,239,0,0,0,110,112,109,108,1,4992
57.077905893,-7,7,0,-5,11,0,3,0,0,-106,-50,252,44,-55,239,0,0,0,114,107,114,103,1,4993
57.080427885,-6,6,0,-4,10,0,3,2,0,-106,-50,252,44,-55,239,0,0,0,114,107,114,103,1,4994
57.099581957,-5,8,0,-6,10,0,3,2,0,195,59,85,3,-102,246,0,0,0,104,116,110,109,1,4995
57.110749006,-4,7,0,-6,9,0,1,3,2,-9,36,62,-17,-60,32,0,0,0,104,116,110,109,1,4996
57.12173295,-4,7,0,-6,9,0,1,3,2,-9,36,62,-17,-60,32,0,0,0,106,112,106,114,1,4997
57.13210392,-4,7,0,-6,9,0,0,2,2,-9,36,62,-17,-60,32,0,0,0,106,112,106,114,1,4998
57.152842998,-4,7,0,-5,8,0,0,0,0,36,-6,210,25,25,68,0,0,0,108,109,116,104,1,4999
57.163780928,-4,3,0,-4,9,0,0,-1,-1,-130,-18,113,71,61,51,0,0,0,108,109,116,104,1,5000
57.175561905,-4,3,0,-4,9,0,0,-1,-1,-130,-18,113,71,61,51,0,0,0,119,100,109,110,1,5001
57.18572998,-4,3,0,-4,8,0,-3,0,-1,-130,-18,113,71,61,51,0,0,0,119,100,109,110,1,5002
57.205709934,-1,6,0,-3,9,0,-3,0,-1,125,124,65,37,29,230,0,0,0,105,113,117,103,1,5003
57.216814041,0,7,0,-3,7,0,-4,3,0,36,38,108,-30,1,128,0,0,0,109,110,101,119,1,5004
57.227711916,0,7,0,-3,7,0,-4,3,0,36,38,108,-30,1,128,0,0,0,108,109,101,120,1,5005
57.238677978,0,6,0,-3,6,0,-1,3,0,36,38,108,-30,1,128,0,0,0,101,116,115,107,1,5006
57.258671999,1,8,0,-1,6,0,-1,3,0,170,144,210,-16,35,68,0,0,0,105,114,110,108,1,5007
57.269968033,1,8,0,1,7,0,1,0,0,28,-10,240,78,94,93,0,0,0,105,114,110,108,1,5008
57.28075099,1,8,0,1,7,0,1,0,0,28,-10,240,78,94,93,0,0,0,112,109,104,113,1,5009
57.291684866,1,8,0,1,7,0,4,-2,0,28,-10,240,78,94,93,0,0,0,112,109,104,113,1,5010
57.311690092,3,8,0,3,9,0,4,-2,0,5,105,255,137,106,179,0,0,0,115,105,112,106,1,5011
57.32269907,1,6,0,4,10,0,3,-2,1,-78,-100,226,91,64,254,0,0,0,115,105,112,106,1,5012
57.333714008,1,6,0,4,10,0,3,-2,1,-78,-100,226,91,64,254,0,0,0,105,114,113,106,1,5013
57.344691992,1,6,0,3,9,0,0,0,2,-78,-100,226,91,64,254,0,0,0,105,114,113,106,1,5014
57.364893913,1,6,0,3,8,0,-2,2,0,86,30,15,-4,13,14,0,0,0,108,110,104,115,1,5015
57.375657081,0,4,0,3,7,0,-1,1,-1,-125,-151,19,-52,-21,249,0,0,0,108,110,104,115,1,5016
57.386709928,0,4,0,3,7,0,-1,1,-1,-125,-151,19,-52,-21,249,0,0,0,108,111,116,103,1,5017
57.397829056,0,4,0,2,6,0,0,0,-1,-125,-151,19,-52,-21,249,0,0,0,108,111,116,103,1,5018
57.417694092,0,4,0,2,6,0,0,0,-1,28,-25,114,-32,-48,247,0,0,0,106,111,102,119,1,5019
57.428821087,1,5,0,0,5,0,2,-1,-1,75,138,2,-4,-64,28,0,0,0,117,103,112,106,1,5020
57.439785004,1,5,0,0,5,0,2,-1,-1,75,138,2,-4,-64,28,0,0,0,117,103,112,106,1,5021
57.450910091,1,5,0,0,5,0,1,0,0,75,138,2,-4,-64,28,0,0,0,108,112,104,114,1,5022
57.471662998,1,7,0,0,5,0,1,0,0,196,49,63,10,-36,68,0,0,0,110,110,106,112,1,5023
57.481790066,1,9,0,1,5,0,0,-1,0,78,-5,110,58,41,63,0,0,0,110,110,106,112,1,5024
57.492834091,1,9,0,1,5,0,0,-1,0,78,-5,110,58,41,63,0,0,0,103,112,107,115,1,5025
57.503877878,1,8,0,0,5,0,-1,-3,0,78,-5,110,58,41,63,0,0,0,103,112,107,115,1,5026
57.523799896,2,8,0,2,7,0,-1,-3,0,13,49,174,129,94,5,0,0,0,107,111,117,104,1,5027
57.534785032,4,8,0,3,9,0,0,-3,-1,-17,145,245,136,68,186,0,0,0,107,111,117,104,1,5028
57.545724869,4,8,0,3,9,0,0,-3,-1,-17,145,245,136,68,186,0,0,0,115,105,111,107,1,5029
57.556719065,4,7,0,2,8,0,2,0,-1,-17,145,245,136,68,186,0,0,0,115,105,111,107,1,5030
57.577832937,3,8,0,3,9,0,0,4,0,148,-26,125,57,28,159,0,0,0,105,112,107,114,1,5031
57.588672876,3,10,0,3,8,0,-3,5,1,155,6,179,0,41,217,0,0,0,105,112,107,114,1,5032
57.599719047,3,10,0,3,8,0,-3,5,1,155,6,179,0,41,217,0,0,0,106,113,108,111,1,5033
57.610940933,3,9,0,3,7,0,-3,2,1,155,6,179,0,41,217,0,0,0,106,113,108,111,1,5034
57.630861997,1,9,0,4,8,0,-3,2,1,-53,-101,13,47,53,44,0,0,0,103,115,105,115,1,5035
57.641923904,0,8,0,4,9,0,2,-2,-1,0,-93,241,118,0,52,0,0,0,117,101,117,104,1,5036
57.652752876,0,8,0,4,9,0,2,-2,-1,0,-93,241,118,0,52,0,0,0,117,101,117,104,1,5037
57.663764953,0,7,0,3,8,0,5,-4,-2,0,-93,241,118,0,52,0,0,0,106,112,109,110,1,5038
57.683707952,-2,7,0,2,10,0,5,-4,-2,-28,-122,192,83,-84,246,0,0,0,109,110,110,109,1,5039
57.694779873,0,8,0,0,9,0,2,-1,-1,70,139,221,-21,-118,202,0,0,0,109,110,110,109,1,5040
57.705694914,0,8,0,0,9,0,2,-1,-1,70,139,221,-21,-118,202,0,0,0,112,106,110,110,1,5041
57.716836929,0,7,0,0,8,0,-2,2,0,70,139,221,-21,-118,202,0,0,0,112,106,110,110,1,5042
57.736945867,0,6,0,-1,7,0,-2,2,0,-52,20,253,-57,-70,208,0,0,0,108,110,108,112,1,5043
57.747997045,-1,7,0,0,6,0,-3,1,0,137,-110,244,0,18,229,0,0,0,108,110,108,112,1,5044
57.758764028,-1,7,0,0,6,0,-3,1,0,137,-110,244,0,18,229,0,0,0,110,111,103,114,1,5045
57.771522999,0,7,0,0,6,0,0,-1,0,137,-110,244,0,18,229,0,0,0,110,111,103,114,1,5046
57.789910078,0,10,0,0,7,0,0,-1,0,131,55,158,61,58,238,0,0,0,107,113,111,107,1,5047
57.803502083,-4,9,0,0,8,0,1,-4,0,-10,-96,50,84,8,225,0,0,0,107,113,111,107,1,5048
57.812107086,-4,9,0,0,8,0,1,-4,0,-10,-96,50,84,8,225,0,0,0,107,113,112,107,1,5049
57.822701931,-3,8,0,0,7,0,2,-2,1,-10,-96,50,84,8,225,0,0,0,107,113,112,107,1,5050
57.843791962,-2,7,0,0,8,0,1,1,1,-38,103,243,85,-53,177,0,0,0,106,111,112,109,1,5051
57.854804993,-1,6,0,-1,9,0,0,4,0,-9,18,115,50,-39,132,0,0,0,106,111,112,109,1,5052
57.866365909,-1,6,0,-1,9,0,0,4,0,-9,18,115,50,-39,132,0,0,0,120,99,115,104,1,5053
57.877146959,-1,6,0,-1,9,0,-2,4,0,-9,18,115,50,-39,132,0,0,0,120,99,115,104,1,5054
57.896750927,-1,3,0,-1,8,0,-2,4,0,-180,15,193,-20,27,169,0,0,0,103,113,104,118,1,5055
57.907751083,-3,3,0,0,6,0,-2,2,-2,27,-131,255,-79,57,16,0,0,0,105,112,110,111,1,5056
57.918700933,-3,3,0,0,6,0,-2,2,-2,27,-131,255,-79,57,16,0,0,0,105,112,110,111,1,5057
57.930655002,-2,3,0,0,6,0,-1,0,-2,27,-131,255,-79,57,16,0,0,0,109,111,111,106,1,5058
57.95082593,-3,1,0,0,4,0,1,-2,-2,-95,-59,41,-92,9,64,0,0,0,105,114,103,116,1,5059
57.961649895,-2,0,0,0,3,0,4,-2,0,-118,59,95,-72,-69,22,0,0,0,105,114,103,116,1,5060
57.972838879,-2,0,0,0,3,0,4,-2,0,-118,59,95,-72,-69,22,0,0,0,111,111,111,106,1,5061
57.983660936,-2,0,0,0,3,0,4,-1,1,-118,59,95,-72,-69,22,0,0,0,111,111,111,106,1,5062
58.004255056,-2,0,0,-2,2,0,4,-1,1,23,-19,219,-56,-86,251,0,0,0,104,114,106,114,1,5063
58.014805078,-1,2,0,-2,1,0,3,-1,1,93,43,199,-55,-21,27,0,0,0,104,114,106,114,1,5064
58.025706053,-1,2,0,-2,1,0,3,-1,1,93,43,199,-55,-21,27,0,0,0,110,108,109,111,1,5065
58.036771059,-1,2,0,-2,1,0,2,-2,0,93,43,199,-55,-21,27,0,0,0,110,108,109,111,1,5066
58.057834864,-4,0,0,-1,0,0,0,-1,0,-56,-69,58,-29,42,28,0,0,0,112,105,118,103,1,5067
58.068634033,-1,-1,0,0,1,0,-3,0,0,-51,78,100,23,34,197,0,0,0,112,105,118,103,1,5068
58.079829931,-1,-1,0,0,1,0,-3,0,0,-51,78,100,23,34,197,0,0,0,118,102,103,115,1,5069
58.090745926,-1,-1,0,0,1,0,-7,2,0,-51,78,100,23,34,197,0,0,0,118,102,103,115,1,5070
58.11185503,0,-1,0,0,2,0,-7,2,0,15,146,232,31,-2,94,0,0,0,105,113,117,102,1,5071
58.121640921,2,-2,0,0,1,0,-6,2,0,-133,214,66,-23,23,84,0,0,0,109,111,108,110,1,5072
58.1326859,2,-2,0,0,1,0,-6,2,0,-133,214,66,-23,23,84,0,0,0,109,111,108,110,1,5073
58.14381504,2,-2,0,0,1,0,-1,1,0,-133,214,66,-23,23,84,0,0,0,106,113,106,113,1,5074
58.164335012,1,0,0,2,0,0,-1,1,0,119,-81,178,-66,115,182,0,0,0,107,111,108,111,1,5075
58.174768925,-1,-1,0,4,0,0,1,1,0,-82,-219,222,-46,153,27,0,0,0,107,111,108,111,1,5076
58.185795069,-1,-1,0,4,0,0,1,1,0,-82,-219,222,-46,153,27,0,0,0,110,106,116,105,1,5077
58.19668293,-1,-1,0,3,0,0,2,0,0,-82,-219,222,-46,153,27,0,0,0,110,106,116,105,1,5078
58.216976881,-3,-1,0,4,0,0,2,0,0,-19,-151,18,-1,32,29,0,0,0,103,115,110,110,1,5079
58.227688074,-4,-1,0,1,0,0,2,0,-1,11,-55,197,10,-160,224,0,0,0,103,115,110,110,1,5080
58.238749027,-4,-1,0,1,0,0,2,0,-1,11,-55,197,10,-160,224,0,0,0,108,111,110,109,1,5081
58.249686956,-4,0,0,1,0,0,2,1,-2,11,-55,197,10,-160,224,0,0,0,108,111,110,109,1,5082
58.270612955,-4,-3,0,-1,0,0,1,1,0,-166,-41,208,-20,-230,199,0,0,0,112,107,112,107,1,5083
58.28195095,-5,-3,0,-3,-1,0,0,0,1,-14,-57,231,-56,-128,222,0,0,0,112,107,112,107,1,5084
58.292646885,-5,-3,0,-3,-1,0,0,0,1,-14,-57,231,-56,-128,222,0,0,0,111,111,104,113,1,5085
58.304254055,-4,-3,0,-3,-1,0,-2,0,1,-14,-57,231,-56,-128,222,0,0,0,111,111,104,113,1,5086
58.323554039,-4,-4,0,-3,-2,0,-2,0,1,-50,-4,45,-76,-7,235,0,0,0,112,105,113,107,1,5087
58.334856987,-5,-2,0,-3,-3,0,-2,0,0,88,-49,121,-68,7,239,0,0,0,111,107,105,115,1,5088
58.345776081,-5,-2,0,-3,-3,0,-2,0,0,88,-49,121,-68,7,239,0,0,0,111,107,105,115,1,5089
58.356694937,-4,-2,0,-3,-3,0,-1,0,0,88,-49,121,-68,7,239,0,0,0,104,114,115,104,1,5090
58.377811909,-3,-2,0,-3,-3,0,0,0,-1,-29,88,244,-26,-34,20,0,0,0,107,111,112,107,1,5091
58.38876009,-7,-1,0,-3,-2,0,0,0,-1,73,-190,37,27,-38,62,0,0,0,107,111,112,107,1,5092
58.399703026,-7,-1,0,-3,-2,0,0,0,-1,73,-190,37,27,-38,62,0,0,0,114,104,112,108,1,5093
58.409759998,-7,-1,0,-3,-2,0,1,2,0,73,-190,37,27,-38,62,0,0,0,114,104,112,108,1,5094
58.43067503,-5,-3,0,-3,-1,0,1,2,0,-52,27,72,47,-14,17,0,0,0,105,114,109,109,1,5095
58.443969965,-6,-4,0,-4,-1,0,1,3,0,-99,-98,210,20,-27,138,0,0,0,105,114,109,109,1,5096
58.452732086,-6,-4,0,-4,-1,0,1,3,0,-99,-98,210,20,-27,138,0,0,0,109,109,110,109,1,5097
58.463949919,-6,-4,0,-3,-1,0,0,2,0,-99,-98,210,20,-27,138,0,0,0,109,109,110,109,1,5098
58.484214067,-7,-7,0,-7,-2,0,0,0,0,-250,-97,211,-36,-69,48,0,0,0,108,109,104,117,1,5099
58.495192051,-8,-8,0,-8,-5,0,0,-1,1,-119,-104,190,-112,-89,105,0,0,0,108,109,104,117,1,5100
58.507758856,-8,-8,0,-8,-5,0,0,-1,1,-119,-104,190,-112,-89,105,0,0,0,103,117,112,106,1,5101
58.516989946,-7,-8,0,-7,-4,0,1,-2,0,-119,-104,190,-112,-89,105,0,0,0,103,117,112,106,1,5102
58.536633968,-7,-10,0,-9,-7,0,1,-2,0,-94,-7,162,-179,-86,221,0,0,0,113,103,110,112,1,5103
58.547811031,-6,-8,0,-9,-9,0,2,-1,0,110,63,246,-176,-74,250,0,0,0,111,109,111,107,1,5104
58.558894873,-6,-8,0,-9,-9,0,2,-1,0,110,63,246,-176,-74,250,0,0,0,111,109,111,107,1,5105
58.569923878,-6,-7,0,-8,-8,0,1,0,-1,110,63,246,-176,-74,250,0,0,0,114,103,106,115,1,5106
58.590897083,-7,-5,0,-9,-10,0,1,0,-1,228,-143,42,-72,-40,201,0,0,0,112,105,108,113,1,5107
58.601016998,-5,-4,0,-8,-7,0,-1,0,-1,65,118,127,80,0,197,0,0,0,112,105,108,113,1,5108
58.611721992,-5,-4,0,-8,-7,0,-1,0,-1,65,118,127,80,0,197,0,0,0,109,109,110,110,1,5109
58.622792005,-5,-3,0,-8,-7,0,-4,0,-1,65,118,127,80,0,197,0,0,0,109,109,110,110,1,5110
58.643724918,-7,-3,0,-8,-4,0,-4,0,-1,0,-101,202,180,6,21,0,0,0,102,118,112,107,1,5111
58.654769897,-8,-5,0,-7,-2,0,-2,-1,-1,-75,-73,161,147,-17,84,0,0,0,102,118,112,107,1,5112
58.66574502,-8,-5,0,-7,-2,0,-2,-1,-1,-75,-73,161,147,-17,84,0,0,0,110,109,112,106,1,5113
58.676711082,-7,-4,0,-7,-2,0,1,0,0,-75,-73,161,147,-17,84,0,0,0,110,109,112,106,1,5114
58.696764946,-5,-2,0,-7,-2,0,4,2,0,57,83,133,20,-36,34,0,0,0,113,108,110,106,1,5115
58.707967996,-3,-4,0,-7,-3,0,3,3,1,-109,81,207,-68,-33,172,0,0,0,113,108,110,106,1,5116
58.724344969,-3,-4,0,-7,-3,0,3,3,1,-109,81,207,-68,-33,172,0,0,0,109,110,109,109,1,5117
58.729789019,-3,-4,0,-6,-3,0,0,2,2,-109,81,207,-68,-33,172,0,0,0,109,110,109,109,1,5118
58.751805067,-1,-1,0,-6,-5,0,0,2,2,102,42,91,-54,10,109,0,0,0,116,104,109,109,1,5119
58.76085186,-2,-2,0,-4,-4,0,-2,1,1,-78,-39,253,0,69,136,0,0,0,110,110,109,109,1,5120
58.771794081,-2,-2,0,-4,-4,0,-2,1,1,-78,-39,253,0,69,136,0,0,0,110,110,109,109,1,5121
58.782860994,-2,-1,0,-4,-4,0,-3,0,0,-78,-39,253,0,69,136,0,0,0,110,106,111,111,1,5122
58.80479598,-2,-1,0,-2,-3,0,-3,0,0,6,-13,211,18,71,184,0,0,0,105,113,104,115,1,5123
58.814679861,-4,-3,0,-1,-3,0,-1,0,-1,-125,-102,163,-6,3,204,0,0,0,105,113,104,115,1,5124
58.825949907,-4,-3,0,-1,-3,0,-1,0,-1,-125,-102,163,-6,3,204,0,0,0,108,108,116,106,1,5125
58.836720943,-3,-3,0,-1,-3,0,0,-1,-2,-125,-102,163,-6,3,204,0,0,0,108,108,116,106,1,5126
58.856725931,-2,-2,0,-2,-4,0,0,-1,-2,129,131,12,-40,-58,208,0,0,0,107,111,104,117,1,5127
58.867842913,-1,-2,0,-3,-4,0,2,-1,-2,-37,23,34,-42,-46,213,0,0,0,107,111,104,117,1,5128
58.879073858,-1,-2,0,-3,-4,0,2,-1,-2,-37,23,34,-42,-46,213,0,0,0,111,105,111,111,1,5129
58.890176058,-1,-2,0,-3,-4,0,1,-1,-2,-37,23,34,-42,-46,213,0,0,0,111,105,111,111,1,5130
58.910760879,0,0,0,-2,-3,0,0,-1,-1,69,22,144,0,24,230,0,0,0,111,110,114,103,1,5131
58.921694994,0,0,0,-1,-3,0,-1,0,0,-32,72,250,44,77,247,0,0,0,111,110,114,103,1,5132
58.932640076,0,0,0,-1,-3,0,-1,0,0,-32,72,250,44,77,247,0,0,0,107,114,102,115,1,5133
58.947438002,0,0,0,-1,-2,0,0,0,1,-32,72,250,44,77,247,0,0,0,107,114,102,115,1,5134
58.963733911,0,0,0,0,-2,0,0,0,1,27,8,185,42,65,234,0,0,0,111,109,114,104,1,5135
58.974741936,0,-2,0,0,-1,0,0,1,2,-88,0,136,5,28,199,0,0,0,110,110,109,109,1,5136
58.985893011,0,-2,0,0,-1,0,0,1,2,-88,0,136,5,28,199,0,0,0,110,110,109,109,1,5137
58.996711969,0,-2,0,0,-1,0,1,0,2,-88,0,136,5,28,199,0,0,0,111,108,112,107,1,5138
59.01669693,-3,0,0,0,-2,0,1,0,2,53,-91,55,-24,8,171,0,0,0,110,109,112,108,1,5139
59.030119896,-3,-3,0,0,-2,0,0,0,0,-96,-12,115,-29,-8,142,0,0,0,110,109,112,108,1,5140
59.038915872,-3,-3,0,0,-2,0,0,0,0,-96,-12,115,-29,-8,142,0,0,0,112,107,113,107,1,5141
59.04994297,-2,-2,0,0,-2,0,-1,2,0,-96,-12,115,-29,-8,142,0,0,0,112,107,113,107,1,5142
59.069757938,-4,-1,0,-1,-3,0,-1,2,0,58,-66,206,-22,-40,103,0,0,0,112,105,112,109,1,5143
59.080935955,-4,0,0,-3,-3,0,-2,3,0,69,-21,72,-10,-61,102,0,0,0,112,105,112,109,1,5144
59.0994699,-4,0,0,-3,-3,0,-2,3,0,69,-21,72,-10,-61,102,0,0,0,112,105,113,108,1,5145
59.102738857,-3,0,0,-3,-3,0,-3,3,-1,69,-21,72,-10,-61,102,0,0,0,112,105,113,108,1,5146
59.123710871,-6,-1,0,-4,-2,0,-2,2,-1,-40,-227,33,9,-58,181,0,0,0,109,111,109,110,1,5147
59.135540008,-8,-2,0,-4,-2,0,0,0,0,-96,-202,215,29,-72,31,0,0,0,109,111,109,110,1,5148
59.150150061,-8,-2,0,-4,-2,0,0,0,0,-96,-202,215,29,-72,31,0,0,0,102,118,104,114,1,5149
59.156652927,-7,-2,0,-4,-2,0,3,-1,0,-96,-202,215,29,-72,31,0,0,0,102,118,104,114,1,5150
59.179395914,-6,-1,0,-5,-2,0,3,-1,0,47,113,20,9,-129,69,0,0,0,111,109,109,109,1,5151
59.187753916,-5,-1,0,-7,-2,0,4,-2,1,2,34,213,-37,-153,20,0,0,0,111,108,108,111,1,5152
59.199044943,-5,-1,0,-7,-2,0,4,-2,1,2,34,213,-37,-153,20,0,0,0,111,108,108,111,1,5153
59.209553957,-4,-1,0,-6,-2,0,2,-1,1,2,34,213,-37,-153,20,0,0,0,118,99,122,99,1,5154
59.230700016,-3,-2,0,-7,-2,0,-1,0,0,-76,56,242,-45,-58,220,0,0,0,105,112,109,112,1,5155
59.244072914,-2,-5,0,-5,-2,0,-4,3,-1,-119,26,137,-14,78,213,0,0,0,105,112,109,112,1,5156
59.252877951,-2,-5,0,-5,-2,0,-4,3,-1,-119,26,137,-14,78,213,0,0,0,108,112,105,114,1,5157
59.26433897,-2,-4,0,-5,-2,0,-4,4,-2,-119,26,137,-14,78,213,0,0,0,108,112,105,114,1,5158
59.284452915,0,-7,0,-3,-3,0,-4,4,-2,-113,90,118,-25,115,216,0,0,0,106,112,111,109,1,5159
59.294796944,0,-9,0,-1,-4,0,0,1,-1,-54,10,57,-92,56,178,0,0,0,106,112,111,109,1,5160
59.305757999,0,-9,0,-1,-4,0,0,1,-1,-54,10,57,-92,56,178,0,0,0,114,105,110,110,1,5161
59.316645861,0,-9,0,-1,-4,0,2,-2,0,-54,10,57,-92,56,178,0,0,0,114,105,110,110,1,5162
59.336763859,2,-7,0,-1,-7,0,2,-2,0,153,163,230,-125,20,114,0,0,0,105,115,105,114,1,5163
59.347662926,0,-7,0,0,-9,0,2,-2,0,-87,-69,232,-59,50,94,0,0,0,105,115,105,114,1,5164
59.358682871,0,-7,0,0,-9,0,2,-2,0,-87,-69,232,-59,50,94,0,0,0,111,107,120,100,1,5165
59.36977005,0,-7,0,0,-8,0,0,0,0,-87,-69,232,-59,50,94,0,0,0,111,107,120,100,1,5166
59.394569874,0,-4,0,2,-7,0,0,0,0,184,-34,5,45,76,154,0,0,0,110,110,107,110,1,5167
59.400902986,2,-3,0,2,-5,0,0,2,0,74,221,40,93,42,246,0,0,0,110,110,107,110,1,5168
59.411884069,2,-3,0,2,-5,0,0,2,0,74,221,40,93,42,246,0,0,0,106,113,108,111,1,5169
59.42365694,2,-3,0,2,-5,0,0,2,0,74,221,40,93,42,246,0,0,0,106,113,108,111,1,5170
59.442733049,1,-3,0,2,-4,0,0,2,0,-3,-73,186,82,3,35,0,0,0,113,106,105,115,1,5171
59.453736067,1,-4,0,2,-2,0,1,0,0,-64,18,193,62,25,14,0,0,0,108,112,108,109,1,5172
59.464732885,1,-4,0,2,-2,0,1,0,0,-64,18,193,62,25,14,0,0,0,108,112,108,109,1,5173
59.475841999,1,-4,0,2,-2,0,0,-3,0,-64,18,193,62,25,14,0,0,0,118,100,114,106,1,5174
59.495809078,0,-5,0,3,-2,0,0,-3,0,-119,-149,61,24,54,224,0,0,0,114,104,111,109,1,5175
59.506685972,0,-5,0,3,-3,0,-1,-3,0,12,-39,112,-47,0,212,0,0,0,114,104,111,109,1,5176
59.517941952,0,-5,0,3,-3,0,-1,-3,0,12,-39,112,-47,0,212,0,0,0,103,114,107,115,1,5177
59.531584978,0,-4,0,3,-2,0,-2,-1,0,12,-39,112,-47,0,212,0,0,0,103,114,107,115,1,5178
59.551877975,0,-3,0,1,-4,0,-2,-1,0,120,23,40,-90,-89,8,0,0,0,104,113,118,103,1,5179
59.559671879,2,0,0,0,-4,0,-1,1,-1,122,138,92,-36,-93,76,0,0,0,104,113,118,103,1,5180
59.570679903,2,0,0,0,-4,0,-1,1,-1,122,138,92,-36,-93,76,0,0,0,121,99,105,113,1,5181
59.581855059,2,0,0,0,-3,0,0,2,-1,122,138,92,-36,-93,76,0,0,0,121,99,105,113,1,5182
59.602828979,0,2,0,0,-2,0,0,0,0,69,-50,-30,81,2,51,0,0,0,100,119,104,115,1,5183
59.613708973,0,6,0,2,0,0,-1,-1,3,147,-28,89,152,86,158,0,0,0,100,119,104,115,1,5184
59.624760866,0,6,0,2,0,0,-1,-1,3,147,-28,89,152,86,158,0,0,0,111,109,113,106,1,5185
59.639649868,0,6,0,1,0,0,0,-3,3,147,-28,89,152,86,158,0,0,0,111,109,113,106,1,5186
59.655711889,0,8,0,3,4,0,0,-3,3,197,152,23,138,65,12,0,0,0,102,117,111,109,1,5187
59.666713953,0,10,0,3,9,0,4,-1,0,36,-145,36,120,-3,28,0,0,0,102,117,114,105,1,5188
59.677895069,0,10,0,3,9,0,4,-1,0,36,-145,36,120,-3,28,0,0,0,107,113,114,104,1,5189
59.688821077,0,10,0,3,9,0,6,1,0,36,-145,36,120,-3,28,0,0,0,107,113,108,110,1,5190
59.708662987,0,12,0,2,12,0,6,1,0,82,-6,139,168,-21,190,0,0,0,116,102,111,109,1,5191
59.719743967,0,10,0,2,13,0,4,3,0,-87,-7,75,220,-8,58,0,0,0,116,102,111,109,1,5192
59.731502056,0,10,0,2,13,0,4,3,0,-87,-7,75,220,-8,58,0,0,0,112,107,105,114,1,5193
59.741908073,0,9,0,2,12,0,0,2,0,-87,-7,75,220,-8,58,0,0,0,112,107,105,114,1,5194
59.761635065,0,10,0,2,14,0,0,2,0,57,-22,232,159,-21,36,0,0,0,114,102,106,116,1,5195
59.772969961,-3,11,0,1,13,0,-5,-2,0,73,-157,196,15,-42,222,0,0,0,114,102,106,116,1,5196
59.78394103,-3,11,0,1,13,0,-5,-2,0,73,-157,196,15,-42,222,0,0,0,110,107,113,108,1,5197
59.794660091,-3,10,0,0,12,0,-6,-4,-1,73,-157,196,15,-42,222,0,0,0,110,107,113,108,1,5198
59.815775871,-2,8,0,0,11,0,-4,-3,-2,-49,22,127,-54,-48,210,0,0,0,103,117,114,104,1,5199
59.826685905,-2,5,0,0,10,0,0,1,-1,-130,6,10,-5,-56,218,0,0,0,103,117,114,104,1,5200
59.837688923,-2,5,0,0,10,0,0,1,-1,-130,6,10,-5,-56,218,0,0,0,108,111,108,112,1,5201
59.853371858,-1,5,0,0,9,0,3,3,0,-130,6,10,-5,-56,218,0,0,0,108,111,108,112,1,5202
59.869132995,-1,2,0,-1,9,0,3,3,0,-166,1,237,17,-49,197,0,0,0,105,115,109,108,1,5203
59.879611969,-1,2,0,-1,7,0,5,2,1,-37,2,240,-72,-9,191,0,0,0,113,106,110,109,1,5204
59.89071393,-1,2,0,-1,7,0,5,2,1,-37,2,240,-72,-9,191,0,0,0,113,106,110,109,1,5205
59.901930094,-1,1,0,-1,7,0,4,0,0,-37,2,240,-72,-9,191,0,0,0,108,112,110,109,1,5206
59.921885013,-3,-1,0,-1,4,0,4,0,0,-60,-30,30,-161,24,224,0,0,0,109,111,109,110,1,5207
59.93276906,-3,-1,0,-1,2,0,1,0,0,-5,0,172,-133,12,222,0,0,0,109,111,109,110,1,5208
59.94765687,-3,-1,0,-1,2,0,1,0,0,-5,0,172,-133,12,222,0,0,0,109,109,114,105,1,5209
59.954768896,-2,-1,0,-1,2,0,0,0,0,-5,0,172,-133,12,222,0,0,0,109,109,114,105,1,5210
59.974803924,-3,-2,0,-1,1,0,0,0,0,-38,-42,196,-35,-19,154,0,0,0,114,105,110,109,1,5211
59.985754013,-5,-2,0,-2,1,0,0,2,0,9,-201,63,13,-38,109,0,0,0,114,105,110,109,1,5212
59.996774912,-5,-2,0,-2,1,0,0,2,0,9,-201,63,13,-38,109,0,0,0,110,108,108,111,1,5213
60.007731914,-5,-2,0,-2,1,0,-1,2,0,9,-201,63,13,-38,109,0,0,0,110,108,108,111,1,5214
60.028831005,-4,-3,0,-3,1,0,-2,0,0,-105,27,8,-8,-56,171,0,0,0,110,111,103,115,1,5215
60.039720058,-6,-2,0,-4,0,0,-1,-2,-1,43,-105,200,-41,-88,23,0,0,0,110,111,103,115,1,5216
60.050787926,-6,-2,0,-4,0,0,-1,-2,-1,43,-105,200,-41,-88,23,0,0,0,109,110,114,106,1,5217
60.062022924,-5,-2,0,-4,0,0,0,-3,0,43,-105,200,-41,-88,23,0,0,0,109,110,114,106,1,5218
60.081671953,-3,0,0,-5,0,0,0,-3,0,222,208,224,-35,-87,55,0,0,0,111,110,105,113,1,5219
60.092827082,-3,0,0,-5,0,0,0,-2,0,-15,-13,244,24,-17,249,0,0,0,109,111,107,112,1,5220
60.10363388,-3,0,0,-5,0,0,0,-2,0,-15,-13,244,24,-17,249,0,0,0,109,111,107,112,1,5221
60.114717007,-3,0,0,-4,0,0,0,-1,0,-15,-13,244,24,-17,249,0,0,0,110,111,110,107,1,5222
60.134757042,-2,1,0,-3,2,0,0,-1,1,76,5,210,103,71,193,0,0,0,105,111,111,110,1,5223
60.145974874,-3,3,0,-1,4,0,0,-1,0,32,-13,43,120,89,197,0,0,0,105,111,111,110,1,5224
60.158398867,-3,3,0,-1,4,0,0,-1,0,32,-13,43,120,89,197,0,0,0,114,106,105,112,1,5225
60.168344021,-3,3,0,-1,3,0,1,0,0,32,-13,43,120,89,197,0,0,0,114,106,105,112,1,5226
60.191673994,-5,4,0,-1,4,0,1,0,0,56,-84,118,62,22,199,0,0,0,104,114,112,107,1,5227
60.199032068,-5,3,0,-2,4,0,1,0,0,-102,-30,16,10,-52,145,0,0,0,104,114,112,107,1,5228
60.209799051,-5,3,0,-2,4,0,1,0,0,-102,-30,16,10,-52,145,0,0,0,106,111,113,108,1,5229
60.22072792,-5,2,0,-2,4,0,1,0,0,-102,-30,16,10,-52,145,0,0,0,106,111,113,108,1,5230
60.241808891,-7,3,0,-4,4,0,2,0,-1,72,-239,253,2,-77,108,0,0,0,113,107,104,115,1,5231
60.255510092,-9,0,0,-6,4,0,3,0,-1,-123,-90,114,-1,-88,167,0,0,0,113,107,104,115,1,5232
60.264752865,-9,0,0,-6,4,0,3,0,-1,-123,-90,114,-1,-88,167,0,0,0,116,103,113,105,1,5233
60.274739027,-8,0,0,-5,3,0,0,0,0,-123,-90,114,-1,-88,167,0,0,0,116,103,113,105,1,5234
60.296280861,-11,0,0,-7,3,0,0,0,0,11,-120,121,-24,-125,245,0,0,0,109,112,101,117,1,5235
60.305847883,-9,2,0,-9,2,0,-3,-2,0,70,69,200,-39,-149,220,0,0,0,108,111,115,103,1,5236
60.317214966,-9,2,0,-9,2,0,-3,-2,0,70,69,200,-39,-149,220,0,0,0,108,111,115,103,1,5237
60.328016996,-8,1,0,-8,2,0,-4,-2,1,70,69,200,-39,-149,220,0,0,0,105,116,106,112,1,5238
60.347913027,-7,3,0,-11,1,0,-4,-2,1,103,101,230,-17,-96,135,0,0,0,107,113,108,110,1,5239
60.358860969,-6,0,0,-9,2,0,0,-1,1,-154,52,230,36,17,128,0,0,0,107,113,108,110,1,5240
60.373483896,-6,0,0,-9,2,0,0,-1,1,-154,52,230,36,17,128,0,0,0,110,109,112,108,1,5241
60.380855083,-5,0,0,-9,2,0,4,0,0,-154,52,230,36,17,128,0,0,0,110,109,112,108,1,5242
60.40099597,-5,1,0,-7,3,0,4,0,0,67,-1,6,59,103,210,0,0,0,108,107,116,107,1,5243
60.411701918,-10,1,0,-5,3,0,4,1,0,16,-251,98,11,84,13,0,0,0,108,107,116,107,1,5244
60.422805071,-10,1,0,-5,3,0,4,1,0,16,-251,98,11,84,13,0,0,0,106,113,104,114,1,5245
60.434429884,-9,1,0,-5,3,0,1,1,-1,16,-251,98,11,84,13,0,0,0,106,113,104,114,1,5246
60.454756975,-7,5,0,-5,2,0,0,1,-1,134,52,68,-31,-24,236,0,0,0,108,112,115,103,1,5247
60.466799021,-5,9,0,-7,2,0,0,1,0,190,94,99,17,-117,143,0,0,0,108,112,115,103,1,5248
60.476935863,-5,9,0,-7,2,0,0,1,0,190,94,99,17,-117,143,0,0,0,111,108,105,114,1,5249
60.487765074,-4,8,0,-7,2,0,0,1,1,190,94,99,17,-117,143,0,0,0,111,108,105,114,1,5250
60.508189916,-6,7,0,-9,5,0,0,1,1,-46,-96,208,117,-89,72,0,0,0,111,107,110,110,1,5251
60.518940925,-7,9,0,-8,9,0,0,0,0,162,-90,214,155,15,84,0,0,0,111,107,109,110,1,5252
60.529674053,-7,9,0,-8,9,0,0,0,0,162,-90,214,155,15,84,0,0,0,117,101,110,110,1,5253
60.540767908,-7,8,0,-8,8,0,-1,0,0,162,-90,214,155,15,84,0,0,0,117,101,107,113,1,5254
60.563497066,-8,8,0,-7,11,0,-1,0,0,-27,-92,18,100,35,166,0,0,0,109,113,107,110,1,5255
60.571747064,-6,8,0,-7,10,0,-4,-1,0,54,87,97,33,-58,250,0,0,0,109,113,107,110,1,5256
60.582750082,-6,8,0,-7,10,0,-4,-1,0,54,87,97,33,-58,250,0,0,0,104,113,118,103,1,5257
60.595785856,-6,7,0,-7,10,0,-3,0,0,54,87,97,33,-58,250,0,0,0,104,113,118,103,1,5258
60.613775968,-6,6,0,-8,10,0,-3,0,0,-124,-22,76,14,-109,40,0,0,0,100,118,107,113,1,5259
60.624887943,-7,7,0,-8,9,0,1,1,0,123,-173,88,9,-41,65,0,0,0,100,118,107,113,1,5260
60.635870933,-7,7,0,-8,9,0,1,1,0,123,-173,88,9,-41,65,0,0,0,110,112,112,104,1,5261
60.64786005,-7,6,0,-7,9,0,7,2,0,123,-173,88,9,-41,65,0,0,0,110,112,112,104,1,5262
60.666671991,-7,5,0,-7,9,0,7,2,0,-69,-35,0,-9,17,85,0,0,0,114,105,105,114,1,5263
60.677665949,-6,3,0,-7,8,0,6,1,0,-67,4,129,-17,-36,73,0,0,0,114,105,105,114,1,5264
60.688903093,-6,3,0,-7,8,0,6,1,0,-67,4,129,-17,-36,73,0,0,0,105,113,106,114,1,5265
60.699668884,-6,3,0,-6,7,0,1,-1,0,-67,4,129,-17,-36,73,0,0,0,105,113,106,114,1,5266
60.720665932,-3,2,0,-7,6,0,-2,-3,0,-37,163,183,-14,-97,9,0,0,0,121,99,111,106,1,5267
60.731642008,-2,1,0,-8,5,0,-4,-2,-1,-48,8,65,-34,-33,184,0,0,0,121,99,111,106,1,5268
60.743488073,-2,1,0,-8,5,0,-4,-2,-1,-48,8,65,-34,-33,184,0,0,0,111,108,108,111,1,5269
60.753650904,-2,1,0,-7,5,0,-5,0,-1,-48,8,65,-34,-33,184,0,0,0,111,108,108,111,1,5270
60.773761034,-2,1,0,-5,3,0,-5,0,-1,-28,48,253,-61,92,166,0,0,0,113,107,115,103,1,5271
60.785783052,-2,0,0,-3,2,0,-6,1,0,-111,-23,17,-60,123,233,0,0,0,113,107,115,103,1,5272
60.799504042,-2,0,0,-3,2,0,-6,1,0,-111,-23,17,-60,123,233,0,0,0,107,113,115,103,1,5273
60.808485985,-2,0,0,-3,2,0,-4,3,2,-111,-23,17,-60,123,233,0,0,0,107,113,115,103,1,5274
60.830533981,0,1,0,-2,2,0,-4,3,2,198,115,16,-39,45,48,0,0,0,100,121,102,115,1,5275
60.837698936,0,3,0,-2,1,0,0,4,2,83,0,160,-6,-11,43,0,0,0,100,121,102,115,1,5276
60.849030018,0,3,0,-2,1,0,0,4,2,83,0,160,-6,-11,43,0,0,0,109,111,108,110,1,5277
60.861814022,0,3,0,-2,1,0,5,2,1,83,0,160,-6,-11,43,0,0,0,109,111,108,110,1,5278
60.879858971,-1,6,0,-1,2,0,5,2,1,137,-49,158,59,14,240,0,0,0,108,111,113,106,1,5279
60.891639948,0,5,0,0,5,0,7,0,1,-21,101,43,129,48,187,0,0,0,108,111,113,106,1,5280
60.901829958,0,5,0,0,5,0,7,0,1,-21,101,43,129,48,187,0,0,0,108,111,114,105,1,5281
60.912988901,0,5,0,0,4,0,4,0,0,-21,101,43,129,48,187,0,0,0,108,111,114,105,1,5282
60.933719873,-1,4,0,0,6,0,0,2,-1,-31,-156,58,126,24,183,0,0,0,114,105,107,112,1,5283
60.94481492,-3,6,0,0,6,0,-2,3,-2,146,-150,221,43,-28,236,0,0,0,114,105,107,112,1,5284
60.955766916,-3,6,0,0,6,0,-2,3,-2,146,-150,221,43,-28,236,0,0,0,110,107,109,111,1,5285
60.966593027,-3,5,0,0,6,0,-3,1,-1,146,-150,221,43,-28,236,0,0,0,110,107,109,111,1,5286
60.987658024,-6,6,0,-1,5,0,-2,-2,0,38,-91,59,-15,-79,33,0,0,0,112,109,111,107,1,5287
60.998921871,-5,3,0,-3,5,0,-1,-4,0,-81,37,129,17,-122,254,0,0,0,110,108,101,119,1,5288
61.009762049,-5,3,0,-3,5,0,-1,-4,0,-81,37,129,17,-122,254,0,0,0,110,108,101,119,1,5289
61.02060008,-5,3,0,-3,5,0,-1,-3,0,-81,37,129,17,-122,254,0,0,0,116,104,113,104,1,5290
61.040740013,-5,2,0,-5,6,0,-1,-3,0,-51,-24,164,61,-112,142,0,0,0,114,107,109,108,1,5291
61.05200386,-7,1,0,-7,6,0,-2,-2,0,-85,-146,64,12,-41,77,0,0,0,114,107,109,108,1,5292
61.062752962,-7,1,0,-7,6,0,-2,-2,0,-85,-146,64,12,-41,77,0,0,0,113,109,109,107,1,5293
61.073955059,-6,1,0,-6,6,0,-3,-1,1,-85,-146,64,12,-41,77,0,0,0,113,109,109,107,1,5294
61.093705892,-6,0,0,-6,4,0,-3,-1,1,-34,-8,16,-81,1,144,0,0,0,101,118,112,107,1,5295
61.106922865,-4,1,0,-6,2,0,-2,0,1,33,126,45,-105,-32,16,0,0,0,101,118,112,107,1,5296
61.115761995,-4,1,0,-6,2,0,-2,0,1,33,126,45,-105,-32,16,0,0,0,100,119,112,106,1,5297
61.126805067,-4,1,0,-6,2,0,2,3,1,33,126,45,-105,-32,16,0,0,0,100,119,112,106,1,5298
61.147727966,-3,2,0,-6,1,0,8,4,0,129,-5,120,-40,-53,83,0,0,0,112,106,111,110,1,5299
61.158698082,-2,3,0,-5,2,0,9,4,0,70,57,82,47,13,75,0,0,0,112,106,111,110,1,5300
61.169764042,-2,3,0,-5,2,0,9,4,0,70,57,82,47,13,75,0,0,0,105,112,114,107,1,5301
61.180155992,-2,2,0,-5,2,0,4,3,0,70,57,82,47,13,75,0,0,0,105,112,114,107,1,5302
61.200741053,-2,4,0,-4,3,0,4,3,0,77,22,210,101,84,62,0,0,0,113,105,107,112,1,5303
61.211869001,0,4,0,-3,4,0,0,2,-1,4,72,114,103,73,56,0,0,0,116,101,107,114,1,5304
61.222716093,0,4,0,-3,4,0,0,2,-1,4,72,114,103,73,56,0,0,0,116,101,107,114,1,5305
61.233721971,0,3,0,-3,3,0,-2,0,-1,4,72,114,103,73,56,0,0,0,113,109,102,115,1,5306
61.253761053,0,4,0,-2,4,0,-2,0,-1,37,-18,218,67,25,2,0,0,0,114,108,104,113,1,5307
61.265104055,0,5,0,-2,5,0,-4,-2,0,63,-9,228,28,13,171,0,0,0,114,108,104,113,1,5308
61.275708914,0,5,0,-2,5,0,-4,-2,0,63,-9,228,28,13,171,0,0,0,109,112,110,107,1,5309
61.289201021,0,4,0,-2,4,0,-4,-5,1,63,-9,228,28,13,171,0,0,0,109,112,110,107,1,5310
61.306629896,0,6,0,-1,5,0,-4,-5,1,157,0,44,23,18,147,0,0,0,105,113,107,113,1,5311
61.317718029,0,7,0,-1,6,0,-2,-4,2,52,-34,235,63,3,215,0,0,0,105,113,107,113,1,5312
61.328698873,0,7,0,-1,6,0,-2,-4,2,52,-34,235,63,3,215,0,0,0,110,111,115,102,1,5313
61.339719057,0,6,0,-1,5,0,1,-1,1,52,-34,235,63,3,215,0,0,0,110,111,115,102,1,5314
61.359637022,-1,5,0,-1,6,0,3,3,0,-69,-80,76,104,-23,35,0,0,0,108,110,107,113,1,5315
61.370713949,0,3,0,-1,7,0,1,5,-1,-116,67,77,79,-37,51,0,0,0,108,110,107,113,1,5316
61.381633043,0,3,0,-1,7,0,1,5,-1,-116,67,77,79,-37,51,0,0,0,103,116,105,115,1,5317
61.39271307,0,3,0,-1,6,0,0,2,-1,-116,67,77,79,-37,51,0,0,0,103,116,105,115,1,5318
61.413789034,0,3,0,-1,6,0,1,-2,-1,-7,48,97,-19,-29,42,0,0,0,115,105,116,102,1,5319
61.425033092,-1,2,0,-1,4,0,2,-4,0,-7,-58,6,-103,2,60,0,0,0,114,104,110,111,1,5320
61.435678005,-1,2,0,-1,4,0,2,-4,0,-7,-58,6,-103,2,60,0,0,0,114,104,110,111,1,5321
61.446933985,-1,2,0,-1,4,0,0,0,0,-7,-58,6,-103,2,60,0,0,0,113,109,113,103,1,5322
61.466894865,0,0,0,-1,3,0,0,0,0,-164,19,219,-91,32,78,0,0,0,113,108,111,105,1,5323
61.479686022,-1,0,0,0,2,0,-4,4,0,-13,-15,123,-37,20,42,0,0,0,113,108,111,105,1,5324
61.489213943,-1,0,0,0,2,0,-4,4,0,-13,-15,123,-37,20,42,0,0,0,108,110,109,111,1,5325
61.499837875,-1,0,0,0,2,0,-4,4,0,-13,-15,123,-37,20,42,0,0,0,108,110,109,111,1,5326
61.519685984,0,0,0,-1,1,0,-4,4,0,31,54,115,-34,-13,212,0,0,0,102,119,106,111,1,5327
61.530879974,2,2,0,-1,0,0,0,1,1,60,60,146,-55,-12,132,0,0,0,102,119,106,111,1,5328
61.541883945,2,2,0,-1,0,0,0,1,1,60,60,146,-55,-12,132,0,0,0,115,105,111,107,1,5329
61.555727959,1,1,0,-1,0,0,3,-1,1,60,60,146,-55,-12,132,0,0,0,115,105,111,107,1,5330
61.573741913,1,2,0,0,0,0,3,-1,0,56,13,2,-15,29,109,0,0,0,118,101,107,112,1,5331
61.584739923,0,2,0,1,0,0,-1,0,-1,14,-128,255,60,55,149,0,0,0,118,101,107,112,1,5332
61.599652052,0,2,0,1,0,0,-1,0,-1,14,-128,255,60,55,149,0,0,0,105,114,117,102,1,5333
61.606678009,0,2,0,1,0,0,-5,0,-2,14,-128,255,60,55,149,0,0,0,105,114,117,102,1,5334
61.628242016,-2,4,0,1,2,0,-5,0,-2,187,-244,242,88,10,221,0,0,0,117,101,107,113,1,5335
61.637837887,-2,5,0,0,3,0,-5,1,-1,123,24,76,74,-94,17,0,0,0,117,101,107,113,1,5336
61.648792028,-2,5,0,0,3,0,-5,1,-1,123,24,76,74,-94,17,0,0,0,110,109,106,113,1,5337
61.663999081,-2,5,0,0,2,0,-3,1,0,123,24,76,74,-94,17,0,0,0,110,109,106,113,1,5338
61.680068016,-3,8,0,-2,4,0,-3,1,0,15,-102,22,95,-170,29,0,0,0,108,111,105,114,1,5339
61.691546917,-2,9,0,-3,5,0,-2,-1,0,96,32,245,166,-134,27,0,0,0,108,111,105,114,1,5340
61.701783895,-2,9,0,-3,5,0,-2,-1,0,96,32,245,166,-134,27,0,0,0,107,111,109,111,1,5341
61.712671995,-2,8,0,-3,5,0,-1,-4,0,96,32,245,166,-134,27,0,0,0,107,111,109,111,1,5342
61.732970953,-1,8,0,-3,7,0,-1,-4,0,35,45,89,208,-31,29,0,0,0,113,108,120,96,1,5343
61.743788957,-1,8,0,-3,9,0,0,-2,0,28,40,29,160,37,32,0,0,0,113,108,120,96,1,5344
61.754981041,-1,8,0,-3,9,0,0,-2,0,28,40,29,160,37,32,0,0,0,113,108,112,105,1,5345
61.766032934,-1,8,0,-2,8,0,0,3,1,28,40,29,160,37,32,0,0,0,113,108,112,105,1,5346
61.786818027,0,10,0,-2,9,0,0,8,2,206,88,7,64,48,36,0,0,0,110,108,110,110,1,5347
61.797734976,0,9,0,-1,8,0,0,7,1,-8,-11,181,26,46,37,0,0,0,110,108,110,110,1,5348
61.808600902,0,9,0,-1,8,0,0,7,1,-8,-11,181,26,46,37,0,0,0,106,114,110,108,1,5349
61.819719076,0,8,0,-1,8,0,0,2,0,-8,-11,181,26,46,37,0,0,0,106,114,110,108,1,5350
61.839675903,2,9,0,0,9,0,0,2,0,81,147,220,72,52,11,0,0,0,110,107,108,112,1,5351
61.850903988,0,6,0,0,10,0,1,0,-1,-153,-109,144,102,56,215,0,0,0,109,110,107,112,1,5352
61.861746073,0,6,0,0,10,0,1,0,-1,-153,-109,144,102,56,215,0,0,0,109,110,108,111,1,5353
61.874971866,0,5,0,0,9,0,0,0,0,-153,-109,144,102,56,215,0,0,0,111,108,108,111,1,5354
61.892966032,0,6,0,1,10,0,0,0,0,78,22,32,40,41,178,0,0,0,110,109,109,110,1,5355
61.904073954,0,7,0,1,8,0,0,0,0,53,-4,222,-44,5,186,0,0,0,110,109,109,110,1,5356
61.914834976,0,7,0,1,8,0,0,0,0,53,-4,222,-44,5,186,0,0,0,110,109,112,107,1,5357
61.927506924,0,6,0,1,8,0,0,-1,0,53,-4,222,-44,5,186,0,0,0,110,109,112,107,1,5358
61.945754051,0,6,0,0,7,0,0,-1,0,-14,-44,240,-42,-26,225,0,0,0,113,105,107,113,1,5359
61.956855059,0,8,0,0,7,0,-1,0,0,156,-18,235,34,-29,255,0,0,0,113,105,107,113,1,5360
61.967679977,0,8,0,0,7,0,-1,0,0,156,-18,235,34,-29,255,0,0,0,109,110,108,111,1,5361
61.978698969,0,7,0,0,6,0,-2,0,0,156,-18,235,34,-29,255,0,0,0,109,110,108,111,1,5362
62.00364089,0,10,0,0,7,0,-1,-2,0,153,12,171,91,-16,248,0,0,0,105,114,112,108,1,5363
62.010735988,0,11,0,0,9,0,0,-3,0,207,-47,38,111,-12,222,0,0,0,105,114,112,108,1,5364
62.021719932,0,11,0,0,9,0,0,-3,0,207,-47,38,111,-12,222,0,0,0,112,108,108,110,1,5365
62.032919884,0,11,0,0,8,0,2,-2,0,207,-47,38,111,-12,222,0,0,0,112,108,108,110,1,5366
62.052795887,-2,10,0,0,10,0,2,-2,0,-53,-87,207,138,-18,210,0,0,0,110,110,109,109,1,5367
62.06597805,-4,8,0,0,12,0,2,0,0,-74,-130,221,143,-37,226,0,0,0,110,111,109,108,1,5368
62.07466793,-4,8,0,0,12,0,2,0,0,-74,-130,221,143,-37,226,0,0,0,110,111,109,108,1,5369
62.085777998,-3,7,0,0,11,0,0,1,0,-74,-130,221,143,-37,226,0,0,0,107,111,115,105,1,5370
62.10678792,-3,7,0,-2,11,0,0,1,1,-3,-7,150,60,-73,239,0,0,0,114,105,109,110,1,5371
62.119915008,-3,8,0,-3,9,0,0,1,0,102,6,4,-53,-96,221,0,0,0,114,105,109,110,1,5372
62.128777027,-3,8,0,-3,9,0,0,1,0,102,6,4,-53,-96,221,0,0,0,106,112,107,113,1,5373
62.139765978,-3,7,0,-3,9,0,0,1,0,102,6,4,-53,-96,221,0,0,0,106,112,107,113,1,5374
62.159813881,-5,5,0,-4,7,0,0,1,0,-99,-121,182,-69,-69,191,0,0,0,117,105,107,109,1,5375
62.170739889,-6,4,0,-4,7,0,-1,0,0,-115,-156,136,1,-28,196,0,0,0,117,105,107,109,1,5376
62.18188405,-6,4,0,-4,7,0,-1,0,0,-115,-156,136,1,-28,196,0,0,0,111,108,114,105,1,5377
62.192873955,-6,4,0,-4,6,0,-2,-1,0,-115,-156,136,1,-28,196,0,0,0,111,108,114,105,1,5378
62.212650061,-7,4,0,-5,7,0,-2,-1,0,16,-79,177,17,-50,244,0,0,0,105,114,110,109,1,5379
62.223705053,-8,4,0,-6,6,0,-2,0,1,0,-35,177,-52,-119,29,0,0,0,105,114,110,109,1,5380
62.234797954,-8,4,0,-6,6,0,-2,0,1,0,-35,177,-52,-119,29,0,0,0,116,103,112,107,1,5381
62.245732069,-7,3,0,-6,5,0,-1,2,0,0,-35,177,-52,-119,29,0,0,0,116,103,112,107,1,5382
62.27183795,-4,4,0,-7,4,0,0,2,0,31,150,198,-81,-128,10,0,0,0,103,115,108,111,1,5383
62.276772976,-3,1,0,-7,3,0,0,0,0,-182,54,253,-20,-31,199,0,0,0,103,115,108,111,1,5384
62.288142919,-3,1,0,-7,3,0,0,0,0,-182,54,253,-20,-31,199,0,0,0,105,116,110,108,1,5385
62.298840046,-3,1,0,-6,3,0,1,-1,0,-182,54,253,-20,-31,199,0,0,0,105,116,110,108,1,5386
62.318791866,0,0,0,-4,3,0,1,-1,0,-162,182,232,11,92,168,0,0,0,110,109,104,115,1,5387
62.329742908,-2,-3,0,-2,2,0,4,-1,0,-176,-91,198,-73,144,208,0,0,0,110,109,104,115,1,5388
62.341008901,-2,-3,0,-2,2,0,4,-1,0,-176,-91,198,-73,144,208,0,0,0,109,110,111,107,1,5389
62.352007866,-1,-3,0,-2,1,0,4,-1,0,-176,-91,198,-73,144,208,0,0,0,109,110,111,107,1,5390
62.372660875,0,-4,0,0,0,0,4,-1,0,-44,48,83,-187,101,246,0,0,0,117,100,110,110,1,5391
62.383750915,0,-6,0,0,-3,0,0,-1,0,-159,-20,9,-199,20,215,0,0,0,117,100,110,110,1,5392
62.394824028,0,-6,0,0,-3,0,0,-1,0,-159,-20,9,-199,20,215,0,0,0,104,110,106,118,1,5393
62.405024052,0,-6,0,0,-3,0,-3,-2,-1,-159,-20,9,-199,20,215,0,0,0,104,110,106,118,1,5394
62.42791605,0,-4,0,-1,-5,0,-3,-2,-1,82,-19,135,-116,-29,154,0,0,0,109,110,116,104,1,5395
62.436753988,-1,-1,0,-1,-6,0,-4,-1,-3,252,-28,85,-27,-25,149,0,0,0,109,110,116,104,1,5396
62.447843075,-1,-1,0,-1,-6,0,-4,-1,-3,252,-28,85,-27,-25,149,0,0,0,117,103,105,113,1,5397
62.458765983,0,-1,0,-1,-5,0,-1,-1,-2,252,-28,85,-27,-25,149,0,0,0,117,103,105,113,1,5398
62.483540058,-2,0,0,-1,-4,0,0,0,0,53,-90,9,50,-11,212,0,0,0,99,121,111,106,1,5399
62.489942074,-2,2,0,-1,-2,0,0,1,3,234,-36,43,138,-28,24,0,0,0,99,121,111,106,1,5400
62.500936031,-2,2,0,-1,-2,0,0,1,3,234,-36,43,138,-28,24,0,0,0,116,105,109,109,1,5401
62.515583992,-2,2,0,-1,-2,0,2,1,3,234,-36,43,138,-28,24,0,0,0,116,105,109,109,1,5402
62.535418987,-3,4,0,-2,0,0,2,1,3,187,-68,42,196,-61,52,0,0,0,105,116,110,108,1,5403
62.54293108,-3,5,0,-3,2,0,3,1,2,60,-34,188,189,-73,41,0,0,0,109,111,110,108,1,5404
62.553857088,-3,5,0,-3,2,0,3,1,2,60,-34,188,189,-73,41,0,0,0,109,111,116,103,1,5405
62.564977884,-3,4,0,-2,2,0,2,1,0,60,-34,188,189,-73,41,0,0,0,108,108,118,104,1,5406
62.584740877,-1,5,0,-3,4,0,2,1,0,29,168,26,150,-50,13,0,0,0,107,109,108,114,1,5407
62.596036911,0,2,0,-3,5,0,1,2,0,-209,144,177,91,6,241,0,0,0,107,109,108,114,1,5408
62.606761932,0,2,0,-3,5,0,1,2,0,-209,144,177,91,6,241,0,0,0,111,106,111,109,1,5409
62.617897987,0,1,0,-2,5,0,0,2,-1,-209,144,177,91,6,241,0,0,0,111,106,111,109,1,5410
62.638072014,0,1,0,-1,4,0,0,2,-1,-50,-32,16,-5,85,225,0,0,0,116,104,102,117,1,5411
62.648910045,0,-2,0,0,2,0,0,0,-2,-194,6,164,-112,128,222,0,0,0,116,104,102,117,1,5412
62.659756899,0,-2,0,0,2,0,0,0,-2,-194,6,164,-112,128,222,0,0,0,101,118,110,109,1,5413
62.670773983,0,-2,0,0,2,0,-2,-3,-1,-194,6,164,-112,128,222,0,0,0,101,118,110,109,1,5414
62.691915989,0,-5,0,1,0,0,0,-4,0,-122,-52,72,-165,74,217,0,0,0,111,107,114,106,1,5415
62.702754974,0,-4,0,1,-2,0,2,-1,1,75,138,27,-147,-20,188,0,0,0,111,107,114,106,1,5416
62.715538978,0,-4,0,1,-2,0,2,-1,1,75,138,27,-147,-20,188,0,0,0,109,109,109,111,1,5417
62.725293875,0,-4,0,1,-2,0,3,1,0,75,138,27,-147,-20,188,0,0,0,109,109,109,111,1,5418
62.74474597,0,-3,0,0,-4,0,3,1,0,71,-116,253,-85,-44,156,0,0,0,109,110,118,102,1,5419
62.761364937,-2,-2,0,0,-4,0,0,3,0,10,-116,27,0,1,180,0,0,0,109,112,105,112,1,5420
62.766995907,-2,-2,0,0,-4,0,0,3,0,10,-116,27,0,1,180,0,0,0,109,112,105,112,1,5421
62.77779293,-2,-2,0,0,-3,0,0,3,0,10,-116,27,0,1,180,0,0,0,103,115,109,111,1,5422
62.797827959,-2,-4,0,0,-2,0,1,2,0,-115,-25,184,65,3,254,0,0,0,113,106,109,111,1,5423
62.808985948,-1,-3,0,0,-1,0,4,0,0,35,30,63,46,-65,37,0,0,0,113,106,109,111,1,5424
62.823493957,-1,-3,0,0,-1,0,4,0,0,35,30,63,46,-65,37,0,0,0,105,114,113,106,1,5425
62.83071208,-1,-3,0,0,-1,0,4,-1,0,35,30,63,46,-65,37,0,0,0,105,114,113,106,1,5426
62.851402044,0,-4,0,-1,-2,0,4,-1,0,-109,60,45,-36,-89,11,0,0,0,110,108,110,111,1,5427
62.861876011,0,-5,0,-1,-3,0,2,0,-1,-50,0,75,-84,-11,251,0,0,0,110,108,110,111,1,5428
62.872750044,0,-5,0,-1,-3,0,2,0,-1,-50,0,75,-84,-11,251,0,0,0,108,110,115,105,1,5429
62.883914947,0,-4,0,-1,-2,0,0,2,-1,-50,0,75,-84,-11,251,0,0,0,108,110,115,105,1,5430
62.904994011,2,-6,0,0,-3,0,0,3,0,-138,198,140,-71,75,30,0,0,0,106,113,104,115,1,5431
62.915678024,3,-9,0,0,-4,0,-1,2,0,-142,45,130,-65,96,44,0,0,0,106,113,104,115,1,5432
62.927218914,3,-9,0,0,-4,0,-1,2,0,-142,45,130,-65,96,44,0,0,0,117,103,107,112,1,5433
62.937828064,2,-8,0,0,-3,0,-1,0,1,-142,45,130,-65,96,44,0,0,0,117,103,107,112,1,5434
62.957823992,3,-9,0,1,-5,0,-1,0,1,-40,67,250,-101,87,232,0,0,0,101,119,107,111,1,5435
62.968735933,3,-9,0,3,-7,0,0,-3,1,-90,-45,51,-129,84,150,0,0,0,109,111,107,111,1,5436
62.97971487,3,-9,0,3,-7,0,0,-3,1,-90,-45,51,-129,84,150,0,0,0,109,111,113,106,1,5437
62.990781069,2,-9,0,3,-7,0,2,-3,0,-90,-45,51,-129,84,150,0,0,0,113,106,113,106,1,5438
63.010706901,1,-8,0,4,-9,0,2,-3,0,45,-69,242,-103,55,170,0,0,0,110,109,107,112,1,5439
63.021816969,2,-8,0,3,-9,0,3,0,0,-95,60,78,-43,-9,13,0,0,0,110,109,107,112,1,5440
63.037497997,2,-8,0,3,-9,0,3,0,0,-95,60,78,-43,-9,13,0,0,0,108,111,113,106,1,5441
63.043669939,2,-8,0,3,-8,0,2,1,0,-95,60,78,-43,-9,13,0,0,0,108,111,113,106,1,5442
63.06763196,0,-7,0,2,-8,0,2,1,0,80,-85,243,-5,-53,72,0,0,0,105,113,106,113,1,5443
63.074877977,1,-5,0,2,-8,0,0,0,0,42,34,196,0,-38,45,0,0,0,105,113,106,113,1,5444
63.085926056,1,-5,0,2,-8,0,0,0,0,42,34,196,0,-38,45,0,0,0,106,112,101,119,1,5445
63.098512888,1,-5,0,2,-7,0,1,-1,0,42,34,196,0,-38,45,0,0,0,106,112,101,119,1,5446
63.11777401,1,-5,0,1,-6,0,3,-4,0,-9,-8,142,8,-2,243,0,0,0,114,106,110,109,1,5447
63.131593943,1,-6,0,1,-5,0,2,-4,0,-46,-1,159,30,6,194,0,0,0,114,106,110,109,1,5448
63.140259981,1,-6,0,1,-5,0,2,-4,0,-46,-1,159,30,6,194,0,0,0,111,108,111,108,1,5449
63.150989056,0,-5,0,1,-5,0,-1,-2,0,-46,-1,159,30,6,194,0,0,0,111,108,111,108,1,5450
63.170733929,4,-5,0,1,-4,0,-1,-2,0,12,149,104,24,3,157,0,0,0,119,102,115,102,1,5451
63.181808948,4,-2,0,2,-4,0,-4,1,1,226,-17,30,-6,22,137,0,0,0,114,107,111,107,1,5452
63.192725897,4,-2,0,2,-4,0,-4,1,1,226,-17,30,-6,22,137,0,0,0,114,107,111,107,1,5453
