TiempoEjecucion,AnguloPitch,AnguloRoll,AnguloYaw,G_Pitch,G_Roll,G_Yaw,G_Pitch_filtrada,G_Roll_filtrada,G_Yaw_filtrada,Ax,Ay,Az,Ax_filtrada,Ay_filtrada,Az_filtrada,posZ,posZ_filtrada,velZ,motorDelantero,motorTrasero,motorDerecho,motorIzquierdo,EstadoEncendido,MensajesRecibidos
39.465935945,-4,1,-19,-4,6,0,-6,-1,-1,11,-30,227,10,-15,226,107,45,0,0,0,0,0,0,3018
39.476016998,-4,1,-19,-4,8,0,-6,0,-1,9,-31,226,10,-15,226,107,45,0,0,0,0,0,0,3019
39.486031055,-4,1,-19,-3,9,0,-6,2,-1,9,-30,226,10,-15,226,107,45,0,0,0,0,0,0,3020
39.499879122,-4,1,-19,-3,9,0,-5,4,-1,5,-28,225,10,-16,226,107,45,0,0,0,0,0,0,3021
39.51080513,-4,1,-19,-2,10,1,-5,5,0,4,-25,220,10,-16,226,107,45,0,0,0,0,0,0,3022
39.520882129,-4,1,-19,-1,11,1,-4,7,0,3,-23,225,9,-16,226,107,45,0,0,0,0,0,0,3023
39.534925937,-4,1,-19,0,12,1,-3,8,0,-1,-22,223,9,-17,226,107,45,0,0,0,0,0,0,3024
39.544981003,-4,2,-19,0,12,1,-3,9,0,3,-22,227,9,-17,226,107,45,0,0,0,0,0,0,3025
39.555837154,-4,2,-19,0,12,1,-2,10,1,1,-22,226,9,-17,226,107,45,0,0,0,0,0,0,3026
39.569967031,-4,2,-19,1,13,2,-2,11,1,2,-21,226,9,-17,226,107,45,0,0,0,0,0,0,3027
39.579972028,-4,2,-19,1,12,3,-1,12,1,2,-20,225,8,-18,226,107,45,0,0,0,0,0,0,3028
39.590004921,-4,2,-19,1,12,3,0,12,1,0,-22,224,8,-18,226,107,45,0,0,0,0,0,0,3029
39.604069948,-4,2,-19,0,11,4,0,12,1,0,-16,228,8,-18,226,107,44,0,0,0,0,0,0,3030
39.613983154,-4,2,-19,0,10,5,0,13,1,-1,-16,226,8,-18,226,107,44,0,0,0,0,0,0,3031
39.631686926,-4,2,-19,0,10,5,1,12,2,-2,-16,226,7,-19,226,107,44,0,0,0,0,0,0,3032
39.638900995,-4,2,-19,0,10,5,1,12,3,-4,-17,226,7,-19,226,107,44,0,0,0,0,0,0,3033
39.649245023,-4,2,-19,0,10,5,1,11,3,-3,-18,225,7,-19,226,107,44,0,0,0,0,0,0,3034
39.659017086,-4,2,-19,0,9,5,1,11,4,-5,-17,226,6,-19,226,107,44,0,0,0,0,0,0,3035
39.67298913,-4,2,-19,0,9,5,0,10,5,-6,-17,224,6,-19,225,107,44,0,0,0,0,0,0,3036
39.683869123,-4,2,-19,0,8,5,0,10,5,-7,-19,222,5,-19,225,107,44,0,0,0,0,0,0,3037
39.694287061,-4,2,-18,0,8,4,0,9,5,-8,-17,223,5,-19,225,107,44,0,0,0,0,0,0,3038
39.707962036,-4,2,-18,0,7,4,0,9,5,-7,-19,221,5,-20,225,107,44,0,0,0,0,0,0,3039
39.718018055,-4,2,-18,0,6,4,0,9,5,-7,-16,223,4,-20,225,107,44,0,0,0,0,0,0,3040
39.728840112,-4,2,-18,0,6,3,0,9,5,-6,-17,224,4,-20,225,107,44,0,0,0,0,0,0,3041
39.742861986,-4,2,-18,1,5,3,0,8,5,-8,-15,225,4,-20,225,107,44,0,0,0,0,0,0,3042
39.752964973,-4,2,-18,1,4,2,0,8,4,-8,-16,223,3,-20,225,107,44,0,0,0,0,0,0,3043
39.763972044,-4,2,-18,2,4,1,0,7,4,-8,-22,223,3,-20,225,107,44,0,0,0,0,0,0,3044
39.783081054,-4,2,-18,2,3,1,0,6,4,-7,-19,221,2,-20,225,107,44,0,0,0,0,0,0,3045
39.793836117,-4,2,-18,2,1,0,0,5,3,-7,-18,225,2,-21,225,107,44,0,0,0,0,0,0,3046
39.803965091,-4,2,-18,3,1,0,1,5,3,-13,-16,224,1,-21,225,107,44,0,0,0,0,0,0,3047
39.823835134,-4,2,-18,3,0,0,1,4,2,-18,-14,223,1,-21,225,107,44,0,0,0,0,0,0,3048
39.833922148,-4,2,-18,3,0,0,2,3,1,-18,-18,223,0,-21,225,107,44,0,0,0,0,0,0,3049
39.844983101,-4,2,-18,4,-1,0,2,2,0,-18,-17,224,0,-21,225,107,44,0,0,0,0,0,0,3050
39.864787102,-4,2,-18,4,-3,0,3,1,0,-17,-18,221,-1,-21,224,107,44,0,0,0,0,0,0,3051
39.875180959,-4,1,-18,5,-7,0,3,0,0,-16,-15,223,-2,-20,224,107,44,0,0,0,0,0,0,3052
39.884936094,-4,1,-18,6,-10,0,3,0,0,-14,-15,221,-2,-20,224,107,44,0,0,0,0,0,0,3053
39.904931068,-4,1,-18,6,-12,0,4,-1,0,-12,-15,221,-3,-20,224,107,44,0,0,0,0,0,0,3054
39.915826082,-4,1,-18,6,-17,0,4,-3,0,-5,-12,217,-3,-20,224,107,44,0,0,0,0,0,0,3055
39.925964117,-4,1,-18,7,-20,0,5,-5,0,1,-12,214,-4,-19,224,107,44,0,0,0,0,0,0,3056
39.945965051,-4,1,-18,7,-22,0,5,-8,0,5,-7,216,-4,-19,223,107,44,0,0,0,0,0,0,3057
39.95600295,-4,0,-18,7,-26,0,6,-11,0,11,-5,210,-4,-18,223,107,44,0,0,0,0,0,0,3058
39.966799021,-4,0,-18,7,-28,-2,6,-14,0,11,-4,213,-4,-17,223,107,44,0,0,0,0,0,0,3059
39.986038923,-4,0,-18,7,-30,-3,7,-18,0,19,-1,201,-4,-17,222,107,44,0,0,0,0,0,0,3060
39.996967077,-4,0,-18,6,-35,-5,7,-21,0,27,1,198,-3,-16,221,107,44,0,0,0,0,0,0,3061
40.006783962,-4,0,-19,6,-38,-7,7,-24,0,32,3,203,-2,-15,221,107,44,0,0,0,0,0,0,3062
40.026972055,-4,0,-19,5,-41,-9,7,-27,-1,34,3,209,-2,-15,221,107,44,0,0,0,0,0,0,3063
40.037843942,-4,-1,-19,1,-48,-13,7,-30,-2,33,1,211,-1,-14,220,107,44,0,0,0,0,0,0,3064
40.048072099,-4,-1,-19,0,-51,-15,7,-33,-4,35,3,217,0,-13,220,107,44,0,0,0,0,0,0,3065
40.067825079,-4,-1,-19,-3,-53,-17,6,-36,-6,32,-1,227,0,-13,220,107,44,0,0,0,0,0,0,3066
40.078020096,-4,-1,-19,-10,-56,-22,5,-40,-8,26,-6,232,0,-12,220,107,44,0,0,0,0,0,0,3067
40.089363098,-4,-2,-19,-11,-58,-24,3,-44,-11,22,-5,236,1,-12,220,107,44,0,0,0,0,0,0,3068
40.10811305,-4,-2,-19,-13,-57,-26,0,-48,-14,28,-9,241,2,-12,221,107,44,0,0,0,0,0,0,3069
40.11897707,-4,-2,-20,-15,-60,-30,-2,-52,-17,24,-13,237,2,-12,221,107,44,0,0,0,0,0,0,3070
40.129006147,-4,-3,-20,-15,-61,-32,-6,-55,-20,27,-19,232,3,-12,221,107,44,0,0,0,0,0,0,3071
40.148894071,-4,-3,-20,-14,-63,-33,-9,-57,-23,30,-22,227,4,-12,221,107,44,0,0,0,0,0,0,3072
40.158890962,-4,-3,-20,-11,-66,-35,-12,-59,-25,29,-30,233,5,-12,221,107,44,0,0,0,0,0,0,3073
40.169930935,-4,-3,-21,-10,-69,-36,-14,-60,-28,31,-37,233,6,-13,222,107,44,0,0,0,0,0,0,3074
40.189840078,-4,-3,-21,-7,-71,-36,-15,-61,-31,37,-35,232,7,-13,222,107,44,0,0,0,0,0,0,3075
40.200044155,-4,-4,-21,-3,-74,-37,-15,-62,-33,47,-28,236,8,-13,222,107,44,0,0,0,0,0,0,3076
40.215997934,-4,-4,-21,-1,-74,-37,-13,-64,-34,62,-25,232,10,-14,222,107,44,0,0,0,0,0,0,3077
40.229918003,-4,-4,-21,1,-72,-39,-11,-67,-36,53,-8,228,11,-13,222,107,53,8,0,0,0,0,0,3078
40.243823051,-4,-5,-22,6,-67,-40,-8,-69,-36,70,-14,233,13,-13,223,107,53,8,0,0,0,0,0,3079
40.250741005,-4,-5,-22,9,-64,-41,-5,-71,-37,67,-7,226,15,-13,223,107,53,8,0,0,0,0,0,3080
40.271790027,-4,-5,-22,11,-61,-42,-2,-73,-38,76,-11,230,17,-13,223,107,61,8,0,0,0,0,0,3081
40.280099153,-4,-5,-23,13,-52,-44,0,-72,-38,80,-1,232,19,-13,223,107,61,8,0,0,0,0,0,3082
40.290804147,-4,-5,-23,13,-47,-45,4,-71,-39,83,-9,237,22,-12,224,107,61,8,0,0,0,0,0,3083
40.309984922,-3,-5,-23,12,-42,-45,7,-67,-40,86,-4,243,24,-12,224,107,69,7,0,0,0,0,0,3084
40.320187092,-3,-5,-24,11,-34,-45,10,-62,-42,104,-6,245,27,-12,225,107,69,7,0,0,0,0,0,3085
40.331635952,-3,-5,-24,10,-28,-45,12,-57,-43,112,0,243,30,-11,225,107,69,7,0,0,0,0,0,3086
40.349003076,-3,-4,-24,8,-22,-45,13,-50,-44,118,-1,248,33,-11,226,107,75,6,0,0,0,0,0,3087
40.359951019,-3,-4,-24,4,-5,-44,13,-44,-45,127,3,243,37,-10,226,107,75,6,0,0,0,0,0,3088
40.371029138,-3,-3,-25,1,4,-43,12,-37,-46,130,5,241,41,-10,227,107,75,6,0,0,0,0,0,3089
40.388849973,-3,-3,-25,0,15,-43,11,-30,-46,135,6,238,44,-9,227,107,81,6,0,0,0,0,0,3090
40.399228096,-3,-2,-25,-6,40,-40,8,-22,-45,142,7,232,48,-8,227,107,81,6,0,0,0,0,0,3091
40.410043955,-3,-1,-25,-10,53,-38,6,-13,-45,149,5,229,53,-8,227,107,81,6,0,0,0,0,0,3092
40.429855108,-3,-1,-26,-13,66,-36,3,-1,-44,154,6,227,57,-7,228,107,81,6,0,0,0,0,0,3093
40.44016695,-3,0,-26,-18,87,-31,0,11,-43,166,15,219,61,-7,227,107,81,6,0,0,0,0,0,3094
40.45315504,-3,1,-26,-22,102,-27,-3,27,-41,154,13,217,65,-6,227,107,81,6,0,0,0,0,0,3095
40.470003128,-3,1,-26,-26,116,-23,-7,43,-39,167,21,208,69,-5,227,107,81,6,0,0,0,0,0,3096
40.480874061,-4,4,-26,-35,145,-16,-12,61,-37,129,12,196,73,-5,227,107,81,6,0,0,0,0,0,3097
40.490903139,-4,5,-26,-40,159,-12,-16,78,-34,121,19,185,75,-4,226,107,81,6,0,0,0,0,0,3098
40.520004987,-4,6,-26,-46,173,-8,-20,96,-30,111,9,187,78,-4,226,107,81,6,0,0,0,0,0,3099
40.523049116,-4,8,-26,-58,196,-1,-25,113,-25,64,1,194,79,-4,225,107,81,6,0,0,0,0,0,3100
40.531868934,-5,9,-26,-64,203,3,-31,131,-20,44,-2,199,79,-4,225,107,81,6,0,0,0,0,0,3101
40.551830053,-5,10,-26,-69,207,8,-37,149,-15,22,-4,203,79,-4,225,107,81,6,0,0,0,0,0,3102
40.561980963,-5,13,-26,-75,202,17,-44,166,-9,-16,-15,202,78,-4,225,107,81,6,0,0,0,0,0,3103
40.572014093,-6,14,-26,-77,199,23,-52,182,-4,-40,-15,189,76,-5,225,107,81,6,0,0,0,0,0,3104
40.591917991,-6,15,-26,-78,190,25,-59,195,1,-61,-22,172,73,-5,224,107,81,6,0,0,0,0,0,3105
40.602023124,-7,17,-26,-79,168,37,-66,204,6,-81,-42,160,71,-6,222,107,81,6,0,0,0,0,0,3106
40.612972021,-7,18,-25,-79,156,42,-72,207,13,-90,-48,162,68,-7,220,107,81,6,0,0,0,0,0,3107
40.632872104,-7,18,-25,-80,144,47,-76,204,19,-89,-47,167,65,-9,218,107,81,6,0,0,0,0,0,3108
40.643052101,-8,19,-24,-80,123,56,-79,195,25,-81,-46,167,62,-9,217,107,81,6,0,0,0,0,0,3109
40.65310502,-8,20,-24,-79,114,60,-80,182,32,-80,-53,169,60,-10,215,107,81,6,0,0,0,0,0,3110
40.672935962,-8,20,-24,-77,107,65,-80,166,39,-84,-64,163,57,-12,213,107,81,6,0,0,0,0,0,3111
40.684057951,-9,21,-23,-74,97,75,-80,150,45,-97,-75,164,54,-13,212,107,81,6,0,0,0,0,0,3112
40.693833112,-9,21,-23,-70,93,79,-79,134,52,-106,-81,162,50,-14,210,107,81,6,0,0,0,0,0,3113
40.714050054,-9,21,-23,-70,92,82,-78,120,58,-114,-81,166,47,-15,208,107,81,6,0,0,0,0,0,3114
40.723942041,-9,22,-21,-60,82,84,-77,108,64,-139,-90,154,42,-17,206,107,81,6,0,0,0,0,0,3115
40.73390603,-9,22,-21,-53,75,84,-75,100,70,-145,-87,152,37,-18,204,107,81,6,0,0,0,0,0,3116
40.753852129,-9,22,-21,-46,68,84,-73,94,75,-149,-100,148,32,-20,202,107,81,6,0,0,0,0,0,3117
40.764001131,-10,22,-20,-29,51,83,-69,89,80,-169,-105,154,26,-22,200,107,81,6,0,0,0,0,0,3118
40.774915933,-10,22,-19,-20,41,82,-64,84,83,-169,-123,151,20,-25,198,107,81,6,0,0,0,0,0,3119
40.794909954,-10,21,-19,-11,32,80,-57,78,85,-163,-115,167,15,-28,197,107,81,6,0,0,0,0,0,3120
40.80507493,-9,21,-18,7,7,76,-48,71,85,-181,-100,176,8,-30,195,107,81,6,0,0,0,0,0,3121
40.815135002,-9,20,-18,17,-6,72,-38,60,84,-190,-95,174,1,-32,194,107,81,6,0,0,0,0,0,3122
40.835005045,-9,20,-18,22,-22,67,-26,48,83,-201,-88,173,-5,-34,192,107,81,6,0,0,0,0,0,3123
40.844929933,-9,18,-17,39,-47,58,-14,34,80,-211,-62,177,-12,-36,191,107,81,6,0,0,0,0,0,3124
40.855873108,-9,17,-17,46,-64,51,-1,18,77,-211,-57,175,-20,-37,189,107,81,6,0,0,0,0,0,3125
40.875868082,-9,16,-17,51,-81,43,10,1,73,-211,-59,167,-28,-39,187,107,81,6,0,0,0,0,0,3126
40.885954141,-8,14,-16,58,-115,27,22,-16,68,-194,-45,178,-36,-40,185,107,81,6,0,0,0,0,0,3127
40.895830154,-8,13,-16,60,-132,19,32,-35,62,-185,-39,178,-44,-41,184,107,81,6,0,0,0,0,0,3128
40.916008949,-8,12,-16,60,-148,11,41,-55,55,-172,-27,174,-51,-42,182,107,81,6,0,0,0,0,0,3129
40.925956011,-7,9,-16,62,-176,-3,49,-76,46,-139,-13,170,-58,-42,180,107,81,6,0,0,0,0,0,3130
40.936864137,-7,7,-16,62,-187,-9,55,-98,36,-123,-8,170,-65,-42,179,107,81,6,0,0,0,0,0,3131
40.956959963,-7,6,-16,61,-196,-16,59,-120,25,-108,-2,171,-71,-43,177,107,81,6,0,0,0,0,0,3132
40.966958046,-6,2,-17,60,-205,-25,61,-142,14,-78,6,173,-77,-43,176,107,81,6,0,0,0,0,0,3133
40.977117061,-6,1,-17,59,-208,-30,62,-162,3,-59,9,175,-83,-43,175,107,81,6,0,0,0,0,0,3134
40.996958971,-6,0,-17,57,-209,-34,62,-179,-6,-41,10,177,-88,-43,174,107,81,6,0,0,0,0,0,3135
41.007226944,-6,-3,-17,54,-203,-40,61,-193,-14,11,20,196,-92,-43,173,107,81,6,0,0,0,0,0,3136
41.017840147,-6,-4,-18,52,-196,-42,60,-203,-22,28,21,199,-94,-43,173,107,81,6,0,0,0,0,0,3137
41.037919998,-6,-6,-18,51,-187,-44,59,-208,-28,50,24,202,-96,-43,174,107,81,6,0,0,0,0,0,3138
41.047858953,-5,-8,-18,48,-163,-46,57,-209,-33,80,32,193,-97,-42,174,107,81,6,0,0,0,0,0,3139
41.057996988,-5,-9,-18,47,-149,-48,56,-207,-37,80,34,185,-96,-41,174,107,81,6,0,0,0,0,0,3140
41.077872991,-5,-10,-19,46,-133,-49,54,-200,-41,95,37,191,-95,-40,174,107,81,6,0,0,0,0,0,3141
41.088928938,-5,-12,-19,42,-108,-53,52,-189,-43,124,49,206,-93,-39,174,107,81,6,0,0,0,0,0,3142
41.0989151,-5,-13,-20,38,-91,-52,49,-175,-46,152,57,225,-88,-37,174,107,81,6,0,0,0,0,0,3143
41.118935108,-5,-14,-20,34,-74,-52,47,-159,-47,136,41,231,-84,-36,175,107,81,6,0,0,0,0,0,3144
41.12906599,-5,-15,-20,21,-40,-49,45,-140,-49,136,51,236,-79,-34,177,107,81,6,0,0,0,0,0,3145
41.140198946,-5,-15,-21,14,-25,-46,43,-120,-50,125,49,236,-74,-31,179,107,81,6,0,0,0,0,0,3146
41.150913954,-5,-15,-21,8,-11,-43,39,-99,-51,112,42,235,-69,-29,181,107,74,-7,0,0,0,0,0,3147
41.161981106,-5,-15,-21,1,1,-38,34,-78,-51,99,37,241,-64,-27,182,107,74,-7,0,0,0,0,0,3148
41.171793937,-5,-15,-21,-3,13,-35,28,-57,-51,79,33,240,-60,-25,184,107,74,-7,0,0,0,0,0,3149
41.191864013,-5,-15,-21,-8,22,-29,21,-37,-48,59,27,237,-56,-23,186,107,74,-7,0,0,0,0,0,3150
41.202867031,-6,-15,-21,-13,35,-20,13,-18,-45,47,16,0,-53,-21,188,107,74,-7,0,0,0,0,0,3151
41.213279009,-6,-15,-21,-13,40,-15,5,-2,-41,40,1,4,-50,-19,191,107,74,-7,0,0,0,0,0,3152
41.224906921,-6,-15,-21,-12,42,-12,-1,10,-36,42,-14,17,-46,-17,194,107,67,-6,0,0,0,0,0,3153
41.23488307,-6,-14,-22,-9,45,-9,-7,21,-31,34,-12,12,-42,-16,196,107,67,-6,0,0,0,0,0,3154
41.245824098,-6,-14,-22,-3,45,-8,-11,29,-25,38,-25,20,-38,-14,199,107,67,-6,0,0,0,0,0,3155
41.25685811,-6,-14,-22,5,46,-8,-13,36,-19,33,-38,3,-33,-13,202,107,61,-6,0,0,0,0,0,3156
41.267795086,-5,-13,-22,16,46,-9,-13,41,-14,37,-48,244,-29,-11,204,107,61,-6,0,0,0,0,0,3157
41.277819156,-5,-13,-22,31,48,-11,-10,44,-11,40,-37,232,-23,-10,206,107,61,-6,0,0,0,0,0,3158
41.289880991,-5,-13,-22,47,51,-14,-6,46,-8,39,-33,212,-18,-7,208,107,56,-5,0,0,0,0,0,3159
41.299880028,-5,-12,-22,64,57,-20,1,47,-7,38,-54,208,-13,-6,209,107,56,-5,0,0,0,0,0,3160
41.310064077,-4,-12,-22,81,60,-24,10,48,-8,20,-41,193,-8,-4,209,107,56,-5,0,0,0,0,0,3161
41.321892023,-4,-11,-22,96,65,-26,23,48,-10,30,-43,193,-3,-3,210,107,51,-4,0,0,0,0,0,3162
41.331819057,-3,-11,-22,118,72,-25,38,50,-13,32,-30,188,2,-2,210,107,51,-4,0,0,0,0,0,3163
41.342793941,-3,-10,-22,131,74,-25,54,53,-16,14,-19,170,8,-1,210,107,51,-4,0,0,0,0,0,3164
41.353853941,-2,-9,-22,143,75,-24,72,57,-20,-3,-3,170,13,0,210,107,46,-4,0,0,0,0,0,3165
41.364830017,-1,-9,-22,152,73,-23,90,62,-24,-15,27,166,18,2,210,107,46,-4,0,0,0,0,0,3166
41.37491107,-1,-8,-22,160,70,-21,107,67,-26,-15,41,150,22,4,209,107,46,-4,0,0,0,0,0,3167
41.38677597,0,-7,-23,165,66,-18,123,71,-26,-12,63,178,27,7,209,107,42,-4,0,0,0,0,0,3168
41.39688015,0,-7,-23,165,60,-14,137,74,-26,-22,72,181,31,9,209,107,42,-4,0,0,0,0,0,3169
41.407998085,0,-6,-23,163,53,-10,149,75,-24,-17,75,195,34,11,210,107,42,-4,0,0,0,0,0,3170
41.418879986,1,-5,-23,157,47,-3,157,73,-22,-20,100,195,36,14,210,107,39,-3,0,0,0,0,0,3171
41.431105137,2,-5,-23,151,39,2,163,69,-19,-44,127,185,38,17,211,107,39,-3,0,0,0,0,0,3172
41.439888,2,-4,-23,144,31,8,165,64,-15,-47,136,189,39,21,211,107,39,-3,0,0,0,0,0,3173
41.451775074,3,-4,-23,136,23,13,164,57,-11,-51,157,170,39,24,211,107,35,-3,0,0,0,0,0,3174
41.462402105,4,-3,-22,127,15,19,161,50,-6,-45,152,153,39,28,210,107,35,-3,0,0,0,0,0,3175
41.471961021,4,-3,-22,118,7,24,156,42,-1,-49,171,153,37,32,209,107,35,-3,0,0,0,0,0,3176
41.483942032,5,-2,-22,109,-2,28,148,34,4,-44,199,162,35,36,208,107,32,-2,0,0,0,0,0,3177
41.494024038,5,-2,-22,98,-11,33,140,26,10,-43,203,164,33,41,207,107,32,-2,0,0,0,0,0,3178
41.504765987,6,-2,-22,86,-19,36,131,18,16,-39,199,157,30,45,207,107,32,-2,0,0,0,0,0,3179
41.51595211,6,-1,-22,73,-26,39,122,10,22,-33,209,169,27,49,206,107,30,-2,0,0,0,0,0,3180
41.52683711,6,-1,-22,52,-35,41,112,2,27,-24,221,177,24,54,206,107,30,-2,0,0,0,0,0,3181
41.536942959,7,-1,-22,45,-40,41,102,-6,31,-18,235,179,21,58,205,107,30,-2,0,0,0,0,0,3182
41.548869133,7,-1,-21,29,-40,40,91,-15,35,-12,236,180,16,63,204,107,27,-2,0,0,0,0,0,3183
41.558927059,8,-1,-21,6,-42,39,78,-23,38,-10,241,180,13,68,203,107,27,-2,0,0,0,0,0,3184
41.569901943,8,-1,-21,-9,-41,36,65,-30,40,-4,245,178,9,73,201,107,27,-2,0,0,0,0,0,3185
41.588413,8,-1,-21,-25,-38,33,50,-36,41,3,251,182,6,78,200,107,36,8,0,0,0,0,0,3186
41.597991943,8,-1,-21,-50,-32,26,34,-40,41,12,249,185,4,83,199,107,36,8,0,0,0,0,0,3187
41.608901977,8,-1,-21,-66,-24,20,17,-42,40,25,241,183,2,88,197,107,36,8,0,0,0,0,0,3188
41.626841068,8,-1,-21,-82,-17,13,0,-42,38,27,221,186,1,93,196,107,44,7,0,0,0,0,0,3189
41.636902094,8,-1,-21,-105,-1,0,-19,-40,34,37,223,198,0,98,195,107,44,7,0,0,0,0,0,3190
41.647810936,8,-1,-21,-120,8,-3,-38,-35,29,45,209,196,0,102,193,107,44,7,0,0,0,0,0,3191
41.667866945,8,-1,-21,-133,18,-10,-57,-28,23,44,206,200,0,107,192,107,44,7,0,0,0,0,0,3192
41.6802001,7,-1,-21,-157,37,-16,-76,-20,16,43,172,198,0,112,190,107,44,7,0,0,0,0,0,3193
41.688076019,7,0,-21,-167,47,-20,-95,-9,8,37,156,197,0,116,188,107,44,7,0,0,0,0,0,3194
41.699805021,7,0,-21,-177,55,-23,-112,1,0,29,141,199,0,121,186,107,40,-3,0,0,0,0,0,3195
41.709850073,7,0,-21,-185,63,-25,-129,14,-7,20,126,202,0,125,185,107,40,-3,0,0,0,0,0,3196
41.720875978,7,0,-21,-192,72,-27,-145,27,-13,18,107,200,0,129,184,107,40,-3,0,0,0,0,0,3197
41.731986046,7,0,-21,-199,79,-29,-160,40,-19,10,93,202,-1,132,183,107,37,-3,0,0,0,0,0,3198
41.742953062,7,0,-21,-204,86,-28,-172,51,-23,8,76,196,-1,135,183,107,37,-3,0,0,0,0,0,3199
41.753072977,7,0,-21,-208,90,-28,-183,61,-25,0,52,193,-2,137,182,107,37,-3,0,0,0,0,0,3200
41.767512083,7,1,-22,-212,93,-27,-191,70,-27,-12,37,188,-3,139,182,107,34,-3,0,0,0,0,0,3201
41.775398969,7,1,-22,-214,93,-24,-197,77,-28,-10,11,190,-4,141,182,107,34,-3,0,0,0,0,0,3202
41.785386085,7,1,-22,-211,91,-21,-202,83,-28,-32,10,214,-6,142,183,107,34,-3,0,0,0,0,0,3203
41.796826124,8,1,-22,-207,88,-17,-206,87,-28,-53,5,198,-8,142,183,107,31,-2,0,0,0,0,0,3204
41.80707097,8,2,-22,-202,84,-12,-209,91,-27,-66,-32,206,-9,142,184,107,31,-2,0,0,0,0,0,3205
41.817897081,8,2,-22,-193,78,-8,-211,92,-25,-61,-45,188,-10,140,185,107,31,-2,0,0,0,0,0,3206
41.828896999,8,2,-22,-183,71,-3,-212,92,-23,-55,-46,172,-11,138,185,107,28,-2,0,0,0,0,0,3207
41.83949399,8,2,-22,-172,63,0,-210,90,-19,-72,-56,177,-13,135,185,107,28,-2,0,0,0,0,0,3208
41.850108146,8,2,-22,-159,55,4,-205,87,-15,-68,-60,178,-14,131,185,107,28,-2,0,0,0,0,0,3209
41.861221075,9,2,-22,-145,47,7,-198,81,-11,-69,-72,166,-15,128,185,107,26,-2,0,0,0,0,0,3210
41.871804952,9,2,-22,-129,40,8,-189,74,-6,-80,-96,167,-17,123,184,107,26,-2,0,0,0,0,0,3211
41.881886959,9,2,-22,-116,34,7,-178,67,-1,-77,-107,164,-18,117,183,107,26,-2,0,0,0,0,0,3212
41.893867016,10,2,-22,-104,28,6,-165,59,2,-89,-111,168,-19,110,183,107,24,-2,0,0,0,0,0,3213
41.903942108,10,2,-22,-94,23,3,-151,51,5,-85,-112,180,-19,104,183,107,24,-2,0,0,0,0,0,3214
41.913959026,10,2,-22,-84,17,0,-137,44,7,-77,-116,173,-20,97,184,107,24,-2,0,0,0,0,0,3215
41.925904035,10,1,-22,-75,13,-5,-123,37,8,-76,-130,179,-21,89,184,107,22,-1,0,0,0,0,0,3216
41.936177969,10,1,-22,-67,9,-10,-110,30,7,-70,-116,190,-22,82,185,107,22,-1,0,0,0,0,0,3217
41.94700098,11,1,-22,-60,6,-15,-98,25,5,-63,-121,198,-22,73,186,107,22,-1,0,0,0,0,0,3218
41.966789007,11,1,-22,-53,4,-19,-87,19,1,-73,-140,204,-23,65,187,107,22,-1,0,0,0,0,0,3219
41.976861,10,1,-22,-41,5,-26,-78,15,-2,-83,-144,205,-24,56,188,107,22,-1,0,0,0,0,0,3220
41.986994982,11,0,-22,-33,7,-28,-70,11,-7,-86,-149,199,-26,47,188,107,22,-1,0,0,0,0,0,3221
42.006987095,11,0,-23,-24,8,-29,-62,8,-12,-80,-141,195,-27,37,189,107,22,-1,0,0,0,0,0,3222
42.017775059,10,0,-23,-2,5,-28,-55,6,-17,-83,-146,194,-29,28,189,107,22,-1,0,0,0,0,0,3223
42.027830124,10,0,-23,9,1,-26,-46,5,-22,-81,-145,202,-31,18,190,107,22,-1,0,0,0,0,0,3224
42.04798603,10,0,-23,21,-5,-24,-37,5,-26,-86,-150,201,-33,8,190,107,22,-1,0,0,0,0,0,3225
42.057812929,11,0,-23,41,-18,-18,-26,5,-28,-88,-152,204,-35,-1,191,107,22,-1,0,0,0,0,0,3226
42.068830967,10,-1,-23,55,-27,-15,-13,4,-29,-86,-152,206,-38,-11,191,107,22,-1,0,0,0,0,0,3227
42.08800292,10,-1,-23,69,-36,-10,0,2,-28,-88,-151,204,-40,-21,192,107,22,-1,0,0,0,0,0,3228
42.098937988,11,-2,-23,97,-49,-1,16,-2,-26,-72,-145,177,-43,-30,192,107,22,-1,0,0,0,0,0,3229
42.109002113,11,-2,-23,113,-54,2,32,-10,-22,-61,-123,173,-45,-39,191,107,22,-1,0,0,0,0,0,3230
42.120775938,11,-3,-23,128,-60,6,49,-19,-17,-52,-123,165,-48,-47,190,107,20,-1,0,0,0,0,0,3231
42.130871057,10,-4,-23,144,-66,10,66,-31,-12,-55,-118,167,-50,-55,190,107,20,-1,0,0,0,0,0,3232
42.14114213,10,-4,-23,159,-73,12,84,-41,-6,-57,-102,165,-53,-62,189,107,20,-1,0,0,0,0,0,3233
42.152889967,10,-5,-23,173,-79,14,102,-51,0,-46,-86,162,-55,-68,188,107,18,-1,0,0,0,0,0,3234
42.163071155,10,-5,-23,186,-84,16,120,-60,4,-32,-62,158,-57,-73,187,107,18,-1,0,0,0,0,0,3235
42.173923969,10,-6,-23,196,-88,17,137,-66,8,-22,-49,162,-58,-78,186,107,18,-1,0,0,0,0,0,3236
42.185199022,9,-7,-23,205,-91,19,153,-72,11,-13,-35,164,-58,-81,185,107,17,-1,0,0,0,0,0,3237
42.195913076,9,-7,-23,211,-91,20,168,-76,14,-11,-22,158,-59,-84,184,107,17,-1,0,0,0,0,0,3238
42.206059932,9,-8,-23,215,-91,20,180,-81,16,-8,-3,157,-59,-86,183,107,17,-1,0,0,0,0,0,3239
42.21777606,9,-8,-23,218,-90,20,191,-85,17,-4,17,153,-59,-87,182,107,16,-1,0,0,0,0,0,3240
42.228345155,9,-9,-23,219,-90,19,201,-89,18,-1,42,159,-59,-87,181,107,16,-1,0,0,0,0,0,3241
42.238820076,9,-10,-23,218,-91,18,208,-91,19,6,64,160,-59,-85,180,107,16,-1,0,0,0,0,0,3242
42.249928951,8,-10,-23,215,-93,17,213,-92,19,15,87,165,-58,-83,179,107,15,-1,0,0,0,0,0,3243
42.260906934,8,-11,-23,208,-95,17,217,-92,20,23,97,164,-56,-81,178,107,15,-1,0,0,0,0,0,3244
42.271275997,8,-11,-22,199,-98,17,219,-92,20,26,105,172,-53,-78,177,107,15,-1,0,0,0,0,0,3245
42.289901972,8,-12,-22,188,-99,17,218,-91,19,25,129,171,-51,-73,177,107,26,10,0,0,0,0,0,3246
42.299814939,9,-13,-22,168,-100,18,216,-92,18,36,162,181,-49,-68,177,107,26,10,0,0,0,0,0,3247
42.31082201,8,-13,-22,153,-100,18,211,-93,18,44,176,178,-46,-62,177,107,26,10,0,0,0,0,0,3248
42.335701942,8,-14,-22,138,-99,18,203,-95,17,48,186,178,-43,-56,177,107,35,9,0,0,0,0,0,3249
42.338865041,8,-15,-22,104,-94,18,193,-97,17,59,208,179,-40,-49,178,107,35,9,0,0,0,0,0,3250
42.349776983,8,-15,-22,86,-91,17,179,-99,17,65,218,181,-36,-41,178,107,35,9,0,0,0,0,0,3251
42.369230032,7,-15,-22,68,-86,16,162,-100,17,70,230,179,-32,-33,178,107,45,9,0,0,0,0,0,3252
42.379908085,7,-16,-22,41,-76,13,143,-99,18,81,235,192,-28,-24,179,107,45,9,0,0,0,0,0,3253
42.390022039,7,-16,-22,23,-68,10,121,-97,18,90,235,192,-24,-15,179,107,45,9,0,0,0,0,0,3254
42.409970045,7,-16,-21,5,-58,7,99,-93,17,98,230,199,-19,-7,180,107,45,9,0,0,0,0,0,3255
42.419999122,6,-16,-21,-28,-34,2,76,-88,16,105,225,200,-15,1,180,107,45,9,0,0,0,0,0,3256
42.430977106,6,-16,-21,-44,-22,0,53,-80,14,108,209,200,-10,9,181,107,45,9,0,0,0,0,0,3257
42.449953079,5,-15,-21,-59,-9,-2,31,-71,12,107,204,201,-6,18,181,107,45,9,0,0,0,0,0,3258
42.460922003,4,-15,-22,-86,16,-7,9,-60,9,110,196,205,-1,26,181,107,45,9,0,0,0,0,0,3259
42.475652933,4,-14,-22,-99,28,-10,-12,-47,5,112,187,206,2,34,181,107,45,9,0,0,0,0,0,3260
42.490976095,4,-13,-22,-112,40,-12,-33,-31,1,118,189,208,8,43,181,107,54,9,0,0,0,0,0,3261
42.503443002,3,-12,-22,-131,58,-16,-54,-14,-1,109,175,198,12,51,181,107,54,9,0,0,0,0,0,3262
42.511142015,2,-12,-22,-144,69,-17,-73,2,-5,107,167,198,17,59,181,107,54,9,0,0,0,0,0,3263
42.530976057,2,-11,-22,-157,78,-18,-92,20,-8,89,159,189,21,66,181,107,63,8,0,0,0,0,0,3264
42.541028023,1,-9,-22,-187,95,-22,-108,36,-11,79,124,180,26,73,180,107,63,8,0,0,0,0,0,3265
42.551965952,1,-8,-22,-203,103,-24,-124,51,-14,78,106,182,30,79,180,107,63,8,0,0,0,0,0,3266
42.571910143,0,-7,-22,-221,112,-25,-139,64,-17,64,84,188,33,85,179,107,63,8,0,0,0,0,0,3267
42.582051039,-1,-5,-23,-255,128,-27,-155,76,-19,62,55,200,37,91,179,107,63,8,0,0,0,0,0,3268
42.592020035,-1,-4,-23,-13,136,-27,-173,88,-21,50,39,202,40,95,180,107,63,8,0,0,0,0,0,3269
42.611813068,-1,-3,-23,-24,141,-28,-192,98,-23,36,23,191,43,99,180,107,63,8,0,0,0,0,0,3270
42.621961117,-4,-1,-23,-29,145,-28,-213,109,-24,3,-34,139,44,101,180,107,63,8,0,0,0,0,0,3271
42.633007049,-4,0,-23,-28,143,-28,-235,120,-26,-23,-78,147,45,102,179,107,63,8,0,0,0,0,0,3272
42.652922153,-4,0,-24,-22,138,-27,0,129,-27,-42,-111,130,45,102,178,107,63,8,0,0,0,0,0,3273
42.66297698,-6,2,-24,-238,117,-22,-16,137,-28,-63,-192,152,45,99,178,107,63,8,0,0,0,0,0,3274
42.673069,-5,2,-24,-209,102,-16,-27,142,-28,-95,-217,146,43,95,178,107,63,8,0,0,0,0,0,3275
42.692825079,-5,3,-24,-175,86,-9,-29,143,-28,-107,-251,143,41,90,177,107,63,8,0,0,0,0,0,3276
42.703043937,-5,4,-24,-101,52,7,-21,139,-26,-108,-14,163,39,84,177,107,63,8,0,0,0,0,0,3277
42.713993072,-5,4,-24,-62,36,14,-3,129,-23,-109,-16,186,36,78,178,107,63,8,0,0,0,0,0,3278
42.733739137,-4,4,-24,-25,22,19,-229,114,-19,-99,-3,166,34,72,178,107,63,8,0,0,0,0,0,3279
42.74399805,-3,5,-23,24,5,24,-190,94,-11,-86,-215,176,32,66,179,107,63,8,0,0,0,0,0,3280
42.753988027,-2,5,-23,51,-2,25,-143,72,-3,-81,-196,180,30,60,179,107,63,8,0,0,0,0,0,3281
42.773906946,-1,5,-23,71,-10,25,-93,50,6,-79,-171,187,28,54,180,107,63,8,0,0,0,0,0,3282
42.784979105,0,5,-23,97,-19,20,-44,29,15,-67,-132,183,26,49,180,107,63,8,0,0,0,0,0,3283
42.794876098,1,5,-23,103,-22,18,0,11,22,-66,-103,197,24,44,181,107,63,8,0,0,0,0,0,3284
42.806895971,1,5,-23,104,-25,15,38,-1,26,-59,-81,200,21,39,182,107,58,-4,0,0,0,0,0,3285
42.817844152,2,5,-23,102,-28,12,68,-10,27,-56,-61,211,19,34,183,107,58,-4,0,0,0,0,0,3286
42.828182935,3,4,-23,97,-31,8,88,-17,25,-54,-47,219,17,29,184,107,58,-4,0,0,0,0,0,3287
42.839967012,3,4,-23,89,-34,4,101,-21,21,-49,-35,214,15,23,185,107,54,-4,0,0,0,0,0,3288
42.850872993,4,4,-23,75,-37,-1,107,-24,17,-47,-10,224,12,19,186,107,54,-4,0,0,0,0,0,3289
42.860975981,4,4,-23,64,-40,-6,106,-27,13,-45,-1,237,10,13,187,107,54,-4,0,0,0,0,0,3290
42.880861997,4,4,-23,52,-44,-9,101,-30,8,-49,-3,229,7,8,188,107,54,-4,0,0,0,0,0,3291
42.89093709,5,3,-23,36,-50,-17,93,-32,4,-53,-14,234,4,2,190,107,54,-4,0,0,0,0,0,3292
42.901963949,4,3,-23,26,-55,-21,83,-35,0,-58,-18,233,0,-4,191,107,54,-4,0,0,0,0,0,3293
42.921875953,4,3,-23,18,-61,-25,70,-39,-3,-73,-21,216,-3,-10,191,107,54,-4,0,0,0,0,0,3294
42.93217802,4,1,-24,9,-76,-32,57,-43,-8,-87,-31,224,-8,-17,192,107,54,-4,0,0,0,0,0,3295
42.941959142,4,1,-24,7,-87,-34,44,-47,-13,-93,-33,227,-13,-23,193,107,54,-4,0,0,0,0,0,3296
42.955850124,4,1,-24,6,-99,-36,32,-53,-18,-99,-37,230,-18,-29,193,107,52,-1,0,0,0,0,0,3297
42.965853929,3,0,-24,7,-123,-38,22,-60,-23,-94,-47,207,-23,-36,194,107,52,-1,0,0,0,0,0,3298
42.975908994,3,0,-24,9,-142,-39,13,-69,-28,-87,-58,181,-28,-42,193,107,52,-1,0,0,0,0,0,3299
42.989871025,2,-1,-24,12,-163,-39,8,-80,-32,-80,-60,165,-33,-48,192,107,51,-1,0,0,0,0,0,3300
43.000903129,2,-2,-25,20,-185,-38,5,-95,-36,-55,-60,149,-37,-54,190,107,51,-1,0,0,0,0,0,3301
43.010956049,2,-3,-25,27,-208,-36,5,-111,-38,-31,-56,148,-40,-60,189,107,51,-1,0,0,0,0,0,3302
43.024838924,1,-4,-25,35,-230,-35,7,-131,-39,-7,-50,145,-43,-66,188,107,50,0,0,0,0,0,0,3303
43.034765005,1,-6,-25,45,-1,-33,11,-152,-39,34,-38,151,-45,-71,187,107,50,0,0,0,0,0,0,3304
43.045068025,0,-7,-25,51,-11,-32,17,-174,-39,74,-31,158,-45,-75,186,107,50,0,0,0,0,0,0,3305
43.059950113,0,-8,-25,54,-14,-32,23,-197,-37,101,-30,161,-44,-78,186,107,50,0,0,0,0,0,0,3306
43.070066929,0,-10,-26,57,-9,-31,31,-220,-36,168,14,133,-42,-80,185,107,50,0,0,0,0,0,0,3307
43.079890012,0,-11,-26,57,-252,-33,39,-240,-34,189,6,141,-38,-81,183,107,50,0,0,0,0,0,0,3308
43.093950033,0,-12,-26,55,-232,-35,46,-1,-33,199,3,150,-35,-82,182,107,49,-1,0,0,0,0,0,3309
43.104088068,-1,-13,-26,51,-195,-38,52,-11,-32,229,24,178,-30,-82,181,107,49,-1,0,0,0,0,0,3310
43.116868973,-1,-14,-26,47,-167,-40,56,-12,-32,229,10,181,-24,-81,183,107,49,-1,0,0,0,0,0,3311
43.128885031,-2,-14,-26,43,-139,-42,58,-5,-32,237,1,187,-18,-79,184,107,49,0,0,0,0,0,0,3312
43.139294147,-2,-14,-27,37,-112,-43,57,-244,-34,252,4,196,-10,-76,185,107,49,0,0,0,0,0,0,3313
43.152240991,-3,-14,-27,30,-86,-42,54,-219,-36,244,0,198,-3,-71,186,107,49,0,0,0,0,0,0,3314
43.164133072,-3,-14,-27,24,-61,-40,50,-188,-38,239,-7,203,5,-66,188,107,49,0,0,0,0,0,0,3315
43.179821968,-3,-14,-27,14,-29,-33,45,-156,-40,245,-10,197,13,-60,189,107,49,0,0,0,0,0,0,3316
43.184980154,-4,-13,-27,6,-10,-26,39,-124,-42,240,-4,194,22,-53,190,107,49,0,0,0,0,0,0,3317
43.198945045,-4,-13,-27,0,5,-19,33,-95,-42,236,-10,197,31,-47,190,107,49,0,0,0,0,0,0,3318
43.211966991,-4,-12,-27,-9,25,-7,26,-68,-41,244,-10,197,39,-40,191,107,49,0,0,0,0,0,0,3319
43.219880104,-5,-11,-27,-15,38,0,19,-43,-37,233,-6,196,47,-35,191,107,49,0,0,0,0,0,0,3320
43.233004093,-5,-10,-27,-19,50,7,11,-21,-31,233,1,200,55,-30,192,107,48,0,0,0,0,0,0,3321
43.243869066,-5,-9,-27,-24,62,13,3,-1,-23,227,0,196,63,-26,192,107,48,0,0,0,0,0,0,3322
43.253997087,-5,-8,-27,-27,75,19,-4,16,-14,225,4,202,70,-22,193,107,48,0,0,0,0,0,0,3323
43.268013,-5,-7,-27,-30,88,23,-11,32,-5,225,8,201,78,-20,193,107,48,0,0,0,0,0,0,3324
43.279016971,-6,-5,-27,-33,110,29,-18,46,3,221,-1,203,85,-18,193,107,48,0,0,0,0,0,0,3325
43.288980961,-6,-4,-27,-35,126,33,-23,59,11,215,-6,203,92,-16,193,107,48,0,0,0,0,0,0,3326
43.303097009,-6,-2,-27,-37,141,36,-27,72,17,212,-6,203,98,-15,192,107,48,0,0,0,0,0,0,3327
43.313992023,-6,0,-26,-38,164,39,-30,85,23,203,-18,197,105,-15,192,107,48,0,0,0,0,0,0,3328
43.324182987,-6,0,-26,-40,173,41,-32,99,27,196,-17,192,111,-15,191,107,48,0,0,0,0,0,0,3329
43.337018013,-6,2,-26,-42,190,41,-34,115,31,183,-22,183,116,-15,190,107,47,-1,0,0,0,0,0,3330
43.347805023,-6,4,-26,-45,216,44,-36,133,34,171,-32,179,122,-16,188,107,47,-1,0,0,0,0,0,3331
43.358071089,-6,6,-26,-46,234,44,-38,151,37,157,-34,171,127,-17,187,107,47,-1,0,0,0,0,0,3332
43.371891021,-7,7,-25,-49,249,46,-39,169,40,143,-35,168,132,-17,185,107,46,-1,0,0,0,0,0,3333
43.382068157,-7,10,-25,-50,6,46,-41,187,42,116,-38,169,137,-18,184,107,46,-1,0,0,0,0,0,3334
43.394493103,-7,12,-25,-51,16,48,-43,205,43,97,-40,162,142,-18,182,107,46,-1,0,0,0,0,0,3335
43.405905962,-7,13,-25,-51,23,49,-45,223,44,75,-49,156,146,-18,181,107,45,-1,0,0,0,0,0,3336
43.415879965,-7,16,-25,-51,28,51,-47,240,45,33,-50,154,149,-19,179,107,45,-1,0,0,0,0,0,3337
43.426424026,-7,17,-24,-50,26,52,-49,255,46,13,-59,158,152,-19,178,107,45,-1,0,0,0,0,0,3338
43.439773082,-7,19,-24,-49,20,51,-50,12,47,-12,-60,164,154,-19,177,107,44,0,0,0,0,0,0,3339
43.450027942,-8,21,-24,-46,12,51,-51,21,48,-63,-53,163,154,-19,177,107,44,0,0,0,0,0,0,3340
43.460833072,-8,23,-24,-43,0,50,-51,26,49,-84,-55,163,153,-19,177,107,44,0,0,0,0,0,0,3341
43.473906994,-8,24,-23,-39,243,49,-51,27,50,-104,-55,143,152,-19,177,107,44,0,0,0,0,0,0,3342
43.484890938,-8,26,-23,-33,221,45,-50,24,51,-128,-66,145,149,-19,177,107,44,0,0,0,0,0,0,3343
43.494989156,-8,27,-23,-29,204,42,-47,17,51,-152,-63,142,144,-20,177,107,44,0,0,0,0,0,0,3344
43.51454401,-8,28,-23,-25,186,39,-45,7,50,-173,-62,142,138,-20,177,107,50,6,0,0,0,0,0,3345
43.523007154,-8,30,-23,-19,158,34,-41,249,49,-206,-65,149,130,-21,176,107,50,6,0,0,0,0,0,3346
43.533321142,-8,31,-22,-16,138,30,-36,232,47,-211,-66,147,120,-23,177,107,50,6,0,0,0,0,0,3347
43.553118944,-8,31,-22,-13,118,25,-32,213,44,-217,-66,143,110,-25,177,107,50,6,0,0,0,0,0,3348
43.563215017,-8,32,-22,-8,74,16,-27,193,40,-230,-82,147,99,-27,177,107,50,6,0,0,0,0,0,3349
43.573852062,-8,32,-22,-5,51,12,-22,171,36,-234,-66,153,88,-29,176,107,50,6,0,0,0,0,0,3350
43.593858957,-8,32,-22,-3,27,6,-18,147,32,-234,-50,163,76,-31,176,107,50,6,0,0,0,0,0,3351
43.60384202,-8,32,-22,2,-19,-1,-14,122,26,-232,-52,164,65,-32,175,107,50,6,0,0,0,0,0,3352
43.614052057,-8,31,-22,3,-42,-4,-10,95,21,-225,-61,161,53,-34,174,107,50,6,0,0,0,0,0,3353
43.631958961,-8,30,-22,5,-65,-7,-6,66,15,-222,-61,165,41,-36,173,107,56,5,0,0,0,0,0,3354
43.643590927,-8,29,-22,12,-96,-11,-3,35,9,-211,-61,162,30,-37,172,107,56,5,0,0,0,0,0,3355
43.65297699,-8,28,-22,15,-116,-13,0,4,3,-202,-58,156,18,-38,171,107,56,5,0,0,0,0,0,3356
43.672918081,-8,27,-22,20,-134,-16,2,-26,-2,-190,-57,156,8,-39,170,107,56,5,0,0,0,0,0,3357
43.682990074,-8,24,-23,30,-168,-20,5,-56,-6,-160,-60,154,-1,-41,169,107,56,5,0,0,0,0,0,3358
43.693830013,-8,23,-23,35,-184,-22,9,-83,-10,-147,-57,147,-11,-42,168,107,56,5,0,0,0,0,0,3359
43.706912994,-8,21,-23,39,-200,-24,13,-108,-13,-137,-52,144,-20,-43,167,107,54,-1,0,0,0,0,0,3360
43.717070102,-8,19,-23,44,-214,-26,18,-131,-16,-116,-42,138,-29,-44,165,107,54,-1,0,0,0,0,0,3361
43.731611013,-8,17,-23,48,-227,-28,24,-152,-18,-99,-39,133,-37,-45,164,107,54,-1,0,0,0,0,0,3362
43.74088192,-8,15,-23,51,-240,-30,30,-172,-20,-74,-37,131,-45,-46,162,107,52,-1,0,0,0,0,0,3363
43.751785993,-8,13,-23,54,0,-31,36,-191,-23,-38,-30,144,-51,-47,160,107,52,-1,0,0,0,0,0,3364
43.762279033,-8,11,-23,54,-9,-31,42,-208,-25,1,-10,144,-57,-47,159,107,52,-1,0,0,0,0,0,3365
43.775290012,-8,9,-24,52,-16,-30,46,-223,-27,25,-16,158,-62,-48,158,107,50,-1,0,0,0,0,0,3366
43.787622928,-8,7,-24,51,-19,-28,50,-237,-29,66,-23,149,-65,-48,157,107,50,-1,0,0,0,0,0,3367
43.795984983,-8,5,-24,47,-16,-27,52,-249,-30,96,-14,181,-68,-48,156,107,50,-1,0,0,0,0,0,3368
43.809894085,-8,3,-24,43,-7,-24,53,-3,-31,135,-5,180,-69,-48,156,107,49,-1,0,0,0,0,0,3369
43.820073128,-8,1,-24,35,-236,-22,53,-11,-31,177,0,186,-70,-47,156,107,49,-1,0,0,0,0,0,3370
43.831004143,-8,0,-24,29,-211,-21,52,-15,-29,207,-8,205,-69,-46,157,107,49,-1,0,0,0,0,0,3371
43.843977928,-8,-1,-24,26,-180,-21,49,-15,-28,242,-2,219,-67,-46,158,107,48,-1,0,0,0,0,0,3372
43.85407114,-8,-2,-24,16,-144,-21,45,-8,-26,7,9,229,-64,-44,159,107,48,-1,0,0,0,0,0,3373
43.864948034,-8,-3,-24,10,-107,-21,40,-250,-24,17,5,235,-60,-43,161,107,48,-1,0,0,0,0,0,3374
43.877895117,-8,-4,-25,4,-67,-20,33,-228,-22,27,1,244,-55,-42,163,107,47,-1,0,0,0,0,0,3375
43.888919115,-9,-5,-25,-4,-8,-18,27,-199,-21,11,-12,1,-50,-41,166,107,47,-1,0,0,0,0,0,3376
43.898877144,-9,-5,-25,-10,28,-15,20,-164,-20,253,-22,254,-45,-41,168,107,47,-1,0,0,0,0,0,3377
43.913933992,-9,-5,-25,-13,63,-10,13,-124,-20,244,-29,248,-39,-40,170,107,45,-1,0,0,0,0,0,3378
43.922788143,-9,-4,-25,-23,93,-4,6,-82,-20,238,-40,238,-33,-39,172,107,45,-1,0,0,0,0,0,3379
43.93288207,-9,-4,-25,-28,121,1,0,-38,-19,231,-41,229,-25,-39,174,107,45,-1,0,0,0,0,0,3380
43.946861028,-10,-4,-25,-33,145,9,-6,4,-16,219,-42,226,-18,-39,175,107,44,-1,0,0,0,0,0,3381
43.956944942,-10,-3,-25,-36,178,19,-13,45,-13,195,-35,216,-10,-38,177,107,44,-1,0,0,0,0,0,3382
43.966953039,-10,-2,-24,-38,196,27,-19,81,-8,173,-37,209,-3,-38,179,107,44,-1,0,0,0,0,0,3383
43.980844974,-10,-1,-24,-39,205,33,-25,113,-1,145,-42,198,4,-37,180,107,43,0,0,0,0,0,0,3384
43.990829944,-11,0,-24,-38,230,39,-30,140,5,105,-45,173,11,-37,181,107,43,0,0,0,0,0,0,3385
44.001891136,-11,0,-24,-37,244,43,-34,164,13,73,-48,169,18,-36,181,107,43,0,0,0,0,0,0,3386
44.014904022,-11,1,-24,-35,255,46,-37,184,22,44,-47,162,24,-36,182,107,43,0,0,0,0,0,0,3387
44.024928093,-11,3,-23,-33,7,49,-39,203,30,0,-48,167,30,-35,182,107,43,0,0,0,0,0,0,3388
44.035768032,-11,4,-23,-30,7,49,-39,220,36,-42,-68,181,34,-35,183,107,43,0,0,0,0,0,0,3389
44.048928022,-11,5,-23,-26,1,48,-38,235,42,-76,-52,171,38,-35,184,107,42,0,0,0,0,0,0,3390
44.05983901,-11,7,-23,-17,240,47,-36,248,46,-124,-50,172,41,-35,184,107,42,0,0,0,0,0,0,3391
44.07093811,-11,8,-23,-10,223,44,-34,1,48,-139,-67,158,43,-35,184,107,42,0,0,0,0,0,0,3392
44.083919048,-11,9,-23,-4,201,41,-30,5,49,-159,-76,157,45,-35,184,107,41,0,0,0,0,0,0,3393
44.093940973,-11,10,-22,5,164,34,-26,3,49,-178,-79,152,46,-36,183,107,41,0,0,0,0,0,0,3394
44.103981018,-11,10,-22,8,138,30,-21,250,47,-186,-65,143,47,-36,183,107,41,0,0,0,0,0,0,3395
44.123989105,-11,11,-22,14,125,26,-15,234,45,-195,-67,138,47,-36,182,107,41,0,0,0,0,0,0,3396
44.134904146,-11,12,-22,23,74,20,-8,212,42,-207,-37,142,46,-36,182,107,41,0,0,0,0,0,0,3397
44.145015955,-11,12,-22,26,49,15,0,185,38,-220,-32,149,45,-35,182,107,41,0,0,0,0,0,0,3398
44.164899111,-11,12,-22,27,23,11,6,156,33,-231,-26,162,43,-34,182,107,41,0,0,0,0,0,0,3399
44.175030946,-10,12,-22,26,-28,0,13,125,28,-229,-16,166,41,-33,183,107,41,0,0,0,0,0,0,3400
44.185943126,-10,12,-22,24,-54,-5,19,94,23,-221,-17,173,38,-33,184,107,41,0,0,0,0,0,0,3401
44.19890809,-10,11,-22,22,-81,-10,23,62,17,-210,-9,168,35,-32,185,107,41,0,0,0,0,0,0,3402
44.209834099,-10,11,-22,19,-106,-17,26,30,11,-188,-8,168,32,-31,186,107,41,0,0,0,0,0,0,3403
44.22006011,-10,10,-22,16,-129,-18,27,-2,5,-174,-7,162,29,-31,186,107,41,0,0,0,0,0,0,3404
44.233057022,-10,10,-22,13,-151,-21,26,-35,-1,-158,-8,157,25,-30,186,107,40,0,0,0,0,0,0,3405
44.24387002,-10,8,-22,8,-179,-24,24,-67,-7,-130,-5,157,21,-30,186,107,40,0,0,0,0,0,0,3406
44.253885984,-10,8,-22,5,-196,-25,21,-96,-13,-102,-1,158,17,-30,186,107,40,0,0,0,0,0,0,3407
44.267888069,-10,7,-22,1,-209,-24,17,-122,-18,-76,-3,167,12,-29,186,107,40,0,0,0,0,0,0,3408
44.277946949,-10,5,-23,-1,-221,-24,14,-145,-21,-31,-5,181,8,-29,186,107,40,0,0,0,0,0,0,3409
44.288111925,-9,5,-23,-5,-228,-22,10,-166,-24,6,-10,217,4,-30,187,107,40,0,0,0,0,0,0,3410
44.301934004,-10,4,-23,-9,-231,-19,6,-185,-25,40,-3,208,0,-30,187,107,39,0,0,0,0,0,0,3411
44.312091112,-10,2,-23,-17,-225,-12,3,-202,-25,90,-9,231,-3,-30,187,107,39,0,0,0,0,0,0,3412
44.32288599,-10,1,-23,-21,-213,-7,0,-215,-24,126,0,238,-6,-30,187,107,39,0,0,0,0,0,0,3413
44.335940122,-10,0,-23,-26,-195,-3,-4,-225,-22,139,-5,242,-10,-30,188,107,39,0,0,0,0,0,0,3414
44.346008062,-10,0,-23,-30,-173,-1,-8,-229,-19,126,0,223,-14,-30,187,107,39,0,0,0,0,0,0,3415
44.356996059,-10,0,-23,-34,-146,0,-13,-227,-16,92,9,241,-18,-30,187,107,39,0,0,0,0,0,0,3416
44.369878053,-10,-1,-23,-35,-113,2,-18,-220,-11,153,-15,251,-21,-30,187,107,38,0,0,0,0,0,0,3417
44.380825996,-10,-1,-23,-38,-61,5,-23,-205,-7,192,-44,212,-22,-30,186,107,38,0,0,0,0,0,0,3418
44.391119003,-10,-2,-23,-41,-32,6,-28,-185,-2,190,-77,219,-23,-31,185,107,38,0,0,0,0,0,0,3419
44.404192924,-10,-2,-23,-43,-5,9,-32,-158,0,200,-85,237,-24,-32,185,107,38,0,0,0,0,0,0,3420
44.415364027,-11,-2,-23,-44,23,13,-35,-126,2,169,-53,11,-25,-32,186,107,38,0,0,0,0,0,0,3421
44.425029039,-11,-2,-23,-47,47,17,-38,-91,4,152,-76,245,-26,-33,187,107,38,0,0,0,0,0,0,3422
44.439332008,-11,-2,-23,-49,67,21,-40,-54,6,149,-90,241,-27,-35,188,107,37,0,0,0,0,0,0,3423
44.449002981,-11,-1,-22,-51,96,27,-42,-19,8,143,-102,246,-27,-36,189,107,37,0,0,0,0,0,0,3424
44.459780931,-11,-1,-22,-50,116,31,-44,12,11,148,-78,220,-26,-37,190,107,37,0,0,0,0,0,0,3425
44.472831964,-11,-1,-22,-49,136,34,-46,40,14,137,-84,211,-24,-38,191,107,37,0,0,0,0,0,0,3426
44.482847929,-12,0,-22,-48,154,35,-47,64,19,142,-58,145,-22,-38,191,107,37,0,0,0,0,0,0,3427
44.496257066,-12,0,-22,-46,170,39,-49,86,23,147,-131,182,-18,-40,191,107,37,0,0,0,0,0,0,3428
44.506891012,-12,0,-22,-41,192,42,-50,106,28,110,-105,149,-14,-41,191,107,37,0,0,0,0,0,0,3429
44.517907142,-12,1,-21,-36,222,43,-50,126,32,45,-79,171,-11,-42,191,107,37,0,0,0,0,0,0,3430
44.528017044,-12,2,-21,-30,235,42,-49,145,36,3,-93,137,-8,-43,190,107,37,0,0,0,0,0,0,3431
44.547910928,-12,2,-21,-24,240,41,-46,165,38,-20,-101,130,-5,-44,189,107,37,0,0,0,0,0,0,3432
44.558037042,-12,5,-21,-3,239,36,-43,185,40,-98,-82,143,-3,-44,189,107,37,0,0,0,0,0,0,3433
44.568887949,-12,6,-20,7,230,33,-39,204,42,-122,-85,137,-2,-44,188,107,37,0,0,0,0,0,0,3434
44.587911129,-12,6,-20,17,216,28,-32,221,42,-130,-86,140,-1,-44,188,107,37,0,0,0,0,0,0,3435
44.598853111,-12,9,-20,32,194,20,-24,234,41,-163,-76,163,0,-45,189,107,37,0,0,0,0,0,0,3436
44.609054088,-12,9,-20,41,178,15,-14,240,39,-166,-71,164,0,-46,189,107,37,0,0,0,0,0,0,3437
44.628993034,-12,9,-20,47,162,9,-2,238,35,-167,-69,165,2,-46,190,107,37,0,0,0,0,0,0,3438
44.638998985,-11,11,-20,56,128,1,11,228,31,-192,-90,131,3,-48,189,107,37,0,0,0,0,0,0,3439
44.650041103,-11,11,-20,61,108,-2,24,211,25,-208,-91,137,3,-50,188,107,37,0,0,0,0,0,0,3440
44.669947147,-11,11,-20,62,84,-6,36,190,18,-231,-94,137,3,-52,187,107,37,0,0,0,0,0,0,3441
44.679955959,-10,11,-20,60,35,-12,46,167,11,-15,-89,146,1,-54,187,107,37,0,0,0,0,0,0,3442
44.690814018,-10,10,-20,59,10,-14,53,142,5,0,-87,161,0,-56,187,107,37,0,0,0,0,0,0,3443
44.710933923,-10,10,-20,58,-14,-17,59,116,0,-229,-56,177,-1,-57,187,107,37,0,0,0,0,0,0,3444
44.720994949,-10,9,-21,54,-47,-18,61,89,-5,-180,-42,162,-1,-58,187,107,37,0,0,0,0,0,0,3445
44.731148004,-10,9,-21,54,-67,-19,62,60,-10,-168,-36,156,-2,-59,187,107,37,0,0,0,0,0,0,3446
44.750869035,-10,8,-21,54,-83,-17,61,29,-13,-158,-28,148,-4,-59,187,107,37,0,0,0,0,0,0,3447
44.761914015,-9,6,-21,52,-110,-14,59,-1,-16,-137,-17,124,-5,-60,186,107,37,0,0,0,0,0,0,3448
44.771875143,-9,6,-21,49,-120,-11,57,-30,-17,-135,-23,145,-8,-60,185,107,37,0,0,0,0,0,0,3449
44.791918993,-9,5,-21,45,-129,-9,55,-57,-18,-123,-39,158,-11,-61,183,107,37,0,0,0,0,0,0,3450
44.802034139,-9,3,-21,36,-142,-4,53,-80,-18,-100,-10,190,-14,-61,183,107,37,0,0,0,0,0,0,3451
44.812927007,-9,2,-21,32,-148,-1,51,-99,-16,-82,-6,186,-19,-61,182,107,37,0,0,0,0,0,0,3452
44.832214117,-10,1,-21,30,-155,0,49,-115,-14,-13,4,251,-22,-61,182,107,37,0,0,0,0,0,0,3453
44.842822075,-10,0,-21,23,-167,3,46,-128,-10,-85,-42,151,-28,-62,180,107,37,0,0,0,0,0,0,3454
44.85293293,-10,-1,-21,23,-168,2,42,-138,-7,-68,-36,194,-33,-63,179,107,37,0,0,0,0,0,0,3455
44.864953041,-10,-2,-21,24,-169,0,37,-146,-3,-73,1,212,-37,-63,178,107,34,-3,0,0,0,0,0,3456
44.875309944,-10,-3,-21,25,-169,0,32,-153,0,-38,8,193,-42,-62,177,107,34,-3,0,0,0,0,0,3457
44.886234998,-10,-3,-21,27,-165,-1,27,-160,1,-39,-9,216,-48,-61,177,107,34,-3,0,0,0,0,0,3458
44.897191047,-10,-4,-21,29,-160,0,24,-165,2,-24,-8,214,-53,-60,177,107,31,-2,0,0,0,0,0,3459
44.907963037,-10,-5,-21,29,-154,0,22,-168,2,25,-5,220,-57,-58,177,107,31,-2,0,0,0,0,0,3460
44.918056011,-11,-6,-21,27,-142,2,23,-169,1,51,-1,233,-60,-56,176,107,31,-2,0,0,0,0,0,3461
44.929944992,-11,-7,-21,23,-125,5,24,-168,0,30,24,242,-63,-54,176,107,29,-2,0,0,0,0,0,3462
44.939837932,-11,-8,-21,17,-107,8,26,-163,0,54,14,254,-66,-51,176,107,29,-2,0,0,0,0,0,3463
44.950780153,-11,-8,-21,11,-86,10,28,-156,0,78,20,250,-67,-48,176,107,29,-2,0,0,0,0,0,3464
44.961899042,-11,-9,-21,2,-63,9,28,-146,0,96,11,255,-69,-46,177,107,26,-2,0,0,0,0,0,3465
44.972860098,-11,-10,-21,-6,-42,7,26,-133,2,116,27,234,-69,-43,178,107,26,-2,0,0,0,0,0,3466
44.9830091,-11,-10,-21,-16,-20,4,21,-116,5,137,32,234,-69,-41,180,107,26,-2,0,0,0,0,0,3467
45.002893924,-11,-10,-21,-26,2,0,15,-97,7,136,34,231,-70,-37,181,107,26,-2,0,0,0,0,0,3468
45.013915062,-12,-10,-21,-51,49,-7,7,-76,9,119,27,250,-69,-33,184,107,26,-2,0,0,0,0,0,3469
45.023797035,-12,-10,-21,-65,69,-10,-1,-53,9,122,38,1,-67,-31,186,107,26,-2,0,0,0,0,0,3470
45.039801121,-12,-10,-21,-77,86,-11,-12,-28,7,96,33,239,-65,-27,188,107,28,1,0,0,0,0,0,3471
45.047941923,-13,-10,-21,-88,101,-12,-25,-2,3,31,-1,230,-64,-25,191,107,28,1,0,0,0,0,0,3472
45.058763027,-13,-9,-21,-96,103,-10,-39,24,-1,3,-26,213,-61,-23,193,107,28,1,0,0,0,0,0,3473
45.078021049,-13,-9,-21,-104,104,-8,-54,50,-6,-18,-58,213,-59,-23,194,107,28,1,0,0,0,0,0,3474
45.088998079,-14,-8,-21,-112,98,-5,-69,74,-10,-60,-76,208,-57,-23,196,107,28,1,0,0,0,0,0,3475
45.100518942,-14,-8,-21,-112,91,-3,-82,93,-12,-82,-110,209,-55,-23,197,107,28,1,0,0,0,0,0,3476
45.119111061,-14,-8,-21,-106,82,-1,-94,105,-12,-108,-142,176,-53,-25,198,107,28,1,0,0,0,0,0,3477
45.129827976,-15,-8,-21,-80,53,0,-103,109,-11,-110,-167,149,-52,-28,197,107,28,1,0,0,0,0,0,3478
45.139902115,-15,-8,-21,-58,35,0,-108,106,-8,-97,-170,138,-50,-30,197,107,28,1,0,0,0,0,0,3479
45.159902096,-15,-8,-21,-30,16,0,-109,97,-5,-86,-180,141,-47,-32,197,107,28,1,0,0,0,0,0,3480
45.170036077,-14,-8,-21,30,-16,4,-104,84,-2,-65,-183,148,-42,-34,198,107,28,1,0,0,0,0,0,3481
45.1807971,-14,-8,-21,63,-30,9,-92,66,0,-60,-174,150,-37,-36,198,107,28,1,0,0,0,0,0,3482
45.200222969,-14,-9,-21,93,-41,12,-71,46,1,-49,-161,152,-32,-38,198,107,28,1,0,0,0,0,0,3483
45.210974931,-12,-9,-21,133,-57,15,-42,25,2,-35,-120,152,-27,-40,197,107,28,1,0,0,0,0,0,3484
45.221006155,-11,-9,-21,154,-66,16,-5,2,3,-23,-94,163,-23,-41,197,107,28,1,0,0,0,0,0,3485
45.241059065,-11,-10,-21,170,-71,15,35,-18,6,-3,-54,192,-19,-41,198,107,28,1,0,0,0,0,0,3486
45.254475116,-8,-10,-21,178,-66,10,76,-37,9,66,44,250,-13,-40,200,107,28,1,0,0,0,0,0,3487
45.261948108,-8,-10,-21,172,-55,6,113,-52,12,49,80,32,-9,-37,205,107,28,1,0,0,0,0,0,3488
45.285587072,-7,-10,-20,153,-40,2,144,-63,14,79,94,12,-3,-34,208,107,28,1,0,0,0,0,0,3489
45.291958093,-6,-10,-21,98,-2,-14,165,-68,15,55,137,54,0,-30,211,107,28,1,0,0,0,0,0,3490
45.302922964,-6,-10,-21,60,13,-24,175,-67,14,39,142,34,4,-26,214,107,28,1,0,0,0,0,0,3491
45.32291913,-6,-9,-21,20,24,-31,173,-60,10,18,152,19,6,-22,216,107,28,1,0,0,0,0,0,3492
45.332857132,-7,-8,-21,-55,31,-39,158,-46,3,-34,91,239,6,-20,216,107,28,1,0,0,0,0,0,3493
45.34305501,-7,-8,-22,-85,29,-40,129,-27,-5,-60,67,246,6,-17,218,107,28,1,0,0,0,0,0,3494
45.362921953,-7,-8,-22,-110,23,-37,89,-6,-15,-59,57,212,6,-15,219,107,28,1,0,0,0,0,0,3495
45.373858928,-9,-7,-22,-131,11,-31,41,13,-25,-74,-24,189,6,-15,218,107,28,1,0,0,0,0,0,3496
45.384097099,-9,-7,-22,-133,0,-26,-9,27,-34,-57,-50,163,6,-17,217,107,28,1,0,0,0,0,0,3497
45.403888941,-9,-7,-22,-128,-11,-20,-58,34,-39,-59,-87,131,5,-19,215,107,28,1,0,0,0,0,0,3498
45.41390109,-10,-7,-22,-92,-35,-7,-98,32,-40,-63,-154,156,4,-22,214,107,28,1,0,0,0,0,0,3499
45.424828052,-10,-7,-22,-64,-44,-1,-125,23,-37,-38,-171,171,3,-27,213,107,28,1,0,0,0,0,0,3500
45.444888115,-10,-7,-22,-32,-49,4,-137,10,-31,-10,-171,188,1,-31,211,107,28,1,0,0,0,0,0,3501
45.454803943,-10,-7,-22,30,-50,15,-133,-6,-23,27,-146,218,1,-35,211,107,28,1,0,0,0,0,0,3502
45.465012073,-10,-7,-22,57,-46,19,-115,-22,-14,40,-120,215,1,-38,210,107,28,1,0,0,0,0,0,3503
45.485000133,-10,-7,-22,79,-40,21,-86,-36,-5,45,-91,228,0,-41,209,107,28,1,0,0,0,0,0,3504
45.495917082,-8,-7,-22,99,-27,22,-48,-46,3,66,-38,238,0,-42,209,107,28,1,0,0,0,0,0,3505
45.505819082,-8,-7,-22,103,-17,21,-6,-51,10,66,20,11,-1,-43,210,107,28,1,0,0,0,0,0,3506
45.525944948,-8,-7,-22,95,-6,18,33,-51,16,65,48,2,-3,-42,210,107,28,1,0,0,0,0,0,3507
45.535992145,-7,-6,-21,58,20,12,67,-45,20,43,107,36,-5,-40,212,107,28,1,0,0,0,0,0,3508
45.546975136,-7,-6,-21,29,33,7,91,-36,22,29,84,19,-7,-39,212,107,28,1,0,0,0,0,0,3509
45.566882133,-7,-6,-21,-1,41,4,102,-23,22,13,75,7,-10,-38,213,107,28,1,0,0,0,0,0,3510
45.576755047,-8,-5,-21,-59,43,3,99,-9,20,-44,34,214,-14,-38,212,107,28,1,0,0,0,0,0,3511
45.587023973,-8,-5,-21,-80,36,3,82,6,16,-64,1,198,-16,-38,211,107,28,1,0,0,0,0,0,3512
45.607126951,-9,-5,-21,-93,24,3,53,21,12,-77,-32,187,-18,-38,211,107,28,1,0,0,0,0,0,3513
45.618142128,-10,-5,-21,-96,-7,1,17,33,7,-100,-74,209,-20,-38,210,107,28,1,0,0,0,0,0,3514
45.6279881,-10,-5,-21,-84,-23,0,-22,40,4,-89,-106,161,-21,-39,209,107,28,1,0,0,0,0,0,3515
45.647980928,-11,-5,-21,-76,-38,0,-58,39,1,-73,-127,155,-21,-40,208,107,28,1,0,0,0,0,0,3516
45.657938003,-11,-6,-21,-29,-54,0,-85,31,0,-8,-157,157,-18,-40,207,107,28,1,0,0,0,0,0,3517
45.668859005,-11,-6,-21,-1,-59,1,-99,15,0,2,-154,167,-15,-40,208,107,28,1,0,0,0,0,0,3518
45.688864946,-11,-6,-21,26,-60,2,-98,-4,1,34,-126,188,-12,-39,209,107,28,1,0,0,0,0,0,3519
45.699085951,-10,-7,-21,71,-49,5,-84,-26,1,65,-84,237,-8,-36,212,107,28,1,0,0,0,0,0,3520
45.70898509,-10,-7,-21,86,-37,6,-58,-45,1,94,-49,2,-4,-33,214,107,28,1,0,0,0,0,0,3521
45.72894001,-9,-6,-21,95,-22,5,-25,-57,1,97,-24,19,0,-29,217,107,39,11,0,0,0,0,0,3522
45.743603945,-8,-6,-21,92,12,2,10,-62,1,109,48,44,3,-24,221,107,39,11,0,0,0,0,0,3523
45.749928951,-8,-6,-21,80,32,0,45,-58,2,87,74,31,6,-19,224,107,39,11,0,0,0,0,0,3524
45.769865989,-7,-5,-21,60,50,-4,73,-47,3,82,82,29,9,-15,228,107,39,11,0,0,0,0,0,3525
45.779983043,-7,-4,-21,19,71,-10,91,-29,4,31,106,9,9,-11,229,107,39,11,0,0,0,0,0,3526
45.790188074,-7,-4,-21,-12,81,-12,97,-7,3,2,92,253,8,-9,229,107,39,11,0,0,0,0,0,3527
45.809966087,-7,-3,-21,-42,86,-13,91,16,1,-25,88,232,6,-9,228,107,39,11,0,0,0,0,0,3528
45.821016073,-8,-2,-21,-94,79,-8,72,40,-1,-60,44,189,2,-10,226,107,39,11,0,0,0,0,0,3529
45.830927133,-8,-2,-21,-111,68,-3,44,60,-5,-95,6,172,0,-14,223,107,39,11,0,0,0,0,0,3530
45.850788116,-8,-2,-21,-122,52,0,10,75,-9,-108,-46,158,-4,-18,219,107,39,11,0,0,0,0,0,3531
45.861096143,-10,-1,-21,-120,10,4,-27,83,-11,-127,-115,120,-8,-25,215,107,39,11,0,0,0,0,0,3532
45.871894121,-10,-1,-21,-108,-12,5,-63,84,-11,-122,-130,124,-10,-31,213,107,39,11,0,0,0,0,0,3533
45.890944957,-10,-2,-21,-88,-34,5,-94,75,-9,-103,-154,125,-11,-36,210,107,39,11,0,0,0,0,0,3534
45.901889086,-11,-2,-21,-49,-60,6,-115,59,-5,-43,-171,155,-11,-42,208,107,39,11,0,0,0,0,0,3535
45.911824941,-11,-3,-21,-20,-70,6,-124,36,0,-19,-160,172,-9,-45,208,107,39,11,0,0,0,0,0,3536
45.932174921,-11,-3,-21,9,-74,7,-120,8,4,4,-143,181,-8,-48,208,107,39,11,0,0,0,0,0,3537
45.941978931,-10,-4,-21,58,-67,8,-103,-19,6,53,-121,212,-5,-49,210,107,39,11,0,0,0,0,0,3538
45.952801943,-10,-4,-21,77,-57,8,-75,-45,8,58,-100,228,-2,-47,212,107,39,11,0,0,0,0,0,3539
45.972983122,-10,-4,-21,93,-46,6,-41,-64,8,69,-82,247,0,-45,214,107,39,11,0,0,0,0,0,3540
45.983088016,-8,-4,-21,112,-17,0,-4,-74,8,80,-38,18,2,-42,216,107,39,11,0,0,0,0,0,3541
45.993834018,-8,-4,-21,114,-2,-2,31,-75,7,76,-12,26,3,-38,218,107,39,11,0,0,0,0,0,3542
46.012961149,-8,-4,-21,110,12,-5,63,-68,6,73,8,26,4,-35,219,107,48,9,0,0,0,0,0,3543
46.022972107,-7,-3,-21,89,37,-11,88,-53,5,62,54,12,5,-31,220,107,48,9,0,0,0,0,0,3544
46.033915996,-6,-3,-21,79,48,-14,106,-34,3,34,73,16,4,-29,221,107,48,9,0,0,0,0,0,3545
46.055269956,-6,-2,-21,59,52,-18,114,-13,0,17,88,4,3,-27,221,107,48,9,0,0,0,0,0,3546
46.062967062,-6,-1,-22,7,60,-20,113,6,-3,-29,91,240,0,-26,220,107,48,9,0,0,0,0,0,3547
46.07287693,-6,-1,-22,-20,59,-21,104,25,-7,-56,83,228,-1,-26,219,107,48,9,0,0,0,0,0,3548
46.092801094,-6,-1,-22,-45,54,-20,87,40,-12,-78,77,200,-4,-27,217,107,48,9,0,0,0,0,0,3549
46.103852987,-7,-1,-22,-84,31,-16,63,52,-16,-92,45,171,-7,-27,215,107,48,9,0,0,0,0,0,3550
46.113857984,-8,-1,-22,-97,15,-12,34,58,-19,-103,9,173,-8,-28,214,107,48,9,0,0,0,0,0,3551
46.133966923,-8,-1,-22,-105,-2,-9,2,59,-20,-111,-28,213,-9,-29,214,107,48,9,0,0,0,0,0,3552
46.144232988,-9,-1,-22,-104,-42,-5,-30,54,-20,-80,-86,166,-9,-30,214,107,48,9,0,0,0,0,0,3553
46.154885053,-10,-1,-22,-94,-59,-1,-61,43,-19,-64,-100,166,-8,-31,212,107,48,9,0,0,0,0,0,3554
46.174180984,-10,-2,-22,-80,-73,0,-86,27,-15,-37,-135,184,-7,-31,213,107,48,9,0,0,0,0,0,3555
46.185014009,-10,-3,-22,-48,-82,4,-102,5,-11,35,-151,204,-4,-32,214,107,48,9,0,0,0,0,0,3556
46.195133924,-10,-3,-22,-24,-79,7,-108,-18,-7,89,-144,226,-2,-32,216,107,48,9,0,0,0,0,0,3557
46.207078933,-10,-3,-22,0,-68,9,-104,-42,-3,113,-132,245,0,-31,218,107,44,-4,0,0,0,0,0,3558
46.217014074,-10,-3,-22,25,-38,12,-90,-63,0,127,-122,13,2,-31,220,107,44,-4,0,0,0,0,0,3559
46.22793293,-10,-3,-22,47,-27,13,-68,-77,3,129,-112,7,4,-32,221,107,44,-4,0,0,0,0,0,3560
46.239300966,-10,-3,-22,67,-2,13,-42,-82,6,117,-103,9,4,-33,221,107,40,-3,0,0,0,0,0,3561
46.249746084,-9,-3,-22,90,35,11,-14,-76,8,96,-78,8,4,-34,220,107,40,-3,0,0,0,0,0,3562
46.259945154,-9,-2,-22,99,57,10,13,-61,10,80,-57,250,4,-37,219,107,40,-3,0,0,0,0,0,3563
46.279147148,-9,-2,-22,102,74,9,38,-39,12,56,-42,254,3,-40,218,107,49,8,0,0,0,0,0,3564
46.28977108,-7,-1,-22,97,90,7,60,-12,13,5,4,245,1,-42,217,107,49,8,0,0,0,0,0,3565
46.299915075,-7,0,-22,87,94,4,78,15,13,-30,37,237,0,-44,217,107,49,8,0,0,0,0,0,3566
46.319841146,-7,0,-22,74,92,1,92,42,12,-70,53,220,-1,-45,216,107,49,8,0,0,0,0,0,3567
46.329867124,-7,0,-22,38,70,-9,99,65,10,-128,59,173,-4,-45,214,107,49,8,0,0,0,0,0,3568
46.340870142,-7,0,-22,17,52,-15,100,82,8,-138,65,151,-6,-45,213,107,49,8,0,0,0,0,0,3569
46.36009407,-7,0,-22,-1,28,-20,94,92,5,-146,53,147,-7,-44,213,107,49,8,0,0,0,0,0,3570
46.371070146,-8,0,-22,-35,-25,-26,80,92,1,-135,49,143,-8,-41,212,107,49,8,0,0,0,0,0,3571
46.380959987,-8,0,-22,-48,-52,-26,60,83,-4,-117,24,143,-8,-38,213,107,49,8,0,0,0,0,0,3572
46.401028156,-8,0,-22,-57,-76,-24,35,65,-10,-101,2,146,-7,-35,214,107,49,8,0,0,0,0,0,3573
46.411880016,-9,-1,-23,-63,-106,-20,8,38,-16,-41,-26,166,-6,-31,215,107,49,8,0,0,0,0,0,3574
46.421894073,-9,-2,-23,-63,-118,-17,-16,6,-21,-3,-32,172,-5,-28,215,107,49,8,0,0,0,0,0,3575
46.443701982,-9,-2,-23,-60,-125,-15,-38,-28,-25,15,-49,183,-4,-25,215,107,49,8,0,0,0,0,0,3576
46.451977014,-10,-4,-23,-45,-117,-7,-54,-62,-26,91,-63,198,-2,-23,216,107,49,8,0,0,0,0,0,3577
46.462944984,-10,-4,-23,-36,-104,-3,-64,-91,-25,119,-55,214,0,-21,216,107,49,8,0,0,0,0,0,3578
46.482098102,-10,-4,-23,-26,-86,0,-66,-112,-21,129,-63,232,1,-20,216,107,49,8,0,0,0,0,0,3579
46.493004083,-10,-4,-23,-8,-47,7,-63,-123,-16,122,-65,253,2,-20,216,107,49,8,0,0,0,0,0,3580
46.505769014,-9,-4,-23,0,-29,10,-55,-124,-11,104,-68,6,3,-21,216,107,49,8,0,0,0,0,0,3581
46.522891044,-9,-4,-23,5,-14,12,-43,-114,-5,89,-70,8,3,-22,215,107,49,8,0,0,0,0,0,3582
46.532855987,-9,-4,-23,13,-1,13,-31,-96,0,31,-60,2,2,-24,215,107,49,8,0,0,0,0,0,3583
46.543977976,-9,-4,-22,17,0,13,-18,-73,4,7,-66,3,1,-27,214,107,49,8,0,0,0,0,0,3584
46.562927961,-9,-4,-22,22,-3,12,-6,-48,8,-9,-64,235,0,-30,214,107,58,8,0,0,0,0,0,3585
46.573935985,-8,-4,-22,29,-26,10,3,-24,11,-28,-53,232,-1,-34,213,107,58,8,0,0,0,0,0,3586
46.583825111,-8,-4,-22,32,-40,9,11,-7,13,-22,-46,225,0,-37,212,107,58,8,0,0,0,0,0,3587
46.603935003,-8,-4,-22,34,-54,8,17,0,13,0,-48,231,0,-41,213,107,66,8,0,0,0,0,0,3588
46.613986015,-8,-5,-22,32,-68,4,22,0,13,55,-24,233,3,-43,213,107,66,8,0,0,0,0,0,3589
46.624794006,-8,-5,-22,28,-64,1,26,-8,12,85,-10,255,8,-45,215,107,66,8,0,0,0,0,0,3590
46.644062042,-8,-5,-22,24,-52,-1,29,-24,10,110,8,233,13,-45,217,107,66,8,0,0,0,0,0,3591
46.655070066,-8,-5,-22,11,-9,-11,31,-41,8,136,47,237,19,-43,218,107,66,8,0,0,0,0,0,3592
46.665843963,-8,-4,-22,3,18,-17,32,-55,5,140,37,235,25,-40,219,107,66,8,0,0,0,0,0,3593
46.684944153,-8,-4,-22,-1,47,-23,30,-61,2,129,21,235,30,-37,221,107,66,8,0,0,0,0,0,3594
46.696115017,-8,-2,-23,-21,88,-30,26,-56,-1,90,13,225,33,-33,222,107,66,8,0,0,0,0,0,3595
46.705897093,-8,-2,-23,-30,110,-32,19,-38,-6,64,-6,231,34,-29,223,107,66,8,0,0,0,0,0,3596
46.725933075,-8,-1,-23,-36,128,-30,10,-9,-12,44,-19,222,33,-26,223,107,66,8,0,0,0,0,0,3597
46.736171007,-9,0,-23,-46,143,-22,0,26,-19,-25,-55,207,29,-24,222,107,66,8,0,0,0,0,0,3598
46.746917963,-9,1,-23,-48,137,-15,-11,63,-25,-50,-71,218,25,-23,220,107,66,8,0,0,0,0,0,3599
46.766801119,-9,2,-23,-47,125,-6,-23,96,-29,-108,-37,199,19,-21,219,107,66,8,0,0,0,0,0,3600
46.777001142,-9,3,-23,-43,74,8,-33,122,-30,-147,-53,165,12,-20,216,107,66,8,0,0,0,0,0,3601
46.787059068,-9,3,-23,-39,40,14,-41,137,-28,-153,-101,209,6,-20,215,107,66,8,0,0,0,0,0,3602
46.80696392,-9,3,-23,-33,1,17,-46,140,-21,-143,-96,199,0,-21,214,107,66,8,0,0,0,0,0,3603
46.817106962,-10,2,-23,-18,-49,23,-48,128,-12,-113,-99,185,-3,-23,212,107,66,8,0,0,0,0,0,3604
46.828037023,-10,2,-23,-10,-79,24,-47,104,-2,-84,-87,185,-5,-25,210,107,66,8,0,0,0,0,0,3605
46.846816063,-9,1,-23,-1,-103,23,-43,69,8,-66,-85,205,-6,-28,210,107,72,5,0,0,0,0,0,3606
46.856863022,-9,0,-23,14,-136,19,-35,26,16,5,-70,217,-4,-31,210,107,72,5,0,0,0,0,0,3607
46.866887092,-9,0,-22,21,-142,15,-26,-17,22,32,-46,190,0,-34,210,107,72,5,0,0,0,0,0,3608
46.88711214,-9,-1,-22,24,-142,11,-16,-60,25,66,-51,209,4,-37,211,107,79,6,0,0,0,0,0,3609
46.897031069,-9,-2,-22,27,-125,1,-5,-95,25,105,-23,236,10,-39,214,107,79,6,0,0,0,0,0,3610
46.908077955,-9,-2,-22,25,-117,-5,5,-122,22,114,-17,246,16,-40,216,107,79,6,0,0,0,0,0,3611
46.927780151,-9,-2,-22,23,-99,-12,15,-139,18,140,-11,254,23,-41,219,107,79,6,0,0,0,0,0,3612
46.937951088,-8,-3,-23,14,-55,-22,22,-144,12,153,-17,33,29,-42,223,107,79,6,0,0,0,0,0,3613
46.948028087,-8,-3,-23,8,-30,-27,26,-139,6,156,-9,23,34,-41,225,107,79,6,0,0,0,0,0,3614
46.967916012,-9,-2,-23,3,-4,-32,27,-126,-1,162,-20,9,38,-41,228,107,79,6,0,0,0,0,0,3615
46.978822946,-9,-1,-23,-7,47,-35,25,-105,-8,151,-31,250,42,-41,229,107,79,6,0,0,0,0,0,3616
46.988966942,-9,-1,-24,-11,71,-34,20,-78,-16,140,-32,244,43,-40,231,107,79,6,0,0,0,0,0,3617
47.008836984,-9,0,-24,-14,92,-31,13,-47,-23,118,-33,242,43,-39,231,107,79,6,0,0,0,0,0,3618
47.018881082,-9,1,-24,-18,124,-20,6,-13,-29,78,-36,230,42,-39,231,107,79,6,0,0,0,0,0,3619
47.029922008,-9,2,-24,-19,133,-13,-1,20,-33,48,-39,234,40,-38,231,107,79,6,0,0,0,0,0,3620
47.049188137,-9,2,-24,-20,138,-4,-8,53,-34,15,-41,220,37,-37,230,107,79,6,0,0,0,0,0,3621
47.059877157,-9,4,-24,-21,137,9,-13,83,-32,-31,-30,219,34,-36,229,107,79,6,0,0,0,0,0,3622
47.069909096,-9,5,-24,-20,131,18,-17,108,-27,-56,-42,210,32,-36,227,107,79,6,0,0,0,0,0,3623
47.089879036,-9,5,-24,-18,120,27,-20,127,-19,-89,-41,207,30,-35,226,107,79,6,0,0,0,0,0,3624
47.100059032,-10,6,-23,-14,84,40,-21,138,-9,-124,-55,186,27,-35,225,107,79,6,0,0,0,0,0,3625
47.110955953,-10,7,-23,-9,59,43,-21,141,1,-129,-59,162,24,-35,223,107,79,6,0,0,0,0,0,3626
47.129979133,-10,7,-23,-4,30,44,-20,136,13,-139,-60,169,22,-36,222,107,85,5,0,0,0,0,0,3627
47.14003396,-9,6,-22,7,-31,39,-18,123,24,-127,-58,157,18,-36,220,107,85,5,0,0,0,0,0,3628
47.150968075,-9,6,-22,13,-60,34,-15,103,33,-115,-48,165,14,-36,218,107,85,5,0,0,0,0,0,3629
47.169954061,-9,6,-22,18,-85,29,-11,75,40,-90,-47,168,10,-37,216,107,85,5,0,0,0,0,0,3630
47.180885076,-9,4,-22,23,-113,18,-6,41,43,-22,-32,183,6,-38,215,107,85,5,0,0,0,0,0,3631
47.191024065,-9,4,-22,25,-126,11,0,3,43,-5,-49,195,3,-41,214,107,85,5,0,0,0,0,0,3632
47.210991144,-9,3,-22,26,-131,4,8,-34,40,31,-34,185,0,-43,212,107,85,5,0,0,0,0,0,3633
47.221853018,-9,1,-22,22,-123,-13,15,-70,33,91,0,209,0,-43,212,107,85,5,0,0,0,0,0,3634
47.231935978,-9,1,-22,18,-109,-22,21,-100,25,113,-1,234,0,-44,212,107,85,5,0,0,0,0,0,3635
47.252049923,-9,1,-22,12,-89,-31,25,-121,15,139,4,1,2,-43,213,107,85,5,0,0,0,0,0,3636
47.262057066,-9,0,-23,0,-38,-46,26,-131,5,162,-20,11,5,-43,214,107,85,5,0,0,0,0,0,3637
47.272916078,-9,0,-23,-6,-9,-50,25,-130,-5,157,-19,13,9,-42,215,107,85,5,0,0,0,0,0,3638
47.292014122,-9,0,-23,-11,17,-52,21,-118,-16,145,-22,7,14,-41,216,107,85,5,0,0,0,0,0,3639
47.303056001,-9,1,-24,-16,55,-50,15,-97,-27,113,-44,240,20,-41,218,107,85,5,0,0,0,0,0,3640
47.313061952,-9,1,-24,-17,76,-45,7,-68,-37,92,-55,238,26,-41,219,107,85,5,0,0,0,0,0,3641
47.333029985,-9,2,-24,-17,93,-38,0,-33,-46,70,-59,232,31,-40,220,107,85,5,0,0,0,0,0,3642
47.343860149,-10,3,-24,-15,113,-18,-8,1,-51,24,-63,223,35,-40,220,107,85,5,0,0,0,0,0,3643
47.354115963,-10,4,-24,-13,116,-6,-14,36,-52,-8,-75,227,38,-39,222,107,85,5,0,0,0,0,0,3644
47.372919082,-10,5,-24,-10,113,6,-17,65,-49,-45,-69,219,39,-38,222,107,89,4,0,0,0,0,0,3645
47.383819103,-10,6,-24,-1,89,31,-19,89,-41,-95,-63,215,38,-38,223,107,89,4,0,0,0,0,0,3646
47.394083977,-10,6,-24,2,70,41,-18,105,-30,-133,-52,230,35,-38,223,107,89,4,0,0,0,0,0,3647
47.413934946,-10,6,-24,8,46,49,-15,113,-15,-129,-45,181,31,-37,223,107,89,4,0,0,0,0,0,3648
47.424097061,-9,6,-23,17,3,55,-11,112,0,-114,-47,170,26,-37,222,107,89,4,0,0,0,0,0,3649
47.435553074,-9,6,-23,21,-28,54,-6,103,17,-109,-40,175,21,-38,220,107,89,4,0,0,0,0,0,3650
47.453943968,-9,6,-23,25,-57,52,0,84,32,-98,-43,185,15,-38,219,107,89,4,0,0,0,0,0,3651
47.46529603,-9,5,-22,27,-105,40,5,59,45,-45,-32,205,11,-39,217,107,89,4,0,0,0,0,0,3652
47.47488904,-9,4,-22,27,-122,32,12,27,53,-28,-10,212,6,-39,216,107,89,4,0,0,0,0,0,3653
47.494821071,-9,4,-22,25,-132,24,18,-8,56,2,-2,215,2,-39,214,107,89,4,0,0,0,0,0,3654
47.505217075,-9,2,-22,18,-132,2,23,-44,54,76,24,238,0,-38,213,107,89,4,0,0,0,0,0,3655
47.516268015,-9,1,-22,13,-123,-9,26,-78,48,107,10,226,0,-36,213,107,89,4,0,0,0,0,0,3656
47.535830021,-9,1,-22,8,-108,-20,27,-106,39,128,9,233,0,-35,212,107,89,4,0,0,0,0,0,3657
47.545941114,-9,0,-22,-4,-66,-39,26,-126,27,158,9,5,0,-34,213,107,89,4,0,0,0,0,0,3658
47.55676794,-9,0,-23,-12,-39,-46,23,-135,13,163,5,14,2,-33,214,107,89,4,0,0,0,0,0,3659
47.575838089,-9,0,-23,-13,-9,-51,17,-132,-1,166,-2,15,5,-32,215,107,89,4,0,0,0,0,0,3660
47.586817026,-9,0,-24,-21,33,-54,10,-117,-16,159,-22,253,9,-32,216,107,89,4,0,0,0,0,0,3661
47.596971988,-9,1,-24,-24,61,-53,2,-92,-29,149,-33,239,13,-32,216,107,89,4,0,0,0,0,0,3662
47.616951942,-9,1,-24,-25,86,-50,-5,-60,-41,132,-44,230,18,-32,217,107,89,4,0,0,0,0,0,3663
47.626992941,-9,3,-24,-22,125,-37,-13,-24,-49,78,-41,221,22,-32,217,107,89,4,0,0,0,0,0,3664
47.639321089,-9,3,-24,-18,137,-26,-19,11,-54,45,-52,221,26,-32,218,107,89,4,0,0,0,0,0,3665
47.656944036,-9,4,-25,-14,143,-15,-23,46,-55,22,-56,212,30,-32,219,107,89,4,0,0,0,0,0,3666
47.667807102,-9,6,-24,-10,137,11,-24,78,-51,-60,-60,230,32,-32,221,107,89,4,0,0,0,0,0,3667
47.677899122,-9,6,-24,-7,127,25,-24,105,-44,-76,-21,209,33,-31,222,107,89,4,0,0,0,0,0,3668
47.697965145,-9,7,-24,-7,112,37,-22,126,-33,-103,-39,195,34,-31,223,107,89,4,0,0,0,0,0,3669
47.708065986,-9,8,-24,-6,82,48,-18,139,-19,-144,-30,177,32,-30,223,107,89,4,0,0,0,0,0,3670
47.718869924,-9,8,-23,-5,54,52,-13,142,-3,-136,-34,165,29,-30,222,107,89,4,0,0,0,0,0,3671
47.738927126,-9,8,-23,0,23,54,-9,136,13,-151,-26,174,26,-30,222,107,89,4,0,0,0,0,0,3672
47.74902606,-9,7,-23,5,-42,49,-6,121,29,-130,-23,161,22,-29,221,107,89,4,0,0,0,0,0,3673
47.763786077,-9,7,-22,6,-72,43,-4,99,42,-122,-29,164,16,-30,220,107,89,4,0,0,0,0,0,3674
47.779073953,-9,7,-22,10,-98,36,-3,69,51,-89,-11,171,11,-30,219,107,89,4,0,0,0,0,0,3675
47.790260076,-9,5,-22,14,-139,19,-1,33,55,-33,-10,182,7,-31,217,107,89,4,0,0,0,0,0,3676
47.799795151,-9,4,-22,13,-151,9,1,-5,54,-9,-24,167,3,-31,214,107,89,4,0,0,0,0,0,3677
47.827700138,-9,3,-22,13,-158,-1,4,-46,48,27,-17,192,0,-31,212,107,89,4,0,0,0,0,0,3678
47.831445932,-8,1,-22,12,-150,-22,7,-85,40,93,-2,221,-1,-30,211,107,89,4,0,0,0,0,0,3679
47.840927124,-8,1,-22,10,-146,-33,11,-118,28,123,-2,242,-1,-29,211,107,89,4,0,0,0,0,0,3680
47.860856056,-8,0,-22,5,-130,-41,13,-143,15,150,-9,0,0,-28,212,107,89,4,0,0,0,0,0,3681
47.870985985,-8,0,-23,-4,-80,-51,14,-157,2,196,-20,20,3,-27,213,107,89,4,0,0,0,0,0,3682
47.880923986,-8,0,-23,-8,-47,-55,13,-160,-11,210,-14,28,8,-26,214,107,89,4,0,0,0,0,0,3683
47.900924921,-8,0,-24,-12,-11,-58,11,-152,-25,211,-19,13,13,-25,216,107,94,4,0,0,0,0,0,3684
47.91162014,-8,0,-24,-16,60,-53,7,-134,-37,192,-30,253,19,-24,216,107,94,4,0,0,0,0,0,3685
47.92097497,-8,1,-24,-16,92,-48,1,-105,-47,177,-46,243,26,-23,217,107,94,4,0,0,0,0,0,3686
47.938924074,-8,1,-25,-14,119,-40,-4,-69,-53,147,-48,234,33,-23,217,107,96,2,0,0,0,0,0,3687
47.949988127,-8,3,-25,-9,149,-24,-9,-26,-57,94,-48,231,38,-23,218,107,96,2,0,0,0,0,0,3688
47.960291147,-8,4,-25,-5,162,-11,-14,19,-56,55,-70,229,43,-24,220,107,96,2,0,0,0,0,0,3689
47.980004072,-8,4,-25,-2,169,2,-16,65,-52,11,-64,224,46,-24,221,107,96,2,0,0,0,0,0,3690
47.990006923,-8,7,-24,2,167,30,-16,105,-44,-50,-48,221,47,-24,222,107,96,2,0,0,0,0,0,3691
48.000975132,-8,7,-24,5,157,41,-13,138,-33,-94,-31,219,46,-24,222,107,96,2,0,0,0,0,0,3692
48.020795107,-8,8,-24,6,141,49,-9,160,-19,-116,-24,161,44,-25,221,107,96,2,0,0,0,0,0,3693
48.030889034,-8,9,-23,8,94,56,-4,171,-3,-160,1,187,39,-25,220,107,96,2,0,0,0,0,0,3694
48.041882992,-8,10,-23,10,63,55,0,171,13,-174,-1,174,33,-25,219,107,96,2,0,0,0,0,0,3695
48.061057091,-8,10,-23,9,28,52,4,162,30,-171,-32,164,26,-26,217,107,96,2,0,0,0,0,0,3696
48.071999073,-7,9,-22,14,-24,44,7,144,44,-155,-22,172,19,-27,216,107,96,2,0,0,0,0,0,3697
48.082076072,-7,9,-22,12,-56,36,9,118,53,-120,-12,166,12,-28,213,107,96,2,0,0,0,0,0,3698
48.101882934,-7,8,-22,12,-82,28,10,85,58,-83,-7,164,6,-28,211,107,96,2,0,0,0,0,0,3699
48.111906051,-7,7,-22,11,-119,11,11,46,57,-35,-14,180,1,-28,208,107,96,2,0,0,0,0,0,3700
48.122906923,-7,6,-22,9,-129,4,11,5,51,3,10,200,-2,-27,207,107,96,2,0,0,0,0,0,3701
48.142859936,-7,5,-22,5,-131,-2,12,-34,43,29,31,189,-5,-26,206,107,96,2,0,0,0,0,0,3702
48.153002023,-7,4,-22,-3,-117,-15,12,-71,32,86,2,209,-6,-25,205,107,96,2,0,0,0,0,0,3703
48.162955999,-7,3,-22,-6,-102,-20,11,-101,20,98,-4,216,-6,-24,205,107,96,2,0,0,0,0,0,3704
48.182035923,-7,3,-22,-12,-82,-25,9,-121,9,107,-5,223,-4,-23,205,107,100,3,0,0,0,0,0,3705
48.192934036,-7,2,-23,-19,-48,-30,6,-131,0,113,0,232,-2,-21,206,107,100,3,0,0,0,0,0,3706
48.202916145,-7,2,-23,-23,-24,-32,2,-129,-10,110,-3,244,2,-20,206,107,100,3,0,0,0,0,0,3707
48.222885132,-7,2,-23,-27,-2,-32,-3,-117,-17,111,-3,250,6,-19,207,107,100,3,0,0,0,0,0,3708
48.23309803,-8,2,-23,-34,35,-28,-9,-96,-23,83,-23,240,11,-19,208,107,100,3,0,0,0,0,0,3709
48.24390006,-8,2,-23,-37,48,-24,-15,-69,-28,68,-28,241,16,-19,210,107,100,3,0,0,0,0,0,3710
48.263744116,-8,3,-24,-39,56,-19,-21,-40,-31,47,-27,236,21,-19,212,107,100,3,0,0,0,0,0,3711
48.273963928,-8,4,-24,-43,63,-7,-27,-11,-32,0,-44,237,25,-19,213,107,100,3,0,0,0,0,0,3712
48.283895015,-8,4,-24,-44,61,-1,-31,15,-30,-8,-52,227,28,-20,215,107,100,3,0,0,0,0,0,3713
48.304026127,-8,4,-24,-42,55,6,-35,38,-27,-30,-36,249,30,-20,217,107,100,3,0,0,0,0,0,3714
48.314835071,-9,5,-23,-44,42,13,-38,54,-21,-52,-45,224,31,-21,218,107,100,3,0,0,0,0,0,3715
48.325010061,-9,5,-23,-43,31,16,-41,63,-14,-51,-63,221,31,-22,219,107,100,3,0,0,0,0,0,3716
48.344887972,-9,5,-23,-40,17,20,-43,65,-6,-56,-75,218,29,-23,221,107,100,3,0,0,0,0,0,3717
48.354922056,-9,5,-23,-27,-8,22,-44,60,1,-32,-81,215,28,-25,221,107,100,3,0,0,0,0,0,3718
48.365822077,-9,5,-23,-18,-18,22,-43,51,9,-29,-89,225,25,-27,221,107,100,3,0,0,0,0,0,3719
48.384945154,-9,5,-23,-9,-28,22,-42,38,15,-21,-107,211,21,-30,220,107,100,3,0,0,0,0,0,3720
48.395875931,-9,4,-23,18,-36,22,-39,22,19,16,-115,214,18,-33,219,107,100,3,0,0,0,0,0,3721
48.405988931,-9,4,-22,33,-36,21,-33,6,22,25,-116,213,14,-35,218,107,100,3,0,0,0,0,0,3722
48.425929069,-8,4,-22,49,-33,20,-24,-9,23,38,-111,201,9,-37,216,107,100,3,0,0,0,0,0,3723
48.435940027,-8,4,-22,75,-27,18,-12,-22,23,34,-97,193,5,-39,214,107,100,3,0,0,0,0,0,3724
48.446805,-7,4,-22,92,-21,18,3,-32,22,40,-95,193,1,-41,212,107,100,3,0,0,0,0,0,3725
48.471732139,-7,3,-22,107,-15,17,22,-37,22,26,-75,197,-2,-42,211,107,100,3,0,0,0,0,0,3726
48.476817131,-6,3,-22,129,-5,14,42,-37,20,14,-56,194,-5,-42,210,107,100,3,0,0,0,0,0,3727
48.486957073,-5,3,-22,137,-1,13,62,-33,19,14,-27,198,-7,-41,209,107,100,3,0,0,0,0,0,3728
48.506840944,-5,3,-22,141,1,11,83,-27,18,16,-10,213,-8,-40,209,107,100,3,0,0,0,0,0,3729
48.51789093,-3,3,-22,140,5,6,101,-19,17,5,33,217,-8,-37,209,107,100,3,0,0,0,0,0,3730
48.528427124,-3,3,-22,137,4,3,117,-11,15,1,55,211,-7,-35,208,107,100,3,0,0,0,0,0,3731
48.546910047,-3,3,-22,130,3,0,130,-4,14,-2,90,222,-5,-32,208,107,104,4,0,0,0,0,0,3732
48.558023929,-2,2,-22,107,-4,-8,139,1,11,-17,94,225,-2,-29,210,107,104,4,0,0,0,0,0,3733
48.56807208,-1,2,-22,100,-9,-13,142,4,8,-21,107,221,0,-26,211,107,104,4,0,0,0,0,0,3734
48.587875128,-1,2,-22,83,-14,-17,140,5,5,-23,123,225,4,-23,212,107,104,4,0,0,0,0,0,3735
48.597875118,-1,2,-22,46,-27,-22,133,3,0,-12,141,229,8,-19,214,107,104,4,0,0,0,0,0,3736
48.608833074,-1,2,-22,24,-32,-24,121,0,-4,0,139,231,12,-15,215,107,104,4,0,0,0,0,0,3737
48.628921032,-1,1,-22,4,-36,-25,106,-5,-9,13,136,231,15,-11,217,107,104,4,0,0,0,0,0,3738
48.638985157,-1,1,-23,-34,-36,-25,86,-12,-14,31,135,227,18,-7,219,107,104,4,0,0,0,0,0,3739
48.648936987,-2,1,-23,-52,-33,-23,64,-20,-19,39,128,225,20,-4,220,107,104,4,0,0,0,0,0,3740
48.669028997,-2,1,-23,-69,-27,-21,39,-27,-23,49,115,225,21,-1,220,107,104,4,0,0,0,0,0,3741
48.68219614,-3,1,-23,-98,-10,-15,13,-33,-25,51,97,230,22,0,221,107,104,4,0,0,0,0,0,3742
48.689949035,-3,1,-23,-111,0,-11,-13,-35,-26,54,85,226,21,2,222,107,104,4,0,0,0,0,0,3743
48.71588993,-4,1,-23,-123,9,-8,-40,-35,-24,56,72,231,20,4,222,107,104,4,0,0,0,0,0,3744
48.720863104,-5,2,-23,-139,23,-3,-64,-30,-22,42,42,227,18,5,222,107,104,4,0,0,0,0,0,3745
48.730827093,-5,2,-23,-148,31,0,-86,-21,-18,36,12,228,16,5,222,107,104,4,0,0,0,0,0,3746
48.750054121,-6,2,-23,-154,37,2,-104,-9,-14,32,-8,224,14,5,222,107,107,3,0,0,0,0,0,3747
48.76096797,-8,3,-23,-162,48,7,-120,2,-9,25,-35,225,12,4,221,107,107,3,0,0,0,0,0,3748
48.770851135,-8,3,-23,-162,51,9,-133,15,-5,23,-52,223,11,3,221,107,107,3,0,0,0,0,0,3749
48.790835142,-8,3,-23,-159,54,12,-144,27,-1,13,-68,209,9,2,220,107,111,3,0,0,0,0,0,3750
48.800903082,-10,4,-23,-144,52,14,-152,37,2,-5,-109,199,8,0,219,107,111,3,0,0,0,0,0,3751
48.811022997,-10,4,-23,-132,48,16,-157,44,5,-15,-131,197,8,-1,218,107,111,3,0,0,0,0,0,3752
48.833642959,-10,4,-23,-118,43,17,-160,49,8,-27,-157,201,7,-4,217,107,111,3,0,0,0,0,0,3753
48.841088056,-11,4,-22,-92,34,18,-158,52,11,-38,-184,201,7,-7,216,107,111,3,0,0,0,0,0,3754
48.851897955,-11,4,-22,-67,27,18,-152,52,13,-45,-189,206,7,-11,215,107,111,3,0,0,0,0,0,3755
48.871811151,-11,4,-22,-43,19,18,-141,50,15,-16,-205,196,8,-14,215,107,111,3,0,0,0,0,0,3756
48.881961107,-10,4,-22,11,6,16,-125,46,16,-30,-199,168,9,-17,214,107,111,3,0,0,0,0,0,3757
48.892051935,-10,4,-22,39,1,15,-104,40,18,-25,-181,184,9,-20,213,107,111,3,0,0,0,0,0,3758
48.912028074,-10,4,-22,65,-3,13,-79,32,18,-15,-164,177,9,-22,212,107,111,3,0,0,0,0,0,3759
48.922034979,-8,4,-22,106,-13,10,-50,23,18,-19,-125,165,9,-22,210,107,111,3,0,0,0,0,0,3760
48.933000087,-8,4,-22,125,-19,9,-17,14,17,-10,-115,157,8,-22,209,107,111,3,0,0,0,0,0,3761
48.952862978,-7,4,-22,142,-26,7,17,5,16,-21,-97,156,7,-22,208,107,111,3,0,0,0,0,0,3762
48.962974071,-5,3,-22,162,-37,4,52,-2,14,-17,-38,185,6,-20,207,107,111,3,0,0,0,0,0,3763
48.973021984,-4,3,-22,170,-43,1,86,-10,12,-19,-23,173,5,-18,207,107,111,3,0,0,0,0,0,3764
48.993078947,-4,3,-22,176,-48,-1,115,-17,10,-19,-3,185,3,-16,207,107,111,3,0,0,0,0,0,3765
49.003863096,-2,2,-22,178,-54,-6,138,-24,7,6,69,208,3,-12,207,107,111,3,0,0,0,0,0,3766
49.017674923,-1,2,-22,173,-54,-8,156,-31,5,19,97,217,3,-8,207,107,111,3,0,0,0,0,0,3767
49.033020019,0,1,-22,163,-53,-11,168,-38,2,34,92,210,3,-5,208,107,113,2,0,0,0,0,0,3768
49.043049097,0,1,-22,133,-45,-18,175,-45,0,36,118,226,4,-2,208,107,113,2,0,0,0,0,0,3769
49.053902149,0,1,-22,112,-39,-20,177,-50,-3,46,133,231,5,0,208,107,113,2,0,0,0,0,0,3770
49.07388711,1,1,-22,91,-33,-22,173,-53,-7,47,164,234,6,2,209,107,113,2,0,0,0,0,0,3771
49.08385992,1,0,-23,53,-23,-22,164,-53,-10,39,119,223,7,3,209,107,113,2,0,0,0,0,0,3772
49.09386611,1,0,-23,27,-15,-21,149,-50,-14,46,169,243,9,5,209,107,113,2,0,0,0,0,0,3773
49.113837003,1,0,-23,0,-8,-20,128,-45,-17,52,178,254,10,7,210,107,113,2,0,0,0,0,0,3774
49.125067949,1,1,-23,-51,7,-16,102,-37,-20,62,156,254,13,7,211,107,113,2,0,0,0,0,0,3775
49.135038137,1,1,-23,-76,16,-12,73,-28,-22,63,145,246,14,7,211,107,113,2,0,0,0,0,0,3776
49.154803991,0,1,-23,-98,24,-9,41,-19,-22,45,143,238,16,8,212,107,113,2,0,0,0,0,0,3777
49.164886951,0,1,-23,-137,38,-2,8,-9,-21,32,97,221,16,7,211,107,113,2,0,0,0,0,0,3778
49.176855087,-1,2,-23,-152,44,1,-25,0,-19,29,69,207,16,5,211,107,113,2,0,0,0,0,0,3779
49.194929123,-1,2,-23,-166,48,5,-58,10,-15,17,47,209,15,3,210,107,113,2,0,0,0,0,0,3780
49.205913067,-4,3,-23,-183,50,11,-90,21,-11,0,10,209,14,0,210,107,113,2,0,0,0,0,0,3781
49.215803146,-4,3,-23,-191,51,14,-118,30,-6,-6,-20,214,13,-2,210,107,113,2,0,0,0,0,0,3782
49.234068155,-5,3,-23,-196,48,17,-143,39,0,-15,-47,212,11,-5,209,107,113,0,0,0,0,0,0,3783
49.244915008,-7,3,-22,-194,40,19,-163,46,4,-26,-92,201,9,-9,209,107,113,0,0,0,0,0,0,3784
49.254977941,-7,3,-22,-186,35,20,-178,50,8,-26,-123,185,7,-13,208,107,113,0,0,0,0,0,0,3785
49.274892092,-8,3,-22,-173,27,21,-188,52,12,-26,-167,190,6,-18,207,107,113,0,0,0,0,0,0,3786
49.284857988,-9,4,-22,-143,14,22,-194,50,16,-55,-247,168,3,-24,205,107,113,0,0,0,0,0,0,3787
49.294919967,-10,4,-22,-111,4,20,-194,45,18,-36,-246,187,2,-29,204,107,113,0,0,0,0,0,0,3788
49.314871073,-10,3,-22,-78,-6,20,-189,39,20,-28,-248,174,1,-34,203,107,113,0,0,0,0,0,0,3789
49.326030016,-10,3,-22,1,-21,22,-176,30,21,-22,-240,187,0,-38,202,107,113,0,0,0,0,0,0,3790
49.335941076,-10,3,-22,39,-25,21,-156,20,22,0,-229,182,0,-41,202,107,113,0,0,0,0,0,0,3791
49.356039047,-9,3,-21,71,-25,20,-128,10,21,-15,-204,180,0,-43,202,107,113,0,0,0,0,0,0,3792
49.365961075,-8,2,-21,121,-25,14,-90,-1,21,-19,-143,164,0,-43,201,107,113,0,0,0,0,0,0,3793
49.376874923,-8,2,-21,142,-26,11,-44,-11,21,-22,-119,164,0,-41,200,107,113,0,0,0,0,0,0,3794
49.397022962,-7,2,-21,158,-30,6,4,-20,20,-21,-107,160,1,-39,199,107,113,0,0,0,0,0,0,3795
49.406968117,-5,1,-21,183,-42,-1,53,-26,19,-22,-58,155,1,-35,198,107,113,0,0,0,0,0,0,3796
49.417407989,-4,1,-21,190,-49,-4,97,-29,17,-21,-21,164,1,-31,197,107,113,0,0,0,0,0,0,3797
49.436939955,-4,1,-21,194,-56,-7,133,-31,13,-20,5,171,1,-26,197,107,113,0,0,0,0,0,0,3798
49.44790101,-2,0,-21,194,-65,-10,160,-33,9,3,70,185,2,-20,197,107,113,0,0,0,0,0,0,3799
49.457899093,-1,0,-21,190,-69,-12,178,-36,3,15,101,196,3,-15,198,107,113,0,0,0,0,0,0,3800
49.478069067,-1,0,-22,182,-71,-15,188,-42,-1,23,112,197,3,-9,199,107,113,0,0,0,0,0,0,3801
49.487911939,0,0,-22,150,-68,-19,193,-49,-6,44,138,196,5,-3,200,107,113,0,0,0,0,0,0,3802
49.498784065,1,0,-22,129,-63,-21,194,-58,-10,46,150,212,7,1,201,107,113,0,0,0,0,0,0,3803
49.510946035,1,0,-22,104,-57,-22,190,-65,-13,56,177,247,9,6,203,107,104,-9,0,0,0,0,0,3804
49.521502018,1,-1,-22,75,-49,-23,180,-69,-15,87,213,21,11,11,205,107,104,-9,0,0,0,0,0,3805
49.53188014,2,-1,-22,44,-38,-22,166,-71,-17,86,214,28,13,15,207,107,104,-9,0,0,0,0,0,3806
49.550848007,2,-1,-22,11,-26,-20,145,-68,-19,103,203,34,15,17,209,107,108,4,0,0,0,0,0,3807
49.56234312,1,0,-22,-52,5,-16,119,-62,-21,108,165,1,17,19,210,107,108,4,0,0,0,0,0,3808
49.571974993,1,0,-22,-80,22,-13,90,-53,-22,96,143,250,19,20,210,107,108,4,0,0,0,0,0,3809
49.590918064,1,0,-22,-103,38,-10,57,-42,-22,94,131,234,20,20,211,107,111,3,0,0,0,0,0,3810
49.602003097,0,0,-23,-134,64,-3,20,-27,-21,76,73,231,21,18,210,107,111,3,0,0,0,0,0,3811
49.61196804,0,1,-23,-144,75,0,-17,-10,-19,67,43,231,21,16,211,107,111,3,0,0,0,0,0,3812
49.632014036,0,1,-23,-148,84,3,-55,8,-15,57,21,228,22,12,210,107,111,3,0,0,0,0,0,3813
49.641982078,-2,2,-22,-152,92,9,-90,29,-11,29,-20,221,21,7,209,107,111,3,0,0,0,0,0,3814
49.65280509,-3,3,-22,-149,96,12,-119,49,-7,17,-39,215,20,2,209,107,111,3,0,0,0,0,0,3815
49.672964096,-3,3,-22,-143,96,13,-140,67,-2,-1,-65,203,18,-2,207,107,111,3,0,0,0,0,0,3816
49.682806015,-4,4,-22,-124,89,16,-152,81,2,-30,-88,209,16,-8,207,107,111,3,0,0,0,0,0,3817
49.693048,-5,5,-22,-112,81,16,-156,91,6,-55,-108,199,14,-13,206,107,111,3,0,0,0,0,0,3818
49.712990999,-5,5,-22,-99,69,15,-154,96,10,-63,-110,217,12,-18,206,107,111,3,0,0,0,0,0,3819
49.723067045,-6,5,-22,-71,40,12,-146,97,13,-86,-115,223,9,-22,207,107,111,3,0,0,0,0,0,3820
49.733952999,-6,5,-22,-56,23,8,-134,93,15,-88,-113,219,7,-25,207,107,111,3,0,0,0,0,0,3821
49.752920151,-6,5,-22,-41,5,3,-119,85,16,-98,-108,213,5,-27,207,107,115,3,0,0,0,0,0,3822
49.763855934,-7,5,-22,-22,-20,-5,-103,72,15,-104,-73,193,2,-28,206,107,115,3,0,0,0,0,0,3823
49.773898124,-7,4,-22,-12,-36,-12,-85,56,13,-92,-52,195,1,-27,206,107,115,3,0,0,0,0,0,3824
49.794018984,-7,4,-22,-4,-52,-18,-67,36,10,-86,-52,199,0,-25,207,107,115,3,0,0,0,0,0,3825
49.803964138,-7,3,-22,4,-83,-29,-49,15,5,-73,-38,208,-1,-22,207,107,115,3,0,0,0,0,0,3826
49.814861059,-7,2,-22,5,-101,-34,-32,-6,0,-65,-35,212,-1,-16,208,107,115,3,0,0,0,0,0,3827
49.834910154,-6,2,-23,5,-118,-37,-18,-28,-7,-54,-47,205,-2,-11,209,107,118,3,0,0,0,0,0,3828
49.844954014,-6,0,-23,4,-154,-41,-6,-50,-15,-32,-40,189,-2,-6,209,107,118,3,0,0,0,0,0,3829
49.855055094,-6,0,-23,4,-171,-43,1,-70,-23,-19,-29,181,-2,-1,209,107,118,3,0,0,0,0,0,3830
49.874916076,-6,0,-23,6,-184,-44,5,-92,-30,-4,-27,178,-2,3,209,107,118,3,0,0,0,0,0,3831
49.885834932,-6,-3,-24,8,-199,-46,7,-113,-36,61,-38,167,0,7,208,107,118,3,0,0,0,0,0,3832
49.89598608,-5,-3,-24,11,-203,-49,7,-135,-40,99,-41,194,2,10,209,107,118,3,0,0,0,0,0,3833
49.915941,-5,-4,-24,12,-199,-50,6,-157,-43,136,-41,195,6,12,210,107,118,3,0,0,0,0,0,3834
49.926105022,-5,-6,-25,14,-171,-52,6,-176,-45,206,-31,197,12,14,211,107,118,3,0,0,0,0,0,3835
49.936896085,-4,-6,-25,15,-145,-53,6,-191,-46,244,-25,232,19,15,213,107,118,3,0,0,0,0,0,3836
49.948945045,-4,-6,-25,13,-115,-51,8,-199,-47,253,-17,195,25,15,214,107,108,-9,0,0,0,0,0,3837
49.960077047,-4,-6,-26,14,-78,-49,10,-198,-49,243,-42,217,32,13,215,107,108,-9,0,0,0,0,0,3838
49.969341039,-3,-6,-26,12,-38,-46,12,-186,-50,254,-50,209,38,10,215,107,108,-9,0,0,0,0,0,3839
49.989067077,-3,-5,-26,12,3,-43,14,-165,-51,237,-56,201,44,6,216,107,112,3,0,0,0,0,0,3840
49.999886989,-3,-4,-26,10,85,-30,15,-135,-52,217,-67,208,49,2,216,107,112,3,0,0,0,0,0,3841
50.010061025,-3,-3,-26,9,121,-22,15,-98,-51,216,-75,208,53,-2,216,107,112,3,0,0,0,0,0,3842
50.030199051,-3,-2,-27,7,153,-12,14,-55,-48,190,-76,193,57,-8,216,107,112,3,0,0,0,0,0,3843
50.039984941,-2,0,-26,5,202,11,12,-8,-43,151,-62,193,59,-14,214,107,112,3,0,0,0,0,0,3844
50.050941944,-2,2,-26,2,219,23,11,41,-36,124,-50,200,60,-21,212,107,112,3,0,0,0,0,0,3845
50.070903063,-3,3,-26,0,232,36,9,91,-27,81,-39,188,60,-27,210,107,112,3,0,0,0,0,0,3846
50.082754135,-3,6,-25,-7,243,60,7,138,-15,23,-35,185,58,-33,207,107,112,3,0,0,0,0,0,3847
50.0910151,-3,7,-25,-8,243,70,6,178,-1,-16,-23,204,55,-38,206,107,112,3,0,0,0,0,0,3848
50.110949993,-3,8,-25,-10,235,73,3,210,14,-56,-31,204,51,-42,205,107,115,2,0,0,0,0,0,3849
50.120898962,-4,11,-24,-10,200,82,0,232,31,-152,-41,198,45,-46,204,107,115,2,0,0,0,0,0,3850
50.131920099,-4,11,-24,-6,169,82,-2,243,47,-191,-64,208,38,-50,203,107,115,2,0,0,0,0,0,3851
50.151036024,-4,12,-23,-2,130,82,-5,244,61,-223,-66,201,31,-53,203,107,117,2,0,0,0,0,0,3852
50.161085129,-4,12,-22,10,42,72,-8,235,73,-219,-59,178,24,-55,201,107,117,2,0,0,0,0,0,3853
50.176599979,-5,12,-22,15,-2,65,-9,216,80,-186,-59,165,18,-56,200,107,117,2,0,0,0,0,0,3854
50.191995144,-5,12,-22,21,-44,57,-8,185,83,-159,-35,179,14,-56,199,107,117,2,0,0,0,0,0,3855
50.201899051,-5,10,-21,28,-93,45,-4,144,82,-110,-15,142,11,-54,198,107,117,2,0,0,0,0,0,3856
50.212263107,-5,10,-21,30,-118,37,1,93,78,-90,4,148,10,-52,196,107,117,2,0,0,0,0,0,3857
50.231907129,-5,9,-21,31,-137,30,9,37,71,-59,-3,158,10,-49,195,107,117,2,0,0,0,0,0,3858
50.242846012,-5,7,-21,29,-163,15,17,-18,61,-12,10,166,11,-46,194,107,117,2,0,0,0,0,0,3859
50.252944946,-5,6,-21,25,-169,7,24,-68,51,27,29,201,14,-43,193,107,117,2,0,0,0,0,0,3860
50.272994995,-5,5,-21,20,-170,-1,29,-109,41,52,36,213,17,-39,193,107,117,2,0,0,0,0,0,3861
50.283000946,-5,3,-21,4,-154,-18,32,-139,31,108,34,251,22,-35,194,107,117,2,0,0,0,0,0,3862
50.293836117,-6,3,-21,-6,-137,-26,31,-158,21,142,35,10,29,-33,196,107,117,2,0,0,0,0,0,3863
50.312963009,-6,3,-21,-16,-115,-33,28,-167,11,166,29,23,35,-31,198,107,117,2,0,0,0,0,0,3864
50.323862076,-6,2,-22,-37,-61,-41,21,-168,1,197,13,19,42,-29,200,107,117,2,0,0,0,0,0,3865
50.334018945,-6,2,-22,-41,-31,-43,12,-161,-9,203,5,10,49,-28,201,107,117,2,0,0,0,0,0,3866
50.35672307,-7,3,-22,-49,-2,-43,1,-146,-19,204,-6,3,56,-27,202,107,117,2,0,0,0,0,0,3867
50.365002155,-7,4,-23,-57,44,-41,-11,-122,-29,174,-27,241,62,-27,203,107,117,2,0,0,0,0,0,3868
50.374820947,-8,4,-23,-58,72,-37,-24,-92,-37,155,-38,242,66,-27,205,107,117,2,0,0,0,0,0,3869
50.394922018,-8,5,-23,-58,97,-31,-36,-56,-42,135,-49,231,70,-27,206,107,120,2,0,0,0,0,0,3870
50.405049085,-8,7,-23,-51,136,-14,-47,-17,-44,94,-84,209,73,-29,207,107,120,2,0,0,0,0,0,3871
50.418918133,-8,8,-23,-45,150,-3,-54,21,-44,49,-86,210,72,-30,208,107,120,2,0,0,0,0,0,3872
50.435225963,-9,9,-23,-38,159,7,-58,58,-39,30,-81,200,71,-31,208,107,120,2,0,0,0,0,0,3873
50.445909023,-9,11,-23,-20,163,32,-58,90,-32,-25,-98,198,67,-32,208,107,120,2,0,0,0,0,0,3874
50.455882072,-9,12,-23,-9,157,43,-55,118,-22,-56,-113,192,60,-34,208,107,120,2,0,0,0,0,0,3875
50.475950002,-9,12,-22,3,146,54,-49,140,-10,-85,-109,193,52,-36,207,107,120,2,0,0,0,0,0,3876
50.486029148,-8,14,-22,22,121,67,-41,155,3,-129,-94,165,42,-38,206,107,120,2,0,0,0,0,0,3877
50.496999979,-8,14,-21,34,96,73,-29,162,19,-137,-79,159,33,-39,205,107,120,2,0,0,0,0,0,3878
50.516186952,-8,14,-21,44,65,75,-16,161,34,-146,-71,158,23,-40,203,107,120,2,0,0,0,0,0,3879
50.526930094,-8,14,-20,59,-3,73,-2,152,49,-158,-44,184,13,-39,203,107,120,2,0,0,0,0,0,3880
50.537007093,-8,13,-20,64,-39,69,12,134,61,-154,-33,188,3,-39,202,107,120,2,0,0,0,0,0,3881
50.556996107,-7,13,-20,65,-70,64,27,109,70,-131,-24,200,-4,-37,202,107,120,2,0,0,0,0,0,3882
50.567050934,-7,11,-19,60,-118,49,40,75,75,-104,7,200,-12,-35,202,107,120,2,0,0,0,0,0,3883
50.577928066,-7,10,-19,54,-135,40,51,35,76,-81,13,221,-18,-33,203,107,120,2,0,0,0,0,0,3884
50.597856045,-7,9,-19,46,-147,30,60,-9,73,-36,33,231,-22,-31,204,107,120,2,0,0,0,0,0,3885
50.607938051,-6,7,-19,31,-157,14,64,-53,66,14,56,253,-23,-29,206,107,120,2,0,0,0,0,0,3886
50.617821932,-6,6,-19,20,-157,2,64,-92,57,31,52,250,-23,-27,207,107,120,2,0,0,0,0,0,3887
50.637974024,-6,5,-19,9,-153,-9,59,-125,46,58,35,2,-21,-25,209,107,120,2,0,0,0,0,0,3888
50.64795208,-6,3,-19,-11,-133,-31,51,-147,34,94,17,0,-17,-24,210,107,120,2,0,0,0,0,0,3889
50.658883095,-6,2,-19,-21,-118,-39,40,-159,21,117,21,1,-11,-22,211,107,120,2,0,0,0,0,0,3890
50.677783012,-6,2,-19,-30,-98,-47,27,-162,8,136,19,1,-2,-20,213,107,121,1,0,0,0,0,0,3891
50.688833952,-7,1,-20,-39,-52,-57,13,-156,-5,167,3,247,6,-18,214,107,121,1,0,0,0,0,0,3892
50.698821068,-7,1,-20,-41,-24,-60,0,-144,-19,184,-8,237,16,-17,215,107,121,1,0,0,0,0,0,3893
50.717993974,-7,1,-20,-41,5,-61,-14,-126,-32,186,-20,232,26,-16,217,107,122,1,0,0,0,0,0,3894
50.728126049,-7,2,-21,-39,50,-58,-25,-103,-43,177,-37,217,34,-16,218,107,122,1,0,0,0,0,0,3895
50.738808155,-7,2,-21,-37,79,-54,-34,-75,-52,160,-44,211,41,-17,219,107,122,1,0,0,0,0,0,3896
50.758913994,-7,3,-21,-34,105,-47,-40,-43,-58,138,-57,208,47,-18,221,107,122,1,0,0,0,0,0,3897
50.768891096,-8,5,-22,-27,147,-29,-43,-8,-61,113,-60,200,51,-20,222,107,122,1,0,0,0,0,0,3898
50.779042959,-8,6,-22,-23,161,-18,-42,27,-61,67,-67,200,53,-22,223,107,122,1,0,0,0,0,0,3899
50.799205065,-8,6,-22,-20,170,-7,-39,62,-56,33,-60,201,53,-24,223,107,122,1,0,0,0,0,0,3900
50.809817075,-8,9,-22,-12,174,14,-35,96,-49,-33,-38,187,51,-26,222,107,122,1,0,0,0,0,0,3901
50.819883108,-8,10,-22,-8,167,25,-30,125,-39,-54,-29,176,47,-28,220,107,122,1,0,0,0,0,0,3902
50.839931011,-8,10,-22,-3,156,33,-25,149,-26,-89,-35,176,41,-29,218,107,122,1,0,0,0,0,0,3903
50.850090027,-8,12,-21,3,126,42,-20,166,-12,-161,-31,155,33,-31,215,107,122,1,0,0,0,0,0,3904
50.861135006,-8,12,-21,9,96,44,-15,174,2,-186,-27,154,23,-32,212,107,122,1,0,0,0,0,0,3905
50.88372302,-8,12,-21,13,60,45,-10,173,16,-206,-33,154,13,-33,209,107,122,1,0,0,0,0,0,3906
50.890991926,-7,11,-20,20,-20,36,-5,162,29,-206,-47,172,3,-34,207,107,122,1,0,0,0,0,0,3907
50.901000976,-7,11,-20,21,-61,29,0,141,38,-182,-27,183,-5,-34,206,107,122,1,0,0,0,0,0,3908
50.920967102,-7,10,-20,21,-99,20,5,111,44,-160,-4,186,-13,-33,204,107,122,1,0,0,0,0,0,3909
50.932105064,-7,8,-20,20,-160,1,11,71,45,-80,-12,159,-18,-32,202,107,122,1,0,0,0,0,0,3910
50.942049026,-7,7,-20,19,-181,-7,16,24,42,-44,0,182,-22,-30,202,107,122,1,0,0,0,0,0,3911
50.961856127,-7,6,-20,17,-196,-17,19,-27,35,-27,-7,195,-24,-28,201,107,122,1,0,0,0,0,0,3912
50.972033024,-7,3,-21,10,-205,-33,21,-79,25,34,35,198,-24,-25,201,107,122,1,0,0,0,0,0,3913
50.982870102,-7,2,-21,5,-198,-40,22,-127,13,71,20,232,-21,-22,202,107,122,1,0,0,0,0,0,3914
51.002790928,-7,1,-21,2,-184,-46,21,-166,0,120,26,251,-17,-19,204,107,122,1,0,0,0,0,0,3915
51.013065099,-7,0,-22,-8,-151,-51,18,-193,-13,195,-2,15,-10,-16,206,107,122,1,0,0,0,0,0,3916
51.023746013,-7,-1,-22,-15,-123,-54,14,-207,-25,215,0,22,-1,-14,208,107,122,1,0,0,0,0,0,3917
51.04302907,-7,-1,-22,-19,-90,-55,8,-206,-36,235,-4,8,7,-12,211,107,122,1,0,0,0,0,0,3918
51.05399394,-7,-1,-23,-26,-16,-53,2,-194,-44,235,-16,2,17,-10,214,107,122,1,0,0,0,0,0,3919
51.063892126,-7,-1,-23,-27,22,-50,-3,-171,-50,245,-29,2,27,-10,215,107,122,1,0,0,0,0,0,3920
51.083971023,-7,0,-23,-26,60,-45,-10,-139,-53,224,-39,249,36,-10,217,107,122,1,0,0,0,0,0,3921
51.09407115,-7,0,-23,-24,122,-28,-16,-99,-55,162,-58,232,44,-11,218,107,122,1,0,0,0,0,0,3922
51.104799986,-7,1,-23,-21,144,-17,-22,-54,-54,111,-56,220,49,-13,218,107,122,1,0,0,0,0,0,3923
51.124825001,-7,2,-23,-17,159,-6,-25,-6,-51,79,-55,194,53,-14,217,107,122,1,0,0,0,0,0,3924
51.134931087,-7,5,-23,-8,167,11,-27,42,-45,-37,-71,154,53,-17,216,107,122,1,0,0,0,0,0,3925
51.145030975,-7,5,-23,-1,163,23,-26,87,-37,-74,-64,156,51,-20,213,107,122,1,0,0,0,0,0,3926
51.164927006,-7,6,-23,2,152,34,-24,126,-25,-115,-57,124,47,-23,210,107,122,1,0,0,0,0,0,3927
51.174960136,-7,8,-22,12,106,48,-19,153,-12,-178,-40,171,41,-25,208,107,122,1,0,0,0,0,0,3928
51.188399076,-7,8,-22,18,72,52,-13,168,1,-190,-19,199,34,-26,206,107,122,1,0,0,0,0,0,3929
51.205742121,-6,8,-22,20,33,53,-6,170,16,-192,-18,200,26,-27,205,107,122,1,0,0,0,0,0,3930
51.216195106,-6,8,-21,16,-43,49,0,157,29,-146,-14,210,19,-27,204,107,122,1,0,0,0,0,0,3931
51.226899147,-6,7,-21,16,-76,44,7,132,40,-123,-8,205,12,-28,203,107,122,1,0,0,0,0,0,3932
51.245804071,-6,7,-21,14,-104,36,13,95,49,-81,-8,213,5,-28,202,107,123,1,0,0,0,0,0,3933
51.256130934,-6,5,-21,10,-131,23,17,50,53,-9,19,250,0,-27,203,107,123,1,0,0,0,0,0,3934
51.266081094,-6,4,-21,4,-138,13,19,1,53,55,23,232,-2,-25,203,107,123,1,0,0,0,0,0,3935
51.285959959,-6,4,-21,-1,-133,3,19,-46,49,119,22,8,-3,-23,204,107,125,1,0,0,0,0,0,3936
51.296030044,-6,3,-21,-21,-89,-20,16,-88,41,225,23,18,0,-21,206,107,125,1,0,0,0,0,0,3937
51.306860924,-7,2,-21,-32,-52,-31,12,-119,31,5,6,20,2,-20,208,107,125,1,0,0,0,0,0,3938
51.326939106,-7,2,-21,-43,-7,-42,6,-135,19,253,-7,12,7,-18,210,107,125,1,0,0,0,0,0,3939
51.33694005,-7,3,-22,-54,85,-52,-1,-134,5,197,-17,237,11,-17,210,107,125,1,0,0,0,0,0,3940
51.346951961,-7,4,-22,-57,125,-50,-11,-115,-8,142,-45,214,15,-17,211,107,125,1,0,0,0,0,0,3941
51.367820024,-7,4,-22,-59,156,-45,-23,-79,-22,95,-76,181,19,-19,211,107,127,2,0,0,0,0,0,3942
51.378025055,-8,6,-23,-58,181,-28,-35,-30,-35,-35,-86,147,20,-20,211,107,127,2,0,0,0,0,0,3943
51.388025999,-8,7,-23,-56,180,-15,-46,27,-44,-98,-92,137,22,-21,210,107,127,2,0,0,0,0,0,3944
51.408185005,-8,8,-23,-48,166,-2,-55,85,-49,-184,-85,146,22,-23,210,107,127,2,0,0,0,0,0,3945
51.418074131,-9,9,-23,-26,92,15,-60,135,-48,-245,-101,173,21,-24,210,107,127,2,0,0,0,0,0,3946
51.428874016,-9,9,-22,-12,39,22,-61,170,-40,-11,-104,194,20,-26,211,107,127,2,0,0,0,0,0,3947
51.449044943,-8,9,-22,1,-18,28,-57,183,-28,-247,-92,184,18,-28,211,107,127,2,0,0,0,0,0,3948
51.458950996,-8,7,-22,27,-113,30,-50,173,-12,-126,-67,184,19,-29,211,107,127,2,0,0,0,0,0,3949
51.469026088,-8,6,-22,37,-144,29,-38,138,3,-65,-75,202,19,-31,212,107,127,2,0,0,0,0,0,3950
51.488816023,-8,6,-22,44,-162,27,-23,84,17,16,-59,8,21,-32,214,107,129,1,0,0,0,0,0,3951
51.498840093,-7,4,-21,48,-152,21,-5,18,27,110,-8,212,24,-32,214,107,129,1,0,0,0,0,0,3952
51.510010957,-7,4,-21,45,-143,17,12,-50,32,157,2,217,27,-33,215,107,129,1,0,0,0,0,0,3953
51.529124975,-7,3,-21,40,-117,14,28,-110,33,197,5,251,30,-33,215,107,130,1,0,0,0,0,0,3954
51.539942026,-7,3,-21,23,-41,7,40,-152,31,210,21,39,33,-33,216,107,130,1,0,0,0,0,0,3955
51.549905061,-7,3,-21,12,1,3,47,-170,26,193,17,63,33,-33,218,107,130,1,0,0,0,0,0,3956
51.570091963,-7,3,-21,0,42,1,49,-164,20,172,-8,56,31,-33,218,107,132,1,0,0,0,0,0,3957
51.580048084,-7,5,-21,-22,110,3,44,-135,14,95,-23,245,28,-34,218,107,132,1,0,0,0,0,0,3958
51.591114044,-7,5,-21,-32,132,6,34,-89,10,49,-41,217,23,-34,217,107,132,1,0,0,0,0,0,3959
51.61085701,-7,6,-21,-38,143,10,21,-34,6,-16,-57,208,17,-35,216,107,132,1,0,0,0,0,0,3960
51.620934963,-8,7,-21,-38,127,16,5,22,3,-119,-78,184,8,-36,214,107,132,1,0,0,0,0,0,3961
51.631875992,-8,8,-21,-30,101,17,-9,74,3,-176,-84,156,0,-37,212,107,132,1,0,0,0,0,0,3962
51.651124,-8,8,-21,-17,65,16,-23,113,4,-193,-106,136,-7,-38,210,107,132,1,0,0,0,0,0,3963
51.66237998,-8,7,-21,7,2,11,-33,137,7,-165,-74,123,-13,-38,208,107,132,1,0,0,0,0,0,3964
51.672034025,-8,7,-21,24,-37,7,-37,140,10,-130,-56,129,-15,-38,208,107,132,1,0,0,0,0,0,3965
51.691983938,-8,6,-21,40,-70,3,-35,124,13,-65,-48,139,-15,-38,207,107,132,1,0,0,0,0,0,3966
51.702103138,-7,5,-21,64,-108,-3,-25,90,15,32,-20,183,-11,-37,209,107,132,1,0,0,0,0,0,3967
51.713142156,-7,4,-21,67,-109,-7,-9,45,15,72,14,3,-5,-35,211,107,132,1,0,0,0,0,0,3968
51.732140064,-7,3,-21,66,-98,-9,10,-4,12,108,16,35,1,-34,213,107,132,1,0,0,0,0,0,3969
51.742962122,-6,3,-21,47,-49,-11,30,-50,7,140,31,27,10,-33,215,107,132,1,0,0,0,0,0,3970
51.753181934,-6,3,-21,34,-16,-10,49,-86,1,131,41,30,17,-32,217,107,132,1,0,0,0,0,0,3971
51.772335052,-6,3,-21,18,15,-9,61,-106,-4,117,47,9,23,-30,219,107,132,1,0,0,0,0,0,3972
51.78283,-6,3,-21,-5,52,-3,66,-106,-8,49,12,233,26,-30,219,107,132,1,0,0,0,0,0,3973
51.792968035,-7,4,-21,-18,68,0,62,-87,-11,2,0,208,26,-30,218,107,132,1,0,0,0,0,0,3974
51.812778949,-7,4,-21,-28,76,4,49,-53,-11,-39,-26,197,24,-32,217,107,133,0,0,0,0,0,0,3975
51.822921991,-7,5,-21,-39,65,9,31,-12,-10,-100,-51,200,18,-33,216,107,133,0,0,0,0,0,0,3976
51.833877086,-7,5,-21,-37,45,9,10,27,-7,-126,-49,181,10,-35,213,107,133,0,0,0,0,0,0,3977
51.852913141,-7,5,-21,-31,19,8,-9,58,-2,-143,-49,166,0,-37,211,107,134,1,0,0,0,0,0,3978
51.863991976,-8,4,-21,-11,-43,2,-25,75,1,-115,-55,179,-9,-38,208,107,134,1,0,0,0,0,0,3979
51.873961925,-8,4,-21,0,-69,-2,-35,77,5,-64,-52,199,-15,-39,207,107,134,1,0,0,0,0,0,3980
51.89398098,-8,3,-21,9,-88,-8,-38,62,8,2,-35,252,-19,-38,208,107,135,1,0,0,0,0,0,3981
51.905045986,-8,2,-21,21,-92,-15,-35,34,8,106,-15,8,-19,-37,211,107,135,1,0,0,0,0,0,3982
51.914906978,-8,1,-21,22,-76,-18,-25,-1,6,161,4,4,-14,-35,213,107,135,1,0,0,0,0,0,3983
51.934947967,-8,1,-21,21,-50,-19,-12,-39,2,196,12,244,-6,-32,216,107,135,1,0,0,0,0,0,3984
51.944884062,-7,1,-21,15,1,-19,1,-70,-3,160,15,246,1,-30,219,107,135,1,0,0,0,0,0,3985
51.955829143,-7,1,-21,9,36,-17,13,-89,-10,117,1,227,10,-27,220,107,135,1,0,0,0,0,0,3986
51.975933075,-7,1,-22,2,66,-14,21,-89,-15,70,-11,231,19,-25,221,107,135,1,0,0,0,0,0,3987
51.985916137,-7,3,-22,-13,101,-2,24,-71,-19,-35,-22,195,24,-23,221,107,135,1,0,0,0,0,0,3988
51.996171951,-7,3,-22,-19,103,4,22,-39,-20,-63,-12,195,26,-22,221,107,135,1,0,0,0,0,0,3989
52.016019106,-7,4,-21,-24,94,11,16,2,-19,-97,-7,213,25,-20,222,107,135,1,0,0,0,0,0,3990
52.026772976,-8,4,-21,-23,51,17,6,44,-15,-137,-31,209,21,-19,220,107,135,1,0,0,0,0,0,3991
52.036894083,-8,4,-21,-19,22,17,-3,79,-9,-148,-47,205,15,-20,220,107,135,1,0,0,0,0,0,3992
52.057018995,-8,4,-21,-15,-8,15,-13,99,-1,-132,-57,202,7,-22,220,107,135,1,0,0,0,0,0,3993
52.067922115,-8,4,-21,-8,-58,10,-20,101,6,-48,-34,222,1,-23,219,107,135,1,0,0,0,0,0,3994
52.077867031,-8,3,-21,-2,-74,4,-24,85,12,1,-45,246,-3,-24,218,107,135,1,0,0,0,0,0,3995
52.097980976,-8,3,-21,3,-79,0,-24,54,16,47,-28,246,-7,-26,216,107,135,1,0,0,0,0,0,3996
52.108098984,-7,2,-21,12,-72,-5,-20,15,17,127,1,9,-8,-25,215,107,135,1,0,0,0,0,0,3997
52.118827104,-7,1,-21,12,-54,-8,-14,-25,15,156,-3,8,-6,-25,215,107,135,1,0,0,0,0,0,3998
52.138877153,-7,1,-21,11,-26,-11,-6,-58,10,159,6,10,-3,-24,216,107,135,1,0,0,0,0,0,3999
52.149042129,-7,2,-21,3,44,-11,0,-79,4,112,1,238,0,-22,217,107,135,1,0,0,0,0,0,4000
52.158957004,-7,2,-21,-1,76,-10,7,-83,-1,75,-12,222,4,-20,218,107,135,1,0,0,0,0,0,4001
52.1778481,-7,2,-21,-8,99,-7,10,-70,-6,22,-25,195,9,-19,219,107,134,-1,0,0,0,0,0,4002
52.187917948,-7,3,-21,-15,115,-2,11,-41,-10,-72,-46,189,12,-17,220,107,134,-1,0,0,0,0,0,4003
52.199144125,-7,4,-21,-19,111,1,9,-2,-11,-126,-44,185,13,-17,222,107,134,-1,0,0,0,0,0,4004
52.218061924,-7,4,-21,-19,97,5,3,40,-11,-151,-50,184,12,-17,223,107,134,-1,0,0,0,0,0,4005
52.229434013,-7,5,-21,-13,39,11,-2,79,-9,-192,-64,163,9,-17,224,107,134,-1,0,0,0,0,0,4006
52.238876104,-7,4,-21,-9,0,12,-10,106,-5,-181,-74,167,4,-18,224,107,134,-1,0,0,0,0,0,4007
52.258945942,-7,4,-21,-2,-38,10,-15,116,-1,-150,-59,178,-1,-20,222,107,134,-1,0,0,0,0,0,4008
52.269868135,-7,3,-21,14,-99,5,-18,107,3,-60,-40,214,-5,-22,220,107,134,-1,0,0,0,0,0,4009
52.279894113,-7,2,-21,21,-118,1,-18,79,7,7,-30,236,-9,-23,218,107,134,-1,0,0,0,0,0,4010
52.29995799,-7,2,-21,26,-122,-2,-13,37,10,73,-10,190,-10,-24,216,107,134,-1,0,0,0,0,0,4011
52.309926033,-6,0,-21,27,-98,-8,-6,-11,10,148,12,11,-9,-25,216,107,134,-1,0,0,0,0,0,4012
52.320899009,-6,0,-21,28,-69,-11,3,-59,9,174,8,3,-6,-25,217,107,134,-1,0,0,0,0,0,4013
52.339916944,-6,0,-21,23,-51,-14,13,-97,5,166,18,14,-2,-25,218,107,134,-1,0,0,0,0,0,4014
52.350852966,-6,0,-21,9,24,-15,22,-118,1,103,11,240,1,-24,219,107,134,-1,0,0,0,0,0,4015
52.361015081,-6,0,-21,1,55,-13,27,-120,-4,66,-8,227,5,-23,220,107,134,-1,0,0,0,0,0,4016
52.380888939,-6,0,-22,-7,78,-10,29,-101,-9,15,-30,211,8,-22,221,107,134,-1,0,0,0,0,0,4017
52.391803026,-6,2,-22,-24,94,0,26,-66,-12,-81,-61,198,10,-23,222,107,134,-1,0,0,0,0,0,4018
52.401869058,-6,2,-22,-29,87,6,19,-22,-14,-103,-73,210,10,-23,222,107,134,-1,0,0,0,0,0,4019
52.421926021,-6,2,-21,-32,69,12,9,23,-14,-144,-63,185,8,-23,222,107,135,1,0,0,0,0,0,4020
52.43209815,-7,2,-21,-21,9,18,-2,62,-11,-169,-42,173,4,-24,220,107,135,1,0,0,0,0,0,4021
52.442942142,-7,2,-21,-10,-27,17,-14,87,-6,-156,-35,172,-2,-24,218,107,135,1,0,0,0,0,0,4022
52.462028026,-7,2,-21,1,-60,15,-23,94,0,-113,-24,197,-9,-25,216,107,135,1,0,0,0,0,0,4023
52.473124027,-6,1,-21,18,-97,9,-28,81,7,20,-38,10,-13,-26,217,107,135,1,0,0,0,0,0,4024
52.482815027,-6,0,-21,26,-108,4,-27,52,13,69,-9,219,-15,-27,216,107,135,1,0,0,0,0,0,4025
52.50288105,-6,0,-21,30,-108,0,-20,10,17,106,18,15,-16,-26,217,107,137,1,0,0,0,0,0,4026
52.51304698,-6,-1,-21,27,-76,-7,-9,-33,17,160,-1,16,-13,-26,218,107,137,1,0,0,0,0,0,4027
52.523838997,-6,-1,-21,21,-47,-10,4,-73,15,158,-7,10,-8,-26,220,107,137,1,0,0,0,0,0,4028
52.5439291,-6,-1,-21,12,-15,-11,17,-100,10,133,-6,241,-4,-25,221,107,137,1,0,0,0,0,0,4029
52.554050922,-6,0,-21,-4,40,-10,27,-110,3,51,-16,208,0,-26,221,107,137,1,0,0,0,0,0,4030
52.564876079,-6,0,-21,-12,58,-7,31,-101,-3,14,-25,192,3,-26,221,107,137,1,0,0,0,0,0,4031
52.584053039,-6,0,-21,-18,69,-4,28,-76,-8,-26,-26,180,6,-25,220,107,137,1,0,0,0,0,0,4032
52.595796108,-6,0,-21,-21,64,1,20,-39,-11,-69,-32,206,8,-24,220,107,137,1,0,0,0,0,0,4033
52.604925155,-6,0,-21,-21,50,3,9,1,-12,-79,-34,202,7,-24,220,107,137,1,0,0,0,0,0,4034
52.624998092,-6,0,-21,-18,41,4,-3,37,-10,-93,-43,222,4,-24,219,107,137,1,0,0,0,0,0,4035
52.635833978,-6,0,-21,-11,-3,2,-14,63,-7,-62,-45,8,2,-25,219,107,137,1,0,0,0,0,0,4036
52.645972013,-6,0,-21,-6,-26,0,-21,74,-3,-29,-36,20,-1,-26,220,107,137,1,0,0,0,0,0,4037
52.665941,-6,0,-21,-2,-46,-2,-24,69,0,2,-28,33,-5,-26,220,107,137,1,0,0,0,0,0,4038
52.6760571,-6,0,-21,7,-64,-6,-22,52,3,70,-21,14,-7,-27,220,107,137,1,0,0,0,0,0,4039
52.686836958,-6,0,-21,11,-61,-7,-17,25,4,100,-13,254,-8,-27,221,107,137,1,0,0,0,0,0,4040
52.70678401,-6,0,-21,14,-51,-8,-11,-5,3,118,-2,245,-7,-27,221,107,137,1,0,0,0,0,0,4041
52.717069149,-6,0,-21,17,-13,-7,-3,-33,0,114,12,238,-4,-26,222,107,137,1,0,0,0,0,0,4042
52.727807998,-6,0,-22,16,9,-6,3,-53,-2,95,1,220,0,-25,223,107,137,1,0,0,0,0,0,4043
52.747771024,-6,0,-22,14,31,-4,9,-62,-6,73,-4,209,4,-24,224,107,137,1,0,0,0,0,0,4044
52.757833004,-6,0,-22,9,67,0,13,-58,-8,24,-21,194,8,-23,224,107,137,1,0,0,0,0,0,4045
52.768274069,-6,0,-22,3,75,2,16,-41,-8,1,0,192,13,-22,225,107,137,1,0,0,0,0,0,4046
52.787974119,-6,0,-22,0,84,2,17,-15,-8,-16,28,197,17,-19,225,107,137,0,0,0,0,0,0,4047
52.798030138,-6,1,-21,-7,85,8,15,15,-6,-62,-8,193,20,-18,226,107,137,0,0,0,0,0,0,4048
52.808894157,-6,2,-21,-8,78,10,12,44,-3,-90,-32,189,19,-18,225,107,137,0,0,0,0,0,0,4049
52.827991962,-6,2,-21,-10,63,12,8,69,0,-116,-46,202,16,-18,224,107,137,0,0,0,0,0,0,4050
52.838951111,-6,2,-21,-7,16,11,2,84,3,-151,-57,196,10,-19,225,107,137,0,0,0,0,0,0,4051
52.848896026,-6,2,-21,-2,-13,10,-2,89,6,-157,-66,207,2,-21,223,107,137,0,0,0,0,0,0,4052
52.875891924,-6,2,-21,5,-44,8,-6,83,8,-144,-78,197,-5,-23,221,107,138,1,0,0,0,0,0,4053
52.879857063,-5,1,-21,28,-97,4,-9,67,10,-75,-82,181,-11,-26,219,107,138,1,0,0,0,0,0,4054
52.889934063,-5,0,-21,41,-118,3,-8,42,11,-40,-94,170,-14,-29,217,107,138,1,0,0,0,0,0,4055
52.909974098,-5,0,-21,49,-133,2,-4,9,11,-24,-79,166,-16,-30,216,107,138,1,0,0,0,0,0,4056
52.920125961,-4,-1,-21,78,-142,2,3,-27,10,39,-56,159,-16,-31,215,107,138,1,0,0,0,0,0,4057
52.932043075,-4,-2,-21,90,-139,1,15,-65,8,66,-24,163,-12,-30,214,107,138,1,0,0,0,0,0,4058
52.949852943,-4,-2,-21,101,-129,0,30,-99,5,96,-2,180,-7,-28,213,107,138,1,0,0,0,0,0,4059
52.960870027,-2,-3,-21,116,-95,-3,46,-125,3,140,33,179,0,-26,213,107,138,1,0,0,0,0,0,4060
52.971213102,-2,-4,-21,119,-73,-5,64,-141,1,142,68,202,7,-23,214,107,138,1,0,0,0,0,0,4061
52.995646953,-2,-4,-21,116,-49,-8,81,-144,0,146,57,204,14,-21,214,107,138,1,0,0,0,0,0,4062
53.001019954,-1,-3,-21,98,-1,-17,96,-136,0,116,70,242,20,-18,215,107,138,1,0,0,0,0,0,4063
53.011776924,-1,-3,-21,84,18,-19,108,-117,-2,117,90,241,23,-15,215,107,138,1,0,0,0,0,0,4064
53.031012058,0,-3,-21,67,36,-22,115,-91,-4,101,109,251,23,-12,216,107,138,0,0,0,0,0,0,4065
53.041975975,0,-2,-22,38,55,-24,115,-60,-7,77,118,250,23,-10,215,107,138,0,0,0,0,0,0,4066
53.051872968,0,-1,-22,18,63,-23,109,-27,-11,62,117,247,20,-7,215,107,138,0,0,0,0,0,0,4067
53.071874141,0,-1,-22,-2,69,-23,96,2,-16,47,116,249,17,-4,214,107,138,0,0,0,0,0,0,4068
53.081947088,-1,0,-22,-42,71,-17,78,29,-20,30,119,251,15,0,214,107,138,0,0,0,0,0,0,4069
53.092955112,-1,0,-22,-61,69,-13,55,49,-23,22,114,246,14,2,215,107,138,0,0,0,0,0,0,4070
53.111804962,-1,0,-22,-78,65,-7,30,63,-24,4,107,249,14,5,217,107,138,0,0,0,0,0,0,4071
53.122897148,-2,1,-22,-107,54,2,3,70,-23,-6,120,252,14,9,219,107,138,0,0,0,0,0,0,4072
53.132995128,-3,1,-22,-119,48,7,-22,73,-20,-9,98,237,16,12,219,107,138,0,0,0,0,0,0,4073
53.151869058,-3,1,-22,-129,42,12,-48,71,-16,-16,72,242,17,15,220,107,138,0,0,0,0,0,0,4074
53.162097931,-4,2,-22,-140,33,17,-72,67,-10,-27,18,236,19,16,221,107,138,0,0,0,0,0,0,4075
53.172949075,-4,2,-22,-146,27,19,-94,61,-3,-31,-5,235,20,17,220,107,138,0,0,0,0,0,0,4076
53.192852974,-5,2,-22,-147,21,20,-112,53,3,-32,-26,233,20,18,219,107,138,0,0,0,0,0,0,4077
53.202890157,-6,2,-21,-143,9,19,-126,45,10,-29,-61,210,19,17,217,107,138,0,0,0,0,0,0,4078
53.212954044,-6,2,-21,-138,4,17,-137,37,15,-20,-77,204,17,15,215,107,138,0,0,0,0,0,0,4079
53.232888937,-6,2,-21,-130,0,16,-144,30,19,-10,-88,212,14,13,214,107,138,0,0,0,0,0,0,4080
53.243112087,-8,2,-21,-112,-4,12,-147,22,21,14,-107,230,11,11,214,107,138,0,0,0,0,0,0,4081
53.253975153,-8,2,-21,-100,-3,9,-146,15,21,12,-116,236,9,8,214,107,138,0,0,0,0,0,0,4082
53.272912025,-8,2,-21,-90,-1,6,-141,8,19,12,-132,225,7,4,214,107,138,0,0,0,0,0,0,4083
53.283930063,-8,2,-21,-68,4,1,-133,3,17,12,-135,213,5,1,214,107,138,0,0,0,0,0,0,4084
53.295577049,-8,2,-21,-53,8,-3,-122,-1,14,15,-145,208,5,-1,214,107,138,0,0,0,0,0,0,4085
53.314095974,-8,2,-21,-37,12,-7,-109,-3,11,16,-146,213,5,-5,215,107,138,0,0,0,0,0,0,4086
53.329355955,-8,3,-21,-5,17,-13,-94,-3,7,0,-151,210,6,-9,215,107,138,0,0,0,0,0,0,4087
53.33564806,-8,3,-21,13,19,-13,-78,0,3,-4,-145,208,7,-13,216,107,138,0,0,0,0,0,0,4088
53.35472393,-7,3,-21,30,20,-14,-60,3,0,1,-135,197,9,-15,216,107,138,0,0,0,0,0,0,4089
53.364977121,-6,3,-22,67,20,-9,-41,9,-5,-4,-69,152,12,-16,214,107,138,0,0,0,0,0,0,4090
53.374803066,-6,3,-22,85,17,-5,-21,14,-9,-6,-30,162,16,-15,214,107,138,0,0,0,0,0,0,4091
53.395091057,-6,3,-22,84,13,-1,1,18,-12,-8,-26,158,20,-14,212,107,138,0,0,0,0,0,0,4092
53.406047106,-5,3,-22,80,3,0,24,20,-13,-22,-29,170,23,-13,212,107,138,0,0,0,0,0,0,4093
53.415957927,-4,3,-22,80,-3,0,46,20,-12,-38,-13,183,23,-11,212,107,138,0,0,0,0,0,0,4094
53.435868025,-4,3,-22,83,-10,1,66,19,-9,-38,-38,168,24,-10,212,107,138,0,0,0,0,0,0,4095
53.445917129,-3,3,-21,83,-27,7,81,15,-6,-22,-15,197,24,-8,212,107,138,0,0,0,0,0,0,4096
53.456925153,-2,3,-21,82,-35,11,89,9,-2,-16,-37,211,22,-8,214,107,138,0,0,0,0,0,0,4097
53.476895094,-2,3,-21,87,-41,11,91,1,1,-22,-34,228,20,-8,215,107,138,0,0,0,0,0,0,4098
53.486982107,-1,2,-21,92,-49,15,88,-7,4,12,-8,210,18,-8,216,107,138,0,0,0,0,0,0,4099
53.498039007,-1,2,-21,94,-51,14,85,-18,6,16,-5,219,15,-9,217,107,138,0,0,0,0,0,0,4100
53.517341137,0,2,-21,95,-52,14,83,-28,8,30,2,220,12,-11,218,107,138,0,0,0,0,0,0,4101
53.528005123,0,1,-21,93,-48,10,83,-37,10,35,23,224,9,-12,218,107,138,0,0,0,0,0,0,4102
53.538279056,0,1,-21,90,-47,7,85,-45,12,40,43,228,7,-12,218,107,138,0,0,0,0,0,0,4103
53.557868004,0,1,-21,84,-44,3,89,-50,13,41,56,233,5,-13,218,107,138,0,0,0,0,0,0,4104
53.568055153,1,1,-21,63,-35,-4,92,-53,14,39,70,245,4,-14,217,107,138,0,0,0,0,0,0,4105
53.57894206,1,1,-21,47,-29,-10,94,-52,12,48,79,252,3,-15,218,107,138,0,0,0,0,0,0,4106
53.597933054,1,1,-21,30,-23,-15,92,-49,9,50,96,0,3,-16,218,107,139,0,0,0,0,0,0,4107
53.60888505,0,0,-21,-8,-9,-23,85,-45,5,49,103,2,3,-16,218,107,139,0,0,0,0,0,0,4108
53.618937969,0,0,-21,-27,-3,-25,74,-39,0,49,98,253,3,-17,218,107,139,0,0,0,0,0,0,4109
53.63886404,0,0,-22,-46,2,-26,57,-32,-6,45,79,248,4,-17,218,107,139,0,0,0,0,0,0,4110
53.64993,0,1,-22,-78,13,-23,37,-24,-12,33,73,249,5,-18,218,107,139,0,0,0,0,0,0,4111
53.660002947,-1,1,-22,-92,17,-22,13,-16,-18,33,65,244,6,-20,218,107,139,0,0,0,0,0,0,4112
53.680002928,-1,1,-22,-105,22,-19,-12,-8,-23,34,52,240,7,-21,218,107,139,0,0,0,0,0,0,4113
53.690011978,-3,1,-22,-123,27,-15,-38,0,-25,37,25,236,8,-22,218,107,139,0,0,0,0,0,0,4114
53.701033115,-3,1,-22,-134,29,-12,-62,8,-26,35,11,239,10,-22,218,107,139,0,0,0,0,0,0,4115
53.720088958,-4,1,-22,-143,31,-9,-84,15,-24,31,11,241,11,-22,218,107,139,0,0,0,0,0,0,4116
53.731385946,-6,2,-22,-157,31,-2,-102,20,-22,14,-18,235,12,-21,218,107,139,0,0,0,0,0,0,4117
53.740947008,-6,2,-22,-161,31,0,-118,25,-18,11,-44,221,13,-21,218,107,139,0,0,0,0,0,0,4118
53.760993957,-7,2,-22,-163,30,3,-130,28,-14,10,-69,208,14,-21,218,107,139,0,0,0,0,0,0,4119
53.770833015,-9,2,-22,-157,26,9,-141,30,-9,1,-101,191,15,-21,218,107,139,0,0,0,0,0,0,4120
53.781878948,-9,3,-22,-150,23,11,-149,31,-5,-2,-117,188,14,-21,217,107,139,0,0,0,0,0,0,4121
53.801867008,-10,3,-22,-140,20,12,-156,31,-1,-3,-137,193,14,-22,216,107,139,0,0,0,0,0,0,4122
53.811897039,-11,3,-22,-120,17,15,-160,30,2,8,-167,200,14,-23,215,107,139,0,0,0,0,0,0,4123
53.823286056,-11,3,-22,-104,17,16,-160,28,6,13,-189,193,14,-24,215,107,139,0,0,0,0,0,0,4124
53.841813087,-11,3,-22,-84,17,17,-155,25,9,11,-202,190,14,-26,214,107,139,0,0,0,0,0,0,4125
53.852822065,-12,3,-22,-40,17,17,-146,22,12,8,-198,188,13,-27,214,107,139,0,0,0,0,0,0,4126
53.86304307,-12,3,-22,-18,17,17,-131,19,14,6,-186,197,14,-28,213,107,139,0,0,0,0,0,0,4127
53.882843017,-11,3,-21,1,17,17,-113,17,16,4,-170,205,14,-28,213,107,139,0,0,0,0,0,0,4128
53.892889023,-11,4,-21,31,14,12,-90,16,17,-10,-164,216,13,-29,214,107,139,0,0,0,0,0,0,4129
53.902853966,-11,4,-21,41,14,9,-64,16,17,-11,-155,224,13,-31,216,107,139,0,0,0,0,0,0,4130
53.92288804,-10,4,-21,47,13,6,-36,16,17,-20,-143,220,13,-34,217,107,140,0,0,0,0,0,0,4131
53.933947086,-10,4,-21,55,9,1,-9,16,16,-11,-127,215,13,-37,218,107,140,0,0,0,0,0,0,4132
53.943814993,-9,4,-21,59,10,-1,15,16,14,-9,-121,206,13,-39,219,107,140,0,0,0,0,0,0,4133
53.955942154,-9,4,-21,64,8,-1,34,15,11,-9,-120,198,14,-42,220,107,128,-11,0,0,0,0,0,4134
53.965801,-9,4,-21,74,3,-2,49,14,8,-14,-107,198,15,-43,221,107,128,-11,0,0,0,0,0,4135
53.976917028,-9,4,-21,82,0,-2,57,12,4,-11,-108,190,15,-46,220,107,128,-11,0,0,0,0,0,4136
53.996884107,-8,4,-21,91,-3,-2,63,9,1,-14,-106,184,15,-47,220,107,128,-11,0,0,0,0,0,4137
54.00693202,-7,4,-21,107,-10,0,66,7,-1,-19,-102,179,15,-49,218,107,128,-11,0,0,0,0,0,4138
54.016896009,-7,3,-21,118,-16,0,70,4,-2,-24,-98,172,14,-51,217,107,128,-11,0,0,0,0,0,4139
54.036972046,-7,3,-21,130,-21,1,77,1,-3,-25,-79,161,13,-53,216,107,128,-11,0,0,0,0,0,4140
54.047832966,-5,3,-21,151,-34,3,85,-2,-2,-10,-64,166,12,-55,215,107,128,-11,0,0,0,0,0,4141
54.057857036,-5,3,-21,159,-39,4,97,-6,-1,-9,-50,170,11,-57,213,107,128,-11,0,0,0,0,0,4142
54.07811594,-4,3,-21,165,-44,5,111,-12,0,-9,-29,170,10,-58,212,107,128,-11,0,0,0,0,0,4143
54.088889122,-3,2,-21,167,-50,5,125,-19,0,10,12,170,9,-60,210,107,128,-11,0,0,0,0,0,4144
54.099079132,-2,2,-21,163,-52,5,140,-27,2,28,34,209,8,-60,209,107,128,-11,0,0,0,0,0,4145
54.118874073,-2,2,-21,156,-51,4,152,-34,3,25,49,206,8,-61,208,107,128,-11,0,0,0,0,0,4146
54.128981113,-1,1,-21,131,-44,0,161,-41,4,42,136,2,8,-60,208,107,128,-11,0,0,0,0,0,4147
54.139892101,-1,1,-21,114,-38,-2,166,-47,5,53,142,5,8,-59,208,107,128,-11,0,0,0,0,0,4148
54.159898042,-1,1,-21,92,-32,-5,165,-50,5,50,123,254,8,-59,208,107,128,-11,0,0,0,0,0,4149
54.169916153,-1,1,-21,58,-19,-11,158,-51,4,55,138,254,8,-57,209,107,128,-11,0,0,0,0,0,4150
54.179960966,-1,1,-21,32,-11,-14,145,-48,2,47,141,255,8,-55,209,107,128,-11,0,0,0,0,0,4151
54.199869156,-2,1,-21,8,-3,-16,126,-43,0,46,141,252,9,-54,209,107,128,-11,0,0,0,0,0,4152
54.210819959,-2,1,-22,-37,11,-16,103,-35,-3,47,115,238,9,-52,209,107,128,-11,0,0,0,0,0,4153
54.220790148,-3,1,-22,-58,19,-14,76,-26,-7,49,117,233,9,-50,209,107,128,-11,0,0,0,0,0,4154
54.240936041,-4,1,-22,-75,26,-12,46,-16,-11,54,114,232,10,-47,209,107,128,-11,0,0,0,0,0,4155
54.250957012,-5,2,-22,-107,42,-6,16,-5,-14,50,87,227,10,-45,208,107,128,-11,0,0,0,0,0,4156
54.261834144,-6,2,-22,-122,49,-3,-14,4,-16,32,72,221,11,-43,208,107,128,-11,0,0,0,0,0,4157
54.280941009,-6,2,-22,-135,54,0,-43,14,-16,25,64,216,11,-40,208,107,128,-11,0,0,0,0,0,4158
54.291836977,-8,3,-22,-152,60,5,-70,25,-14,0,25,214,11,-38,208,107,128,-11,0,0,0,0,0,4159
54.301793098,-9,3,-22,-160,61,6,-94,34,-10,-11,-5,204,11,-35,208,107,128,-11,0,0,0,0,0,4160
54.322173118,-10,3,-22,-166,59,9,-114,44,-6,-23,-29,210,10,-33,209,107,128,-11,0,0,0,0,0,4161
54.331890106,-12,4,-21,-166,50,11,-131,51,-1,-45,-78,204,9,-32,209,107,128,-11,0,0,0,0,0,4162
54.342812061,-12,4,-21,-159,42,11,-145,57,2,-55,-108,195,7,-30,209,107,128,-11,0,0,0,0,0,4163
54.362769127,-12,4,-21,-147,32,12,-155,60,6,-64,-140,198,5,-29,209,107,128,-11,0,0,0,0,0,4164
54.376029968,-14,4,-21,-107,12,12,-162,60,8,-49,-191,193,4,-29,209,107,128,-11,0,0,0,0,0,4165
54.383258104,-14,4,-21,-80,3,13,-164,55,10,-49,-211,188,2,-29,209,107,128,-11,0,0,0,0,0,4166
54.403026104,-14,4,-21,-48,-5,14,-160,48,11,-49,-228,185,1,-30,209,107,128,-11,0,0,0,0,0,4167
54.413063049,-13,3,-21,18,-20,13,-148,37,12,-33,-216,186,0,-31,208,107,128,-11,0,0,0,0,0,4168
54.424284935,-13,3,-21,34,-28,12,-128,24,13,-25,-199,191,0,-32,208,107,128,-11,0,0,0,0,0,4169
54.443798065,-13,3,-21,66,-30,10,-100,10,13,-25,-168,182,0,-33,207,107,128,-11,0,0,0,0,0,4170
54.453880071,-11,2,-21,117,-43,3,-64,-2,13,-21,-81,163,0,-31,205,107,128,-11,0,0,0,0,0,4171
54.464075088,-11,2,-21,135,-50,-1,-23,-14,13,6,-1,157,0,-28,204,107,128,-11,0,0,0,0,0,4172
54.476835012,-10,2,-21,143,-57,-6,18,-24,12,3,2,159,0,-25,203,107,117,-10,0,0,0,0,0,4173
54.486940145,-9,1,-21,144,-63,-13,58,-33,10,-14,-28,145,0,-22,201,107,117,-10,0,0,0,0,0,4174
54.496906996,-9,1,-21,143,-69,-19,93,-40,7,-8,-23,144,0,-20,200,107,117,-10,0,0,0,0,0,4175
54.516993999,-8,1,-21,136,-75,-20,121,-47,2,-12,13,172,0,-17,199,107,117,-10,0,0,0,0,0,4176
54.527786016,-6,0,-21,119,-86,-26,140,-53,-3,14,37,210,1,-14,200,107,117,-10,0,0,0,0,0,4177
54.538061142,-6,0,-21,111,-89,-25,149,-60,-9,19,39,220,2,-10,201,107,117,-10,0,0,0,0,0,4178
54.549989938,-5,0,-22,105,-93,-25,150,-67,-15,44,55,229,4,-6,203,107,107,-9,0,0,0,0,0,4179
54.56085515,-5,0,-22,98,-95,-24,143,-73,-20,57,67,237,6,-3,204,107,107,-9,0,0,0,0,0,4180
54.570800066,-4,-1,-22,88,-96,-21,133,-80,-24,63,70,244,8,0,206,107,107,-9,0,0,0,0,0,4181
54.582901001,-4,-1,-22,75,-93,-19,120,-86,-26,78,69,8,10,3,209,107,98,-8,0,0,0,0,0,4182
54.593136072,-4,-1,-22,52,-84,-16,108,-91,-26,89,99,22,12,6,211,107,98,-8,0,0,0,0,0,4183
54.604012012,-3,-1,-22,35,-73,-14,97,-94,-25,111,89,22,15,8,214,107,98,-8,0,0,0,0,0,4184
54.623876095,-3,-1,-22,17,-58,-13,87,-95,-23,124,76,33,17,9,216,107,103,4,0,0,0,0,0,4185
54.633846044,-3,-1,-22,-8,-30,-8,76,-93,-21,142,63,22,20,9,218,107,103,4,0,0,0,0,0,4186
54.643887996,-3,-1,-22,-24,-7,-4,63,-88,-18,138,61,15,22,7,218,107,103,4,0,0,0,0,0,4187
54.664168119,-3,-1,-22,-37,17,0,47,-78,-15,143,57,0,25,5,218,107,103,4,0,0,0,0,0,4188
54.674890995,-3,0,-22,-57,70,7,28,-63,-12,136,40,238,27,3,218,107,103,4,0,0,0,0,0,4189
54.684962988,-3,0,-22,-64,96,12,7,-44,-9,124,29,236,29,1,217,107,103,4,0,0,0,0,0,4190
54.704970121,-4,0,-22,-69,122,16,-13,-20,-6,113,16,230,30,-2,217,107,103,4,0,0,0,0,0,4191
54.714972019,-4,3,-22,-75,164,25,-32,8,-2,76,-6,218,31,-5,216,107,103,4,0,0,0,0,0,4192
54.725903988,-5,3,-22,-76,179,29,-49,41,2,63,-20,206,31,-9,215,107,103,4,0,0,0,0,0,4193
54.744117021,-5,4,-21,-76,190,32,-61,76,8,45,-26,201,31,-12,214,107,105,2,0,0,0,0,0,4194
54.754979133,-6,7,-21,-71,198,35,-70,110,14,21,-48,202,30,-16,213,107,105,2,0,0,0,0,0,4195
54.764984131,-6,7,-21,-66,198,35,-74,142,20,-2,-50,208,29,-20,213,107,105,2,0,0,0,0,0,4196
54.784968137,-6,8,-21,-60,194,34,-76,168,26,-27,-60,206,28,-23,213,107,105,2,0,0,0,0,0,4197
54.795058012,-6,10,-20,-42,176,30,-76,187,31,-83,-62,204,25,-26,212,107,105,2,0,0,0,0,0,4198
54.806009054,-7,11,-20,-32,164,26,-73,198,34,-90,-70,195,23,-29,212,107,105,2,0,0,0,0,0,4199
54.826056003,-7,11,-20,-23,150,20,-68,202,35,-117,-70,180,20,-30,211,107,105,2,0,0,0,0,0,4200
54.836106062,-7,12,-20,-2,116,5,-61,198,34,-159,-66,183,17,-31,211,107,105,2,0,0,0,0,0,4201
54.846262932,-7,12,-20,7,96,-4,-52,188,32,-155,-75,181,14,-31,210,107,105,2,0,0,0,0,0,4202
54.86605215,-7,12,-20,17,78,-12,-40,173,28,-144,-62,185,12,-30,210,107,105,2,0,0,0,0,0,4203
54.876838922,-6,13,-21,31,51,-26,-27,154,21,-133,-51,188,10,-28,209,107,105,2,0,0,0,0,0,4204
54.886855125,-6,12,-21,40,36,-36,-13,133,13,-133,-51,185,8,-24,209,107,105,2,0,0,0,0,0,4205
54.906847954,-6,12,-21,49,19,-46,0,110,3,-138,-52,195,6,-20,209,107,105,2,0,0,0,0,0,4206
54.916928053,-5,12,-22,64,-10,-60,14,87,-8,-138,-32,192,3,-15,210,107,105,2,0,0,0,0,0,4207
54.927883148,-5,11,-22,69,-23,-66,26,64,-19,-127,-27,184,1,-11,210,107,105,2,0,0,0,0,0,4208
54.946932077,-5,11,-22,76,-37,-70,37,42,-31,-121,-19,180,0,-6,209,107,105,2,0,0,0,0,0,4209
54.95788908,-3,10,-23,86,-63,-76,47,22,-42,-111,-8,178,-3,-2,209,107,105,2,0,0,0,0,0,4210
54.967894077,-3,9,-23,90,-75,-78,56,3,-53,-110,-1,180,-5,0,210,107,105,2,0,0,0,0,0,4211
54.97995615,-3,8,-24,94,-87,-78,65,-15,-62,-108,1,187,-8,0,210,107,97,-8,0,0,0,0,0,4212
54.990997076,-2,8,-24,96,-100,-78,73,-33,-69,-99,5,195,-10,0,211,107,97,-8,0,0,0,0,0,4213
55.000910043,-2,7,-24,99,-112,-77,81,-51,-74,-77,31,212,-12,0,213,107,97,-8,0,0,0,0,0,4214
55.020959139,-1,6,-25,98,-123,-75,87,-67,-77,-81,33,189,-14,2,214,107,97,-8,0,0,0,0,0,4215
55.031032085,0,4,-25,94,-140,-66,92,-82,-79,-69,50,194,-15,3,215,107,97,-8,0,0,0,0,0,4216
55.041832924,0,3,-26,91,-145,-60,96,-96,-79,-49,39,183,-17,3,214,107,97,-8,0,0,0,0,0,4217
55.053941011,0,3,-26,86,-148,-53,98,-109,-77,-35,70,181,-18,4,213,107,89,-7,0,0,0,0,0,4218
55.067189932,0,2,-26,81,-151,-46,98,-120,-75,-24,75,215,-20,4,213,107,89,-7,0,0,0,0,0,4219
55.076597929,0,1,-26,74,-153,-36,96,-130,-70,0,94,209,-21,5,212,107,89,-7,0,0,0,0,0,4220
55.096588135,1,0,-26,67,-153,-24,93,-139,-64,24,103,224,-22,6,211,107,94,5,0,0,0,0,0,4221
55.104865074,1,-1,-26,44,-147,2,89,-147,-57,43,125,220,-23,7,210,107,94,5,0,0,0,0,0,4222
55.124560117,1,-2,-26,32,-141,15,83,-151,-49,56,127,222,-24,8,209,107,94,5,0,0,0,0,0,4223
55.139424085,1,-2,-26,19,-133,26,76,-153,-39,67,91,211,-25,8,207,107,96,2,0,0,0,0,0,4224
55.14666295,1,-4,-26,4,-119,42,67,-153,-27,77,89,211,-26,8,205,107,96,2,0,0,0,0,0,4225
55.153849125,1,-4,-25,-4,-108,52,55,-150,-12,77,80,214,-28,9,204,107,96,2,0,0,0,0,0,4226
55.173834085,1,-4,-25,-11,-97,59,42,-144,3,81,68,221,-29,9,202,107,96,2,0,0,0,0,0,4227
55.183841943,1,-5,-24,-21,-76,70,27,-136,19,84,67,234,-31,9,202,107,96,2,0,0,0,0,0,4228
55.193943977,1,-6,-24,-26,-67,75,13,-126,34,86,55,229,-32,9,202,107,96,2,0,0,0,0,0,4229
55.213833093,1,-6,-24,-29,-58,81,0,-115,48,87,43,228,-33,10,202,107,96,2,0,0,0,0,0,4230
55.224931001,1,-7,-23,-31,-45,89,-10,-101,58,85,19,219,-34,10,201,107,96,2,0,0,0,0,0,4231
55.235008955,1,-7,-22,-32,-38,95,-18,-87,67,74,12,216,-34,10,201,107,96,2,0,0,0,0,0,4232
55.254848003,1,-7,-22,-31,-30,101,-24,-74,74,81,8,215,-33,11,201,107,96,2,0,0,0,0,0,4233
55.264873028,0,-7,-20,-24,-18,114,-28,-61,80,92,15,221,-32,12,202,107,96,2,0,0,0,0,0,4234
55.275880098,0,-7,-20,-20,-12,121,-31,-50,86,107,19,220,-30,14,202,107,96,2,0,0,0,0,0,4235
55.295036077,0,-8,-20,-14,-9,128,-31,-40,92,107,14,19,-27,15,204,107,96,2,0,0,0,0,0,4236
55.305860042,1,-8,-18,9,-5,142,-30,-31,99,103,-7,212,-24,17,204,107,96,2,0,0,0,0,0,4237
55.315937042,1,-8,-17,17,-3,147,-27,-24,107,116,-26,213,-19,18,204,107,96,2,0,0,0,0,0,4238
55.335790157,1,-7,-17,25,0,151,-22,-17,116,78,13,252,-15,20,206,107,96,2,0,0,0,0,0,4239
55.345880985,1,-7,-15,21,9,158,-14,-11,125,107,17,242,-9,22,207,107,96,2,0,0,0,0,0,4240
55.356956005,2,-7,-14,27,12,161,-4,-6,135,66,30,239,-3,24,209,107,96,2,0,0,0,0,0,4241
55.376842975,2,-7,-14,33,19,163,6,-2,143,120,47,236,3,27,210,107,100,4,0,0,0,0,0,4242
55.386924028,2,-6,-11,30,27,165,17,1,150,103,42,221,9,30,211,107,100,4,0,0,0,0,0,4243
55.396944999,3,-6,-11,26,32,167,25,5,156,94,112,233,15,34,212,107,100,4,0,0,0,0,0,4244
55.416862964,3,-5,-10,21,33,160,30,10,160,61,-3,206,19,35,213,107,104,3,0,0,0,0,0,4245
55.426872968,3,-5,-9,15,24,136,32,15,163,74,-16,239,25,36,214,107,104,3,0,0,0,0,0,4246
55.436885118,3,-4,-8,7,20,124,31,21,164,44,24,236,29,38,215,107,104,3,0,0,0,0,0,4247
55.456871986,4,-4,-8,-1,15,112,29,26,163,56,10,216,34,39,216,107,104,3,0,0,0,0,0,4248
55.467843055,4,-3,-7,-7,17,96,24,29,158,69,46,219,39,40,217,107,104,3,0,0,0,0,0,4249
55.477961063,4,-3,-6,-15,16,86,18,30,149,82,-17,199,44,40,217,107,104,3,0,0,0,0,0,4250
55.497931957,4,-2,-6,-23,19,79,11,27,137,84,-36,202,48,39,218,107,104,3,0,0,0,0,0,4251
55.510728121,4,-2,-5,-41,23,69,3,23,122,70,7,223,53,39,219,107,104,3,0,0,0,0,0,4252
55.519026994,4,-1,-5,-46,24,64,-4,19,106,63,-47,218,57,38,219,107,104,3,0,0,0,0,0,4253
55.538047075,4,0,-5,-51,22,58,-12,16,92,66,-105,213,61,34,219,107,104,3,0,0,0,0,0,4254
55.548810005,3,0,-4,-55,19,45,-21,16,80,52,-79,195,64,32,219,107,104,3,0,0,0,0,0,4255
55.558854103,3,0,-4,-55,18,37,-31,17,70,-1,-119,228,66,27,220,107,104,3,0,0,0,0,0,4256
55.578828096,3,0,-4,-55,18,31,-40,19,63,-2,-31,22,67,26,223,107,104,3,0,0,0,0,0,4257
55.58910203,2,1,-4,-57,18,14,-48,22,57,20,-19,215,68,23,224,107,104,3,0,0,0,0,0,4258
55.60012412,2,2,-4,-55,19,1,-53,23,50,47,-37,199,70,21,223,107,104,3,0,0,0,0,0,4259
55.619918108,2,2,-4,-52,20,-12,-57,22,43,57,-28,199,71,17,223,107,104,3,0,0,0,0,0,4260
55.629951,2,3,-4,-45,21,-33,-58,21,33,43,-99,221,72,12,223,107,104,3,0,0,0,0,0,4261
55.640828132,1,3,-4,-41,24,-46,-58,19,22,44,-106,227,72,7,223,107,104,3,0,0,0,0,0,4262
55.660078048,1,4,-5,-35,28,-60,-55,18,8,24,-72,183,71,2,222,107,104,3,0,0,0,0,0,4263
55.670920133,1,5,-6,-22,43,-85,-52,18,-6,51,-86,203,71,-2,222,107,104,3,0,0,0,0,0,4264
55.680953979,1,5,-6,-16,52,-95,-48,20,-22,78,-117,208,71,-7,222,107,104,3,0,0,0,0,0,4265
55.701022148,1,6,-6,-10,62,-105,-43,23,-39,41,-140,214,70,-13,222,107,108,3,0,0,0,0,0,4266
55.711022138,1,7,-8,1,80,-118,-37,28,-55,44,-39,237,69,-15,222,107,108,3,0,0,0,0,0,4267
55.722411155,1,8,-8,5,89,-123,-29,36,-72,33,-105,7,68,-20,223,107,108,3,0,0,0,0,0,4268
55.740853071,0,8,-9,8,93,-128,-21,46,-87,27,-118,240,66,-24,223,107,108,3,0,0,0,0,0,4269
55.751868009,0,10,-10,12,98,-131,-13,57,-101,16,-28,212,64,-26,223,107,108,3,0,0,0,0,0,4270
55.761867046,0,10,-11,15,98,-132,-4,69,-112,-13,-37,221,62,-27,223,107,108,3,0,0,0,0,0,4271
55.781890154,0,11,-11,17,97,-129,2,81,-121,-13,-62,239,60,-29,223,107,108,3,0,0,0,0,0,4272
55.792043924,0,12,-13,20,94,-124,8,90,-127,-16,-34,207,57,-30,223,107,108,3,0,0,0,0,0,4273
55.803091049,0,13,-13,21,91,-122,12,97,-130,-15,-39,211,55,-31,223,107,108,3,0,0,0,0,0,4274
55.822888136,0,13,-14,21,89,-119,15,100,-132,-26,-41,239,51,-33,223,107,108,3,0,0,0,0,0,4275
55.832916021,0,14,-15,21,80,-115,17,100,-131,-35,-33,236,48,-34,222,107,108,3,0,0,0,0,0,4276
55.842798948,0,14,-16,22,74,-114,19,98,-128,-31,-32,223,44,-35,223,107,108,3,0,0,0,0,0,4277
55.863098144,0,14,-16,24,67,-114,20,94,-125,-28,-35,225,41,-35,223,107,108,3,0,0,0,0,0,4278
55.873809099,0,15,-17,26,54,-117,21,89,-121,-28,-33,220,38,-36,222,107,108,3,0,0,0,0,0,4279
55.883975029,0,15,-18,27,51,-119,21,83,-118,-34,-22,204,34,-37,221,107,108,3,0,0,0,0,0,4280
55.903908968,0,15,-18,29,45,-124,22,77,-115,-39,-17,202,32,-38,220,107,108,3,0,0,0,0,0,4281
55.914022922,0,15,-20,32,34,-132,23,70,-114,-41,-17,226,28,-40,220,107,108,3,0,0,0,0,0,4282
55.925096035,0,15,-21,33,28,-139,24,62,-115,-57,-6,223,24,-41,220,107,108,3,0,0,0,0,0,4283
55.944035053,0,15,-21,34,21,-146,26,54,-117,-41,-7,208,20,-44,219,107,108,3,0,0,0,0,0,4284
55.954957008,0,14,-23,32,11,-158,28,46,-122,-59,-11,228,17,-44,220,107,108,3,0,0,0,0,0,4285
55.965093136,0,14,-24,29,8,-161,30,38,-128,-29,1,2,15,-44,220,107,108,3,0,0,0,0,0,4286
55.985126972,-1,14,-24,24,7,-163,32,31,-135,-32,31,229,13,-44,220,107,108,3,0,0,0,0,0,4287
55.995785951,-1,14,-26,18,7,-146,33,24,-142,8,53,252,11,-43,221,107,108,3,0,0,0,0,0,4288
56.005981922,-1,13,-27,12,9,-125,32,17,-150,9,34,236,10,-43,222,107,108,3,0,0,0,0,0,4289
56.027508974,-1,13,-27,6,14,-99,31,12,-156,27,34,237,9,-42,223,107,108,3,0,0,0,0,0,4290
56.035958051,-2,13,-28,-6,19,-62,27,8,-157,-25,19,223,6,-40,223,107,108,3,0,0,0,0,0,4291
56.047097921,-2,13,-28,-13,21,-44,22,6,-151,-50,2,219,3,-40,223,107,108,3,0,0,0,0,0,4292
56.067027092,-2,12,-28,-18,21,-29,15,7,-138,-74,-15,204,0,-40,223,107,108,3,0,0,0,0,0,4293
56.077147007,-3,12,-28,-22,15,-11,8,10,-117,-75,-16,193,-3,-37,222,107,108,3,0,0,0,0,0,4294
56.088012933,-3,12,-28,-20,9,-3,0,14,-90,-45,-30,244,-6,-36,223,107,108,3,0,0,0,0,0,4295
56.107126951,-3,11,-28,-16,1,0,-7,17,-62,-36,-42,206,-6,-34,223,107,108,3,0,0,0,0,0,4296
56.117936134,-3,11,-28,-6,-15,2,-14,19,-37,-32,-59,212,-7,-35,221,107,108,3,0,0,0,0,0,4297
56.127916097,-4,10,-28,-1,-22,1,-19,18,-16,-31,-11,250,-9,-35,222,107,108,3,0,0,0,0,0,4298
56.147890091,-4,10,-28,-4,-26,0,-21,14,-3,-45,-17,240,-11,-34,223,107,108,3,0,0,0,0,0,4299
56.158853054,-4,9,-28,-4,-29,0,-19,6,3,-26,-40,206,-13,-35,223,107,108,3,0,0,0,0,0,4300
56.169095993,-4,9,-28,1,-29,1,-15,-3,5,6,-36,221,-14,-33,223,107,108,3,0,0,0,0,0,4301
56.188920021,-4,8,-28,4,-30,4,-10,-13,4,6,-30,222,-15,-31,223,107,108,3,0,0,0,0,0,4302
56.199250936,-4,7,-28,3,-29,12,-4,-23,1,-6,-38,209,-16,-30,224,107,108,3,0,0,0,0,0,4303
56.211447,-4,7,-28,3,-28,20,0,-29,0,3,-52,203,-17,-29,224,107,108,3,0,0,0,0,0,4304
56.228948116,-4,6,-28,6,-25,29,1,-32,0,-11,-40,218,-19,-27,224,107,111,3,0,0,0,0,0,4305
56.239974022,-4,6,-27,6,-23,45,3,-33,2,-9,-46,225,-20,-25,224,107,111,3,0,0,0,0,0,4306
56.250281095,-4,5,-27,6,-22,55,3,-31,8,0,-26,211,-22,-25,224,107,111,3,0,0,0,0,0,4307
56.269200086,-4,5,-27,8,-21,65,4,-29,15,21,-13,221,-22,-23,223,107,114,2,0,0,0,0,0,4308
56.279921055,-4,4,-26,9,-17,85,4,-26,25,29,-16,227,-22,-20,222,107,114,2,0,0,0,0,0,4309
56.290040016,-4,4,-25,9,-16,96,5,-24,36,29,5,227,-21,-19,223,107,114,2,0,0,0,0,0,4310
56.30908513,-4,4,-25,9,-15,106,6,-22,49,32,4,222,-20,-18,223,107,116,1,0,0,0,0,0,4311
56.319785118,-4,3,-23,13,-14,121,7,-20,62,28,-3,224,-19,-17,222,107,116,1,0,0,0,0,0,4312
56.330027103,-4,3,-23,13,-12,130,8,-19,75,24,-8,225,-18,-16,223,107,116,1,0,0,0,0,0,4313
56.350117922,-4,3,-23,14,-11,136,9,-17,89,14,-13,227,-17,-15,223,107,116,1,0,0,0,0,0,4314
56.359807014,-4,2,-21,15,-6,148,10,-16,102,-6,-3,230,-17,-14,223,107,116,1,0,0,0,0,0,4315
56.371001959,-4,2,-20,13,-2,151,11,-14,114,-3,0,231,-16,-14,223,107,116,1,0,0,0,0,0,4316
56.389972925,-4,2,-20,12,0,153,12,-13,125,6,-4,223,-15,-13,223,107,116,1,0,0,0,0,0,4317
56.400989055,-4,2,-18,6,2,155,13,-10,135,12,7,230,-14,-12,223,107,116,1,0,0,0,0,0,4318
56.410948992,-4,2,-17,2,3,155,14,-8,143,10,5,227,-13,-11,223,107,116,1,0,0,0,0,0,4319
56.430873155,-3,1,-17,1,6,152,13,-5,149,0,10,236,-12,-10,224,107,116,1,0,0,0,0,0,4320
56.441928148,-3,1,-15,-4,5,147,12,-2,153,-13,18,234,-12,-9,225,107,116,1,0,0,0,0,0,4321
56.451972961,-3,1,-14,-6,5,142,10,0,155,-17,18,231,-11,-8,225,107,116,1,0,0,0,0,0,4322
56.472069978,-3,1,-14,-8,6,137,6,3,155,-20,17,230,-10,-8,225,107,116,1,0,0,0,0,0,4323
56.482084989,-4,1,-12,-13,4,128,2,5,153,-46,5,230,-10,-7,225,107,116,1,0,0,0,0,0,4324
56.492881059,-4,1,-12,-16,2,123,-1,6,150,-33,-5,234,-10,-7,226,107,116,1,0,0,0,0,0,4325
56.512838125,-4,1,-11,-19,-1,119,-5,6,146,-45,-14,233,-10,-7,225,107,116,1,0,0,0,0,0,4326
56.523021936,-4,0,-10,-24,-12,111,-8,5,140,-50,-4,223,-10,-8,225,107,116,1,0,0,0,0,0,4327
56.534018993,-4,0,-9,-25,-19,107,-11,4,133,-48,-11,221,-12,-10,224,107,116,1,0,0,0,0,0,4328
56.546797037,-4,0,-9,-26,-25,102,-15,2,127,-46,-15,219,-13,-11,224,107,108,-7,0,0,0,0,0,4329
56.55719614,-4,0,-8,-28,-31,97,-18,-1,120,-39,-20,225,-15,-13,223,107,108,-7,0,0,0,0,0,4330
56.567939996,-4,0,-8,-29,-35,92,-21,-6,114,-40,-27,224,-15,-14,223,107,108,-7,0,0,0,0,0,4331
56.58110404,-4,0,-8,-29,-37,87,-23,-13,108,-32,-23,230,-15,-14,224,107,101,-6,0,0,0,0,0,4332
56.591789961,-4,0,-7,-28,-39,78,-26,-20,103,-20,-14,233,-14,-14,224,107,101,-6,0,0,0,0,0,4333
56.601972103,-4,0,-7,-27,-40,72,-28,-27,99,-10,-21,228,-12,-15,225,107,101,-6,0,0,0,0,0,4334
56.615093946,-4,-1,-7,-24,-39,64,-29,-33,94,-1,-25,227,-11,-14,225,107,95,-6,0,0,0,0,0,4335
56.626266956,-5,-1,-6,-22,-36,56,-29,-37,88,7,-30,226,-10,-14,225,107,95,-6,0,0,0,0,0,4336
56.635993004,-5,-1,-6,-20,-33,47,-29,-40,82,11,-27,226,-9,-13,226,107,95,-6,0,0,0,0,0,4337
56.64994812,-5,-1,-6,-18,-28,37,-27,-40,75,6,-32,229,-8,-14,225,107,90,-5,0,0,0,0,0,4338
56.659925937,-5,-1,-6,-13,-21,23,-26,-40,68,-9,-20,220,-7,-14,225,107,90,-5,0,0,0,0,0,4339
56.672060013,-5,-1,-6,-9,-17,14,-24,-38,59,7,-29,222,-6,-14,225,107,90,-5,0,0,0,0,0,4340
56.68387413,-5,-1,-6,-3,-12,5,-21,-34,50,-9,-14,222,-6,-13,225,107,85,-5,0,0,0,0,0,4341
56.694877147,-5,-1,-6,0,-10,0,-18,-30,41,1,-49,217,-6,-14,225,107,85,-5,0,0,0,0,0,4342
56.705018997,-4,-1,-6,4,-7,-7,-15,-25,31,-1,-44,222,-6,-14,225,107,85,-5,0,0,0,0,0,4343
56.718814134,-4,-1,-6,7,-5,-13,-11,-20,20,5,-44,222,-6,-14,226,107,80,-4,0,0,0,0,0,4344
56.728989124,-4,-1,-6,11,-1,-22,-7,-15,10,-6,-25,230,-6,-13,226,107,80,-4,0,0,0,0,0,4345
56.739617109,-4,-1,-6,13,2,-27,-2,-11,2,3,-21,229,-6,-13,226,107,80,-4,0,0,0,0,0,4346
56.75288105,-4,-1,-6,13,6,-31,2,-7,-5,8,-27,236,-5,-13,227,107,76,-4,0,0,0,0,0,4347
56.767614126,-4,-1,-6,15,10,-36,6,-4,-12,6,-21,235,-6,-13,227,107,76,-4,0,0,0,0,0,4348
56.773782968,-4,-1,-7,15,15,-39,9,-2,-18,9,-25,233,-6,-13,227,107,76,-4,0,0,0,0,0,4349
56.784907102,-4,-1,-7,15,18,-42,12,0,-24,16,-17,236,-7,-14,228,107,69,-6,0,0,0,0,0,4350
56.796330929,-4,-1,-7,15,23,-45,14,4,-29,15,-20,233,-7,-14,228,107,69,-6,0,0,0,0,0,4351
56.805781126,-4,-1,-7,14,25,-47,15,7,-33,12,-14,232,-8,-15,228,107,69,-6,0,0,0,0,0,4352
56.81902194,-4,-1,-7,14,28,-49,15,12,-38,11,-12,229,-8,-15,228,107,66,-3,0,0,0,0,0,4353
