TiempoEjecucion,AnguloPitch,AnguloRoll,AnguloYaw,G_Pitch,G_Roll,G_Yaw,G_Pitch_filtrada,G_Roll_filtrada,G_Yaw_filtrada,Ax,Ay,Az,Ax_filtrada,Ay_filtrada,Az_filtrada,posZ,posZ_filtrada,velZ,motorDelantero,motorTrasero,motorDerecho,motorIzquierdo,EstadoEncendido,MensajesRecibidos
126.864212036,-2,-5,-9,3,17,2,-9,-6,6,21,-66,92,49,29,197,23,21,0,167,172,178,161,1,10535
126.875298977,-2,-5,-9,15,20,5,-8,-6,5,21,-66,92,49,29,197,23,21,0,167,172,178,161,1,10536
126.894297838,-2,-5,-9,6,15,-1,-6,-3,5,81,-37,45,61,21,201,23,21,0,166,173,176,163,1,10537
126.905192852,-2,-4,-8,17,12,0,-4,0,4,-91,174,177,65,8,211,23,21,0,166,173,176,163,1,10538
126.916327953,-2,-4,-8,17,12,0,-4,0,4,-91,174,177,65,8,211,23,21,0,159,180,174,165,1,10539
126.927175045,-2,-4,-8,18,7,2,0,5,4,-91,174,177,65,8,211,23,21,0,159,180,172,167,1,10540
126.945386886,-2,-4,-8,18,7,2,0,5,4,-45,-47,64,60,-6,223,23,21,0,159,180,172,167,1,10541
126.956351041,-1,-3,-8,15,2,2,2,10,3,81,-73,0,45,-20,235,23,21,0,159,180,172,167,1,10542
126.967345953,-1,-3,-8,11,-9,-2,6,14,3,81,-73,0,45,-20,235,23,21,0,160,179,169,170,1,10543
126.979568958,-1,-3,-8,11,-9,-2,6,14,3,81,-73,0,45,-20,235,23,21,0,162,177,161,178,1,10544
126.997268915,-1,-3,-8,6,0,0,9,16,2,181,-185,6,26,-29,242,23,21,0,166,173,167,172,1,10545
127.008281946,-1,-2,-8,2,-6,-2,12,16,2,-130,18,86,7,-32,242,23,21,0,166,173,167,172,1,10546
127.020326852,-1,-2,-8,2,-6,-2,12,16,2,-130,18,86,7,-32,242,23,21,0,168,171,163,176,1,10547
127.030383825,-1,-2,-8,-1,-9,-1,14,13,1,-130,18,86,7,-32,242,23,21,0,170,169,161,178,1,10548
127.049316883,-1,-2,-8,-1,-9,-1,14,13,1,-184,117,-12,-8,-31,234,23,21,0,170,169,161,178,1,10549
127.060248851,-1,-2,-8,-10,-3,-2,15,9,0,-166,246,144,-16,-29,219,23,21,0,170,169,161,178,1,10550
127.071472883,-1,-2,-8,-13,-3,4,14,4,0,-166,246,144,-16,-29,219,23,21,0,176,163,165,174,1,10551
127.08227086,-1,-2,-8,-13,-3,4,14,4,0,-166,246,144,-16,-29,219,23,21,0,178,161,165,174,1,10552
127.100261926,-1,-2,-8,-17,4,0,11,0,0,92,-44,165,-19,-26,198,23,21,0,180,159,170,169,1,10553
127.111203909,-1,-2,-8,-27,4,-3,7,-4,-1,167,-28,-42,-20,-21,172,23,21,0,180,159,170,169,1,10554
127.122268915,-1,-2,-8,-27,4,-3,7,-4,-1,167,-28,-42,-20,-21,172,23,21,0,186,153,170,169,1,10555
127.133172035,-1,-2,-8,-22,11,2,2,-7,-1,167,-28,-42,-20,-21,172,23,21,0,183,156,174,165,1,10556
127.152318954,-1,-2,-8,-22,11,2,2,-7,-1,115,6,237,-21,-11,146,23,21,0,183,156,174,165,1,10557
127.163239002,-1,-2,-8,-16,-3,0,-3,-7,-1,-36,-148,28,-23,2,122,23,21,0,183,156,174,165,1,10558
127.174173832,-1,-2,-8,-18,-7,0,-9,-6,0,-36,-148,28,-23,2,122,23,21,0,180,159,165,174,1,10559
127.18535304,-1,-2,-8,-18,-7,0,-9,-6,0,-36,-148,28,-23,2,122,23,21,0,181,158,163,176,1,10560
127.204424858,-1,-2,-8,-20,2,5,-14,-3,0,-99,78,26,-23,17,102,23,21,0,182,157,169,170,1,10561
127.215322017,-1,-2,-8,-15,-6,2,-19,0,0,-105,80,93,-18,28,89,23,21,0,182,157,169,170,1,10562
127.226299047,-1,-2,-8,-15,-6,2,-19,0,0,-105,80,93,-18,28,89,23,21,0,179,160,163,176,1,10563
127.237339019,-1,-2,-8,0,-8,1,-21,1,0,-105,80,93,-18,28,89,23,21,0,170,169,162,177,1,10564
127.255295038,-1,-2,-8,0,-8,1,-21,1,0,-29,-112,104,-9,34,84,23,21,0,170,169,162,177,1,10565
127.266202926,-2,-2,-8,7,-9,10,-22,3,0,21,49,231,0,32,87,23,21,0,170,169,162,177,1,10566
127.277288913,-2,-2,-8,7,-9,10,-22,3,0,21,49,231,0,32,87,23,21,0,165,174,161,178,1,10567
127.288528919,-2,-2,-8,4,-11,2,-22,3,1,21,49,231,0,32,87,23,21,0,167,172,160,179,1,10568
127.306275844,-1,-2,-8,4,-11,2,-22,3,1,-177,-114,183,5,25,98,23,21,0,167,172,160,179,1,10569
127.31727004,-2,-2,-8,6,-2,3,-19,1,1,8,204,2,5,14,113,23,21,0,167,172,160,179,1,10570
127.328270912,-2,-2,-8,10,7,4,-15,-1,2,8,204,2,5,14,113,23,21,0,166,173,165,174,1,10571
127.339215993,-2,-2,-8,10,7,4,-15,-1,2,8,204,2,5,14,113,23,21,0,163,176,172,167,1,10572
127.358297824,-1,-2,-8,1,8,6,-10,-4,3,116,65,246,-1,2,129,23,21,0,169,170,172,167,1,10573
127.369290828,-1,-2,-8,3,15,0,-4,-6,4,41,-103,-64,-13,-6,144,23,21,0,169,170,172,167,1,10574
127.380246877,-1,-2,-8,3,15,0,-4,-6,4,41,-103,-64,-13,-6,144,23,21,0,167,172,177,162,1,10575
127.391191959,-1,-2,-8,-7,12,0,0,-7,4,41,-103,-64,-13,-6,144,23,21,0,167,172,177,162,1,10576
127.409278869,-1,-2,-8,-7,12,0,0,-7,4,-147,157,224,-26,-10,155,23,21,0,174,165,174,165,1,10577
127.42040205,-1,-3,-8,-6,4,-1,5,-6,4,-105,183,135,-36,-8,159,23,21,0,174,165,174,165,1,10578
127.431229829,-1,-3,-8,-9,6,-1,7,-3,4,-105,183,135,-36,-8,159,23,21,0,173,166,170,169,1,10579
127.442255973,-1,-3,-8,-9,6,-1,7,-3,4,-105,183,135,-36,-8,159,23,21,0,175,164,171,168,1,10580
127.461182832,-1,-3,-8,-2,-4,-4,7,0,4,21,39,200,-41,0,156,23,21,0,171,168,164,175,1,10581
127.472159862,-1,-3,-8,1,-5,0,6,5,3,-89,-25,184,-41,14,149,23,21,0,171,168,164,175,1,10582
127.483257055,-1,-3,-8,1,-5,0,6,5,3,-89,-25,184,-41,14,149,23,21,0,169,170,164,175,1,10583
127.499382972,-1,-3,-8,-11,-14,1,2,8,1,-89,-25,184,-41,14,149,23,21,0,176,163,159,180,1,10584
127.512229919,-1,-3,-8,-11,-14,1,2,8,1,97,45,84,-37,32,139,23,21,0,176,163,159,180,1,10585
127.523172855,-1,-3,-8,-7,-15,0,0,10,0,249,223,195,-34,50,132,23,21,0,176,163,159,180,1,10586
127.534512996,-1,-3,-8,-7,-15,0,0,10,0,249,223,195,-34,50,132,23,21,0,174,165,158,181,1,10587
127.545300006,-1,-3,-8,0,-11,5,-4,9,0,249,223,195,-34,50,132,23,21,0,170,169,160,179,1,10588
127.56420803,0,-3,-8,-1,-11,-1,-6,6,-1,-62,-228,101,-29,67,132,23,21,0,170,169,160,179,1,10589
127.575299978,0,-3,-8,2,-3,7,-7,1,-1,-6,18,-38,-23,77,141,23,21,0,170,169,160,179,1,10590
127.586246967,0,-3,-8,2,-3,7,-7,1,-1,-6,18,-38,-23,77,141,23,21,0,168,171,165,174,1,10591
127.597169876,0,-3,-8,5,-5,0,-7,-4,-1,-6,18,-38,-23,77,141,23,21,0,166,173,164,175,1,10592
127.616133928,0,-3,-8,5,-5,0,-7,-4,-1,-87,104,234,-13,81,158,23,21,0,166,173,164,175,1,10593
127.627306938,0,-3,-8,-6,4,0,-6,-9,0,153,118,73,0,76,180,23,21,0,166,173,164,175,1,10594
127.63826704,0,-3,-8,-6,4,0,-6,-9,0,153,118,73,0,76,180,23,21,0,173,166,170,169,1,10595
127.649497032,0,-3,-8,0,9,-2,-5,-12,0,153,118,73,0,76,180,23,21,0,173,166,170,169,1,10596
127.66722989,0,-4,-8,0,9,-2,-5,-12,0,-135,-120,95,13,65,201,23,21,0,170,169,173,166,1,10597
127.683230877,0,-4,-8,-1,20,-9,-3,-13,1,104,-187,44,25,49,216,23,21,0,170,169,173,166,1,10598
127.689491987,0,-4,-8,0,21,-12,-1,-12,2,104,-187,44,25,49,216,23,21,0,170,169,180,159,1,10599
127.700319051,0,-4,-8,0,21,-12,-1,-12,2,104,-187,44,25,49,216,23,21,0,169,170,180,159,1,10600
127.719238996,1,-4,-8,-6,6,-16,0,-8,2,29,-51,209,32,33,219,23,21,0,173,166,171,168,1,10601
127.730322837,1,-3,-8,-5,-4,-12,0,-3,1,29,106,218,34,17,213,23,21,0,173,166,171,168,1,10602
127.741168022,1,-3,-8,-5,-4,-12,0,-3,1,29,106,218,34,17,213,23,21,0,173,166,164,175,1,10603
127.752301931,1,-3,-8,4,0,-5,0,3,0,29,106,218,34,17,213,23,21,0,173,166,164,175,1,10604
127.771394014,1,-3,-8,4,0,-5,0,3,0,74,-80,179,31,1,199,23,21,0,167,172,167,172,1,10605
127.78117299,1,-3,-8,4,-17,0,0,8,-3,115,-172,99,26,-14,184,23,21,0,167,172,167,172,1,10606
127.792160987,1,-3,-8,6,-20,0,0,12,-6,115,-172,99,26,-14,184,23,21,0,167,172,156,183,1,10607
127.803247928,1,-3,-8,6,-20,0,0,12,-6,115,-172,99,26,-14,184,23,21,0,166,173,155,184,1,10608
127.822502851,1,-2,-8,3,-26,3,-1,13,-9,-100,-129,182,22,-28,172,23,21,0,168,171,151,188,1,10609
127.839355945,1,-2,-8,9,-12,9,-1,10,-10,60,146,52,21,-40,166,23,21,0,168,171,151,188,1,10610
127.844339847,1,-2,-8,9,-12,9,-1,10,-10,60,146,52,21,-40,166,23,21,0,164,175,160,179,1,10611
127.855356931,1,-2,-8,1,-9,8,-1,5,-10,60,146,52,21,-40,166,23,21,0,168,171,161,178,1,10612
127.873353004,1,-2,-8,1,-9,8,-1,5,-10,-15,98,29,22,-50,164,23,21,0,168,171,161,178,1,10613
127.884413957,0,-2,-9,0,1,11,0,-2,-8,-31,163,75,26,-57,165,23,21,0,168,171,161,178,1,10614
127.895547866,0,-2,-9,0,1,11,0,-2,-8,-31,163,75,26,-57,165,23,21,0,170,169,168,171,1,10615
127.906211853,0,-2,-9,-6,3,7,1,-9,-5,-31,163,75,26,-57,165,23,21,0,170,169,168,171,1,10616
127.924237966,0,-2,-9,-6,3,7,1,-9,-5,126,-46,20,29,-59,167,23,21,0,173,166,169,170,1,10617
127.935193061,0,-2,-9,-4,17,9,3,-15,0,-45,-75,169,31,-52,171,23,21,0,173,166,169,170,1,10618
127.946159839,0,-2,-9,-8,13,11,4,-18,3,-45,-75,169,31,-52,171,23,21,0,172,167,177,162,1,10619
127.958124876,0,-2,-9,-8,13,11,4,-18,3,-45,-75,169,31,-52,171,23,21,0,174,165,175,164,1,10620
127.976574897,0,-2,-9,-1,23,11,4,-17,7,111,143,-1,30,-36,177,23,21,0,170,169,181,158,1,10621
127.987294912,0,-2,-8,-2,13,7,3,-13,10,-91,-255,178,28,-14,187,23,21,0,170,169,181,158,1,10622
127.99849987,0,-2,-8,-2,13,7,3,-13,10,-91,-255,178,28,-14,187,23,21,0,171,168,175,164,1,10623
128.009316921,0,-2,-8,-9,0,5,1,-5,11,-91,-255,178,28,-14,187,23,21,0,175,164,167,172,1,10624
128.027304887,0,-1,-8,-9,0,5,1,-5,11,75,-170,-34,24,9,197,23,21,0,175,164,167,172,1,10625
128.038321018,0,-1,-8,-3,-5,3,-1,2,12,47,-33,242,21,26,204,23,21,0,175,164,167,172,1,10626
128.049309969,0,-1,-8,0,-12,10,-3,10,11,47,-33,242,21,26,204,23,21,0,172,167,164,175,1,10627
128.060437917,0,-1,-8,0,-12,10,-3,10,11,47,-33,242,21,26,204,23,21,0,170,169,160,179,1,10628
128.079200983,0,-1,-8,2,-4,9,-5,15,10,18,-33,231,19,33,203,23,21,0,168,171,165,174,1,10629
128.090325832,0,0,-8,2,-12,6,-6,16,9,4,-129,41,18,25,193,23,21,0,168,171,165,174,1,10630
128.101380825,0,0,-8,2,-12,6,-6,16,9,4,-129,41,18,25,193,23,21,0,168,171,160,179,1,10631
128.112303972,0,0,-8,9,-6,13,-6,14,8,4,-129,41,18,25,193,23,21,0,164,175,163,176,1,10632
128.131513834,0,0,-8,9,-6,13,-6,14,8,-4,-202,71,18,4,178,23,21,0,164,175,163,176,1,10633
128.142346859,0,0,-8,2,-12,5,-5,9,7,-72,-1,85,19,-25,162,23,21,0,164,175,163,176,1,10634
128.153337955,0,0,-8,2,-12,5,-5,9,7,-72,-1,85,19,-25,162,23,21,0,168,171,160,179,1,10635
128.164281845,0,0,-7,9,-17,7,-3,2,6,-72,-1,85,19,-25,162,23,21,0,168,171,160,179,1,10636
128.182241916,0,0,-7,9,-17,7,-3,2,6,-8,-99,78,20,-57,153,23,21,0,164,175,157,182,1,10637
128.193261861,0,0,-7,10,5,7,-1,-4,6,-79,-4,152,20,-87,154,23,21,0,164,175,157,182,1,10638
128.204213857,0,0,-7,13,7,5,1,-9,7,-79,-4,152,20,-87,154,23,21,0,163,176,171,168,1,10639
128.215226888,0,0,-7,13,7,5,1,-9,7,-79,-4,152,20,-87,154,23,21,0,161,178,171,168,1,10640
128.23428297,-1,0,-7,5,5,9,3,-13,7,-111,92,8,17,-111,162,23,21,0,166,173,170,169,1,10641
128.24525094,-1,0,-7,14,20,5,6,-14,8,16,12,153,10,-125,174,23,21,0,166,173,170,169,1,10642
128.256332874,-1,0,-7,14,20,5,6,-14,8,16,12,153,10,-125,174,23,21,0,161,178,179,160,1,10643
128.270032882,-1,0,-7,12,7,-3,8,-12,8,16,12,153,10,-125,174,23,21,0,162,177,172,167,1,10644
128.285336017,-2,0,-7,12,7,-3,8,-12,8,56,116,106,0,-131,185,23,21,0,162,177,172,167,1,10645
128.296270847,-2,0,-7,9,1,-3,9,-8,8,-44,-179,125,-14,-126,194,23,21,0,162,177,172,167,1,10646
128.307345867,-2,0,-7,9,1,-3,9,-8,8,-44,-179,125,-14,-126,194,23,21,0,164,175,168,171,1,10647
128.322234869,-2,0,-7,7,1,-7,10,-2,7,-44,-179,125,-14,-126,194,23,21,0,165,174,168,171,1,10648
128.337195873,-2,0,-7,5,-3,-1,10,2,6,-227,-161,40,-27,-111,198,23,21,0,166,173,165,174,1,10649
128.348454952,-3,0,-7,8,-3,-5,11,7,5,-59,-74,139,-39,-89,201,23,21,0,166,173,165,174,1,10650
128.359245061,-3,0,-7,8,-3,-5,11,7,5,-59,-74,139,-39,-89,201,23,21,0,165,174,165,174,1,10651
128.370230913,-2,0,-7,2,-14,-5,11,10,2,-59,-74,139,-39,-89,201,23,21,0,168,171,159,180,1,10652
128.388645887,-3,0,-7,2,-14,-5,11,10,2,-1,101,178,-46,-65,201,23,21,0,168,171,159,180,1,10653
128.399206876,-3,0,-7,0,-19,-2,10,10,0,108,-18,64,-52,-45,200,23,21,0,168,171,159,180,1,10654
128.412262916,-3,0,-7,0,-19,-2,10,10,0,108,-18,64,-52,-45,200,23,21,0,169,170,155,184,1,10655
128.421594858,-3,0,-7,-5,-13,-2,9,8,-1,108,-18,64,-52,-45,200,23,21,0,169,170,155,184,1,10656
128.440179824,-3,0,-7,-5,-13,-2,9,8,-1,-124,-140,63,-55,-31,199,23,21,0,173,166,159,180,1,10657
128.451761007,-3,0,-7,-3,-10,0,8,4,-3,246,21,128,-57,-25,197,23,21,0,173,166,159,180,1,10658
128.462193966,-3,0,-7,-4,-12,-3,6,-1,-5,246,21,128,-57,-25,197,23,21,0,172,167,161,178,1,10659
128.473117828,-3,0,-7,-4,-12,-3,6,-1,-5,246,21,128,-57,-25,197,23,21,0,172,167,159,180,1,10660
128.492161989,-3,0,-7,-6,-8,-1,4,-6,-5,14,-49,234,-54,-25,194,23,21,0,173,166,162,177,1,10661
128.503176927,-3,-1,-7,-7,-6,4,2,-11,-5,89,158,175,-46,-29,189,23,21,0,173,166,162,177,1,10662
128.514186859,-3,-1,-7,-7,-6,4,2,-11,-5,89,158,175,-46,-29,189,23,21,0,174,165,163,176,1,10663
128.525485992,-3,-1,-7,0,0,2,0,-15,-4,89,158,175,-46,-29,189,23,21,0,169,170,167,172,1,10664
128.543269872,-4,-1,-7,0,0,2,0,-15,-4,-159,-16,232,-29,-33,186,23,21,0,169,170,167,172,1,10665
128.554224968,-4,-2,-7,-7,5,8,-2,-16,-3,-100,-251,82,-2,-36,184,23,21,0,169,170,167,172,1,10666
128.565222978,-4,-2,-7,-7,5,8,-2,-16,-3,-100,-251,82,-2,-36,184,23,21,0,174,165,170,169,1,10667
128.576282978,-4,-2,-7,0,1,2,-4,-15,-1,-100,-251,82,-2,-36,184,23,21,0,169,170,168,171,1,10668
128.599171877,-4,-2,-7,0,1,2,-4,-15,-1,-36,-64,102,28,-35,187,23,21,0,169,170,168,171,1,10669
128.605211019,-4,-2,-7,1,8,8,-5,-13,0,123,114,46,56,-31,195,23,21,0,169,170,168,171,1,10670
128.616183042,-4,-2,-7,9,10,1,-5,-9,1,123,114,46,56,-31,195,23,21,0,169,170,172,167,1,10671
128.627372026,-4,-2,-7,9,10,1,-5,-9,1,123,114,46,56,-31,195,23,21,0,164,175,173,166,1,10672
128.646196842,-4,-2,-7,5,13,4,-5,-5,2,-76,-80,16,74,-26,208,23,21,0,166,173,175,164,1,10673
128.657202959,-4,-2,-7,10,12,4,-4,0,3,-94,11,150,77,-24,226,23,21,0,166,173,175,164,1,10674
128.668154955,-4,-2,-7,10,12,4,-4,0,3,-94,11,150,77,-24,226,23,21,0,163,176,174,165,1,10675
128.679328918,-4,-1,-7,17,7,0,-2,3,4,-94,11,150,77,-24,226,23,21,0,163,176,174,165,1,10676
128.697227001,-4,-1,-7,17,7,0,-2,3,4,-113,63,58,65,-24,248,23,21,0,159,180,172,167,1,10677
128.708332061,-4,-1,-7,19,4,-3,0,6,5,72,150,186,43,-25,13,23,21,0,159,180,172,167,1,10678
128.719404935,-4,-1,-7,16,0,0,2,9,5,72,150,186,43,-25,13,23,21,0,158,181,170,169,1,10679
128.73032093,-4,-1,-7,16,0,0,2,9,5,72,150,186,43,-25,13,23,21,0,160,179,167,172,1,10680
128.749328851,-4,-1,-7,17,1,-5,6,10,4,86,-97,141,14,-25,28,23,21,0,159,180,168,171,1,10681
128.760406971,-4,0,-7,10,-4,-6,9,11,3,95,-132,253,-13,-22,36,23,21,0,159,180,168,171,1,10682
128.771404028,-4,0,-7,10,-4,-6,9,11,3,95,-132,253,-13,-22,36,23,21,0,163,176,164,175,1,10683
128.783282995,-4,0,-7,15,-3,-1,12,10,2,95,-132,253,-13,-22,36,23,21,0,160,179,165,174,1,10684
128.801126957,-4,0,-7,15,-3,-1,12,10,2,137,35,233,-36,-15,34,23,21,0,160,179,165,174,1,10685
128.815251827,-4,0,-7,13,-7,-8,15,8,0,-88,220,186,-48,-6,22,23,21,0,160,179,165,174,1,10686
128.823387861,-4,0,-7,13,-7,-8,15,8,0,-88,220,186,-48,-6,22,23,21,0,161,178,163,176,1,10687
128.834256887,-4,0,-7,0,-8,-7,16,5,-1,-88,220,186,-48,-6,22,23,21,0,170,169,162,177,1,10688
128.852380037,-3,0,-7,2,-8,-11,17,2,-2,16,90,12,-45,2,4,23,21,0,168,171,162,177,1,10689
128.863571882,-3,0,-7,-14,-13,-10,16,0,-4,-153,-42,244,-29,10,240,23,21,0,168,171,162,177,1,10690
128.874280929,-3,0,-7,-14,-13,-10,16,0,-4,-153,-42,244,-29,10,240,23,21,0,178,161,159,180,1,10691
128.885905981,-3,0,-7,-6,-14,-14,14,-3,-5,-153,-42,244,-29,10,240,23,21,0,173,166,159,180,1,10692
128.90735197,-3,0,-7,-6,-14,-14,14,-3,-5,142,18,49,-5,17,221,23,21,0,173,166,159,180,1,10693
128.915241956,-2,0,-7,-5,-9,-13,11,-6,-6,136,-121,89,17,24,208,23,21,0,173,166,159,180,1,10694
128.926313877,-2,0,-7,-5,-9,-13,11,-6,-6,136,-121,89,17,24,208,23,21,0,173,166,161,178,1,10695
128.939530849,-2,0,-7,-13,-16,-13,8,-8,-7,136,-121,89,17,24,208,23,21,0,173,166,161,178,1,10696
128.955206871,-2,0,-7,-13,-16,-13,8,-8,-7,-8,-84,41,35,32,202,23,21,0,178,161,157,182,1,10697
128.971369028,-2,0,-7,10,-7,-10,3,-9,-9,6,-30,225,45,36,203,23,21,0,178,161,157,182,1,10698
128.97735691,-2,0,-7,20,2,-3,0,-10,-10,6,-30,225,45,36,203,23,21,0,163,176,163,176,1,10699
128.990452051,-2,0,-7,20,2,-3,0,-10,-10,6,-30,225,45,36,203,23,21,0,157,182,168,171,1,10700
129.007356882,-2,0,-7,24,-9,-11,-4,-11,-11,107,98,166,47,35,206,23,21,0,155,184,161,178,1,10701
129.018376827,-2,0,-7,41,-4,-5,-6,-11,-12,68,143,22,45,27,208,23,21,0,155,184,161,178,1,10702
129.029330968,-2,0,-7,41,-4,-5,-6,-11,-12,68,143,22,45,27,208,23,21,0,145,194,165,174,1,10703
129.040292024,-2,0,-8,28,-11,0,-5,-11,-12,68,143,22,45,27,208,23,21,0,152,187,160,179,1,10704
129.063338995,-2,0,-8,28,-11,0,-5,-11,-12,139,-51,223,42,14,206,23,21,0,152,187,160,179,1,10705
129.069285869,-1,0,-8,40,-2,-2,-1,-10,-11,-28,-111,145,39,0,201,23,21,0,152,187,160,179,1,10706
129.080342054,-1,0,-8,40,-2,-2,-1,-10,-11,-28,-111,145,39,0,201,23,21,0,145,194,166,173,1,10707
129.091526031,-1,0,-8,33,2,2,5,-9,-10,-28,-111,145,39,0,201,23,21,0,150,189,169,170,1,10708
129.109333992,-1,0,-8,33,2,2,5,-9,-10,-2,40,113,39,-9,194,23,21,0,150,189,169,170,1,10709
129.120386839,-1,0,-8,15,11,-6,13,-7,-9,191,9,250,42,-14,188,23,21,0,150,189,169,170,1,10710
129.131382942,-1,0,-8,-3,0,-3,22,-6,-7,191,9,250,42,-14,188,23,21,0,160,179,174,165,1,10711
129.142303943,-1,0,-8,-3,0,-3,22,-6,-7,191,9,250,42,-14,188,23,21,0,172,167,167,172,1,10712
129.161282062,-1,0,-8,-4,12,1,29,-4,-4,135,100,180,48,-13,187,23,21,0,172,167,174,165,1,10713
129.172250986,0,0,-8,-23,2,-3,33,-2,-3,-115,177,192,55,-6,191,23,21,0,172,167,174,165,1,10714
129.183331012,0,0,-8,-23,2,-3,33,-2,-3,-115,177,192,55,-6,191,23,21,0,183,156,168,171,1,10715
129.194346904,0,0,-8,-34,9,-9,33,0,-1,-115,177,192,55,-6,191,23,21,0,183,156,168,171,1,10716
129.213131904,0,0,-8,-34,9,-9,33,0,-1,-16,43,114,61,7,201,23,21,0,190,149,173,166,1,10717
129.224191904,0,0,-8,-36,13,-3,28,1,-1,44,89,60,66,27,213,23,21,0,190,149,173,166,1,10718
129.235358953,0,0,-8,-44,3,-3,19,3,-1,44,89,60,66,27,213,23,21,0,191,148,175,164,1,10719
129.247566938,0,0,-8,-44,3,-3,19,3,-1,44,89,60,66,27,213,23,21,0,196,143,169,170,1,10720
129.265379905,0,0,-8,-31,13,0,6,5,-1,47,65,224,68,51,224,23,21,0,188,151,175,164,1,10721
129.276236057,0,1,-8,-26,-9,-2,-7,7,-2,-94,-130,39,65,77,232,23,21,0,188,151,175,164,1,10722
129.287644863,0,1,-8,-26,-9,-2,-7,7,-2,-94,-130,39,65,77,232,23,21,0,185,154,161,178,1,10723
129.298462867,0,1,-8,-20,-7,-5,-20,8,-3,-94,-130,39,65,77,232,23,21,0,185,154,161,178,1,10724
129.31636095,0,1,-8,-20,-7,-5,-20,8,-3,77,46,188,57,98,234,23,21,0,182,157,163,176,1,10725
129.327391862,0,1,-8,-2,-11,-3,-31,8,-4,68,35,84,45,110,234,23,21,0,182,157,163,176,1,10726
129.338197946,0,1,-8,-2,-11,-3,-31,8,-4,68,35,84,45,110,234,23,21,0,171,168,160,179,1,10727
129.349243879,0,1,-8,0,-17,-1,-38,8,-4,68,35,84,45,110,234,23,21,0,169,170,156,183,1,10728
129.367524862,0,2,-8,0,-17,-1,-38,8,-4,-60,139,82,31,111,232,23,21,0,169,170,156,183,1,10729
129.378397941,0,2,-9,6,-17,-4,-40,6,-4,-182,-44,119,17,99,231,23,21,0,169,170,156,183,1,10730
129.389248848,0,2,-9,8,-6,-1,-37,2,-4,-182,-44,119,17,99,231,23,21,0,165,174,157,182,1,10731
129.400156974,0,2,-9,8,-6,-1,-37,2,-4,-182,-44,119,17,99,231,23,21,0,165,174,163,176,1,10732
129.419288873,0,2,-9,3,-7,-7,-30,-1,-3,-200,-120,70,6,79,234,23,21,0,167,172,163,176,1,10733
129.430244922,0,2,-9,-3,0,-9,-20,-5,-3,-129,-3,33,-3,56,242,23,21,0,167,172,163,176,1,10734
129.441233873,0,2,-9,-3,0,-9,-20,-5,-3,-129,-3,33,-3,56,242,23,21,0,171,168,167,172,1,10735
129.452239036,0,2,-9,-8,-3,-10,-10,-10,-2,-129,-3,33,-3,56,242,23,21,0,171,168,167,172,1,10736
129.470366001,0,2,-9,-8,-3,-10,-10,-10,-2,-63,164,-91,-13,33,254,23,21,0,175,164,165,174,1,10737
129.481436014,0,2,-9,-24,3,-10,-1,-12,-3,-92,119,107,-28,13,8,23,21,0,175,164,165,174,1,10738
129.492110014,0,1,-9,-24,10,-11,5,-13,-3,-92,119,107,-28,13,8,23,21,0,184,155,169,170,1,10739
129.503283977,0,1,-9,-24,10,-11,5,-13,-3,-92,119,107,-28,13,8,23,21,0,184,155,173,166,1,10740
129.522266864,0,1,-9,-32,11,-9,7,-12,-4,25,65,56,-47,0,13,23,21,0,189,150,174,165,1,10741
129.534219026,0,1,-9,-37,13,-8,6,-9,-6,30,-116,158,-69,-6,6,23,21,0,189,150,174,165,1,10742
129.544206857,0,1,-9,-37,13,-8,6,-9,-6,30,-116,158,-69,-6,6,23,21,0,192,147,175,164,1,10743
129.555305004,0,1,-9,-35,3,-14,0,-5,-7,30,-116,158,-69,-6,6,23,21,0,191,148,169,170,1,10744
129.573494911,1,1,-9,-35,3,-14,0,-5,-7,204,161,189,-88,-3,244,23,21,0,191,148,169,170,1,10745
129.584327936,0,0,-9,-27,1,-4,-7,0,-9,-105,45,254,-100,7,218,23,21,0,191,148,169,170,1,10746
129.595299959,0,0,-9,-27,1,-4,-7,0,-9,-105,45,254,-100,7,218,23,21,0,186,153,168,171,1,10747
129.606256961,0,0,-9,-13,-2,-11,-16,4,-10,-105,45,254,-100,7,218,23,21,0,177,162,166,173,1,10748
129.625239849,0,0,-9,-13,-2,-11,-16,4,-10,-32,-145,117,-100,22,190,23,21,0,177,162,166,173,1,10749
129.639060974,0,0,-9,-1,-12,-7,-25,8,-11,-5,193,227,-86,37,166,23,21,0,177,162,166,173,1,10750
129.647290945,0,0,-9,1,-4,-2,-31,9,-11,-5,193,227,-86,37,166,23,21,0,170,169,160,179,1,10751
129.658298015,0,0,-9,1,-4,-2,-31,9,-11,-5,193,227,-86,37,166,23,21,0,168,171,164,175,1,10752
129.677240848,0,0,-10,3,-19,-5,-34,9,-10,0,-65,81,-65,49,152,23,21,0,167,172,156,183,1,10753
129.688184976,0,0,-10,2,-12,-11,-33,7,-10,161,65,196,-42,55,148,23,21,0,167,172,156,183,1,10754
129.699298858,0,0,-10,2,-12,-11,-33,7,-10,161,65,196,-42,55,148,23,21,0,168,171,160,179,1,10755
129.710199833,0,0,-10,5,-12,-8,-27,3,-9,161,65,196,-42,55,148,23,21,0,168,171,160,179,1,10756
129.728211879,0,0,-10,5,-12,-8,-27,3,-9,-93,-87,246,-23,54,155,23,21,0,166,173,160,179,1,10757
129.739222049,0,0,-10,0,-17,-11,-19,-1,-8,-58,-148,64,-12,48,170,23,21,0,166,173,160,179,1,10758
129.750149965,0,0,-10,-3,-5,-9,-10,-6,-7,-58,-148,64,-12,48,170,23,21,0,170,169,157,182,1,10759
129.761250972,0,0,-10,-3,-5,-9,-10,-6,-7,-58,-148,64,-12,48,170,23,21,0,172,167,164,175,1,10760
129.780294895,0,-1,-10,-5,-12,-10,-2,-10,-6,227,-179,101,-7,38,191,23,21,0,173,166,159,180,1,10761
129.791219949,0,-1,-10,-7,5,-12,4,-14,-6,-44,72,38,-6,23,215,23,21,0,173,166,159,180,1,10762
129.802259922,0,-1,-10,-7,5,-12,4,-14,-6,-44,72,38,-6,23,215,23,21,0,174,165,170,169,1,10763
129.813235998,0,-1,-10,-1,8,-5,7,-15,-7,-44,72,38,-6,23,215,23,21,0,174,165,170,169,1,10764
129.831301927,0,-1,-10,-1,8,-5,7,-15,-7,-23,-32,-35,-6,5,238,23,21,0,171,168,172,167,1,10765
129.842154026,0,-2,-10,1,0,-7,7,-15,-8,-88,-181,184,-5,-16,3,23,21,0,171,168,172,167,1,10766
129.855319976,0,-2,-10,1,0,-7,7,-15,-8,-88,-181,184,-5,-16,3,23,21,0,169,170,167,172,1,10767
129.864426851,0,-2,-11,0,7,-1,5,-13,-9,-88,-181,184,-5,-16,3,23,21,0,170,169,171,168,1,10768
129.883054971,0,-2,-11,0,7,-1,5,-13,-9,30,7,115,-1,-38,17,23,21,0,170,169,171,168,1,10769
129.893394947,0,-2,-11,15,8,-6,1,-9,-10,33,-185,128,4,-57,21,23,21,0,170,169,171,168,1,10770
129.904217004,0,-2,-11,16,-2,-5,-1,-5,-10,33,-185,128,4,-57,21,23,21,0,160,179,172,167,1,10771
129.915175914,0,-2,-11,16,-2,-5,-1,-5,-10,33,-185,128,4,-57,21,23,21,0,160,179,165,174,1,10772
129.934290886,0,-2,-11,24,7,-2,-3,-1,-9,15,179,59,8,-72,13,23,21,0,155,184,171,168,1,10773
129.946444034,0,-2,-11,33,2,-4,-4,2,-8,70,174,165,10,-81,248,23,21,0,155,184,171,168,1,10774
129.955502033,0,-2,-11,33,2,-4,-4,2,-8,70,174,165,10,-81,248,23,21,0,149,190,168,171,1,10775
129.966239929,0,-2,-11,26,8,-6,-1,5,-7,70,174,165,10,-81,248,23,21,0,154,185,172,167,1,10776
129.985237836,0,-2,-11,26,8,-6,-1,5,-7,-95,0,25,11,-83,218,23,21,0,154,185,172,167,1,10777
129.996449947,0,-1,-11,33,9,-6,3,6,-5,209,-163,206,10,-76,183,23,21,0,154,185,172,167,1,10778
130.007316827,0,-1,-11,33,9,-6,3,6,-5,209,-163,206,10,-76,183,23,21,0,149,190,173,166,1,10779
130.018257856,0,-1,-11,28,0,-6,9,7,-4,209,-163,206,10,-76,183,23,21,0,152,187,167,172,1,10780
130.039239883,0,-1,-11,28,0,-6,9,7,-4,128,-4,178,9,-59,151,23,21,0,152,187,167,172,1,10781
130.047317981,0,-1,-11,23,3,-10,16,6,-3,-55,161,84,10,-36,128,23,21,0,152,187,167,172,1,10782
130.058415889,0,-1,-11,19,13,-13,23,5,-3,-55,161,84,10,-36,128,23,21,0,155,184,169,170,1,10783
130.069383859,0,-1,-11,19,13,-13,23,5,-3,-55,161,84,10,-36,128,23,21,0,158,181,175,164,1,10784
130.088156938,0,-1,-11,13,8,-14,28,5,-4,-15,108,87,14,-11,118,23,21,0,161,178,172,167,1,10785
130.099216938,0,-1,-11,6,11,-16,31,4,-5,-111,-7,211,21,10,121,23,21,0,161,178,172,167,1,10786
130.110338926,0,-1,-11,6,11,-16,31,4,-5,-111,-7,211,21,10,121,23,21,0,165,174,174,165,1,10787
130.121408939,0,-1,-12,-1,5,-14,32,4,-6,-111,-7,211,21,10,121,23,21,0,171,168,170,169,1,10788
130.139273882,0,0,-12,-1,5,-14,32,4,-6,50,121,109,28,28,135,23,21,0,171,168,170,169,1,10789
130.150326013,0,0,-12,-6,4,-19,30,5,-8,26,87,110,28,40,156,23,21,0,171,168,170,169,1,10790
130.163440942,0,0,-12,-11,0,-12,25,6,-10,26,87,110,28,40,156,23,21,0,173,166,170,169,1,10791
130.172304868,0,0,-12,-11,0,-12,25,6,-10,26,87,110,28,40,156,23,21,0,176,163,167,172,1,10792
130.191177845,0,0,-12,-4,2,-16,19,7,-12,7,-190,226,20,49,178,23,21,0,172,167,169,170,1,10793
130.202219963,1,0,-12,-7,4,-11,12,7,-14,-70,-95,45,4,55,197,23,21,0,172,167,169,170,1,10794
130.213318824,1,0,-12,-7,4,-11,12,7,-14,-70,-95,45,4,55,197,23,21,0,174,165,170,169,1,10795
130.224226951,1,0,-12,-15,0,-10,5,7,-15,-70,-95,45,4,55,197,23,21,0,174,165,170,169,1,10796
130.242331981,1,0,-12,-15,0,-10,5,7,-15,-1,95,83,-13,56,208,23,21,0,179,160,167,172,1,10797
130.253260851,1,0,-13,-9,3,-9,0,7,-16,104,171,49,-31,52,213,23,21,0,179,160,167,172,1,10798
130.264257907,1,0,-13,-7,-1,-10,-6,6,-16,104,171,49,-31,52,213,23,21,0,175,164,169,170,1,10799
130.275480985,1,0,-13,-7,-1,-10,-6,6,-16,104,171,49,-31,52,213,23,21,0,174,165,166,173,1,10800
130.294270992,1,0,-13,-5,3,-9,-9,4,-15,37,6,124,-42,43,215,23,21,0,173,166,169,170,1,10801
130.305264949,1,0,-13,-4,3,-7,-11,3,-14,-65,-120,75,-45,30,217,23,21,0,173,166,169,170,1,10802
130.316264867,1,0,-13,-4,3,-7,-11,3,-14,-65,-120,75,-45,30,217,23,21,0,172,167,169,170,1,10803
130.32734704,1,0,-13,1,5,-8,-12,1,-13,-65,-120,75,-45,30,217,23,21,0,168,171,170,169,1,10804
130.347257852,1,0,-13,1,5,-8,-12,1,-13,-200,-124,200,-40,18,223,23,21,0,168,171,170,169,1,10805
130.356328964,1,0,-13,5,10,-9,-11,1,-11,25,207,54,-29,8,233,23,21,0,168,171,170,169,1,10806
130.367388963,1,0,-13,5,10,-9,-11,1,-11,25,207,54,-29,8,233,23,21,0,166,173,174,165,1,10807
130.378306865,1,0,-13,13,4,-8,-9,0,-10,25,207,54,-29,8,233,23,21,0,161,178,170,169,1,10808
130.397279977,1,0,-14,10,7,-12,-7,1,-9,-208,-67,71,-15,1,245,23,21,0,163,176,172,167,1,10809
130.408426046,1,0,-14,11,8,-11,-4,2,-8,-95,67,30,-6,-2,253,23,21,0,163,176,172,167,1,10810
130.419152021,1,0,-14,11,8,-11,-4,2,-8,-95,67,30,-6,-2,253,23,21,0,163,176,172,167,1,10811
130.430233955,1,0,-14,17,13,-10,-1,3,-8,-95,67,30,-6,-2,253,23,21,0,159,180,175,164,1,10812
130.448439836,1,0,-14,17,13,-10,-1,3,-8,117,-3,22,-5,-4,252,23,21,0,159,180,175,164,1,10813
130.459326028,1,0,-14,9,10,-12,2,5,-8,83,9,235,-13,-3,240,23,21,0,159,180,175,164,1,10814
130.470249891,1,0,-14,9,10,-12,2,5,-8,83,9,235,-13,-3,240,23,21,0,164,175,173,166,1,10815
130.481215953,1,0,-14,10,9,-9,6,6,-9,83,9,235,-13,-3,240,23,21,0,164,175,173,166,1,10816
130.500208854,1,0,-14,10,9,-9,6,6,-9,59,190,50,-28,0,221,23,21,0,163,176,173,166,1,10817
130.511250019,1,0,-14,9,6,-13,9,8,-9,-181,-54,8,-43,4,201,23,21,0,163,176,173,166,1,10818
130.522161007,1,0,-14,0,4,-9,11,9,-10,-181,-54,8,-43,4,201,23,21,0,164,175,171,168,1,10819
130.533315897,1,0,-14,0,4,-9,11,9,-10,-181,-54,8,-43,4,201,23,21,0,170,169,170,169,1,10820
130.552363872,1,0,-14,4,2,-13,13,9,-11,-8,-22,116,-53,12,187,23,21,0,167,172,168,171,1,10821
130.563253879,2,0,-15,0,-3,-10,13,10,-11,-37,192,252,-55,20,183,23,21,0,167,172,168,171,1,10822
130.57425785,2,0,-15,0,-3,-10,13,10,-11,-37,192,252,-55,20,183,23,21,0,170,169,165,174,1,10823
130.586525917,2,0,-15,-3,-3,-12,12,9,-12,-37,192,252,-55,20,183,23,21,0,172,167,165,174,1,10824
130.603206873,2,0,-15,-3,-3,-12,12,9,-12,156,31,73,-49,29,191,23,21,0,172,167,165,174,1,10825
130.614297866,2,0,-15,-3,-3,-8,10,8,-12,-66,-35,166,-37,38,210,23,21,0,172,167,165,174,1,10826
130.625288009,2,0,-15,-6,-13,-6,7,6,-12,-66,-35,166,-37,38,210,23,21,0,172,167,165,174,1,10827
130.636610984,2,0,-15,-6,-13,-6,7,6,-12,-66,-35,166,-37,38,210,23,21,0,173,166,159,180,1,10828
130.6552639,2,0,-15,-3,-3,-4,4,4,-11,57,-91,137,-24,48,233,23,21,0,172,167,165,174,1,10829
130.66620183,2,0,-15,-10,-15,-6,1,1,-11,22,-87,101,-11,60,253,23,21,0,172,167,165,174,1,10830
130.677324056,2,0,-15,-10,-15,-6,1,1,-11,22,-87,101,-11,60,253,23,21,0,176,163,158,181,1,10831
130.688460826,2,0,-15,2,-17,-9,-1,-1,-10,22,-87,101,-11,60,253,23,21,0,168,171,157,182,1,10832
130.706311941,3,0,-15,2,-17,-9,-1,-1,-10,109,135,-10,0,70,7,23,21,0,168,171,157,182,1,10833
130.717218875,3,-1,-16,9,-17,0,-3,-4,-9,-190,-52,55,10,76,2,23,21,0,168,171,157,182,1,10834
130.728136062,3,-1,-16,9,-17,0,-3,-4,-9,-190,-52,55,10,76,2,23,21,0,164,175,157,182,1,10835
130.73920989,3,-1,-16,7,-22,-3,-4,-7,-8,-190,-52,55,10,76,2,23,21,0,164,175,157,182,1,10836
130.757179975,3,-1,-16,7,-22,-3,-4,-7,-8,110,-126,198,18,75,240,23,21,0,165,174,154,185,1,10837
130.768610954,3,-1,-16,5,-21,0,-5,-9,-7,146,41,173,23,65,210,23,21,0,165,174,154,185,1,10838
130.779207944,3,-1,-16,20,-5,0,-4,-11,-6,146,41,173,23,65,210,23,21,0,166,173,154,185,1,10839
130.790413856,3,-1,-16,20,-5,0,-4,-11,-6,146,41,173,23,65,210,23,21,0,157,182,164,175,1,10840
130.809291839,3,-1,-16,19,-15,-2,-2,-14,-5,-15,111,203,25,48,177,23,21,0,158,181,158,181,1,10841
130.82051301,3,-1,-16,15,-8,-2,0,-15,-4,2,66,22,26,27,148,23,21,0,158,181,158,181,1,10842
130.831138849,3,-1,-16,15,-8,-2,0,-15,-4,2,66,22,26,27,148,23,21,0,160,179,162,177,1,10843
130.842304945,3,-1,-16,10,-10,-2,4,-17,-3,2,66,22,26,27,148,23,21,0,163,176,161,178,1,10844
130.860337019,4,-1,-16,10,-10,-2,4,-17,-3,-78,-192,154,26,6,130,23,21,0,163,176,161,178,1,10845
130.871254921,4,-1,-16,-6,-5,-5,8,-17,-2,-190,-62,41,30,-10,126,23,21,0,163,176,161,178,1,10846
130.882194995,4,-1,-16,4,5,0,11,-16,-1,-190,-62,41,30,-10,126,23,21,0,173,166,164,175,1,10847
130.89327383,4,-1,-16,4,5,0,11,-16,-1,-190,-62,41,30,-10,126,23,21,0,167,172,170,169,1,10848
130.913259029,4,-1,-16,-1,-4,-3,14,-15,-1,-110,-9,50,35,-20,135,23,21,0,170,169,164,175,1,10849
130.923285961,4,-1,-16,-10,1,-6,14,-13,-1,-145,187,97,40,-24,152,23,21,0,170,169,164,175,1,10850
130.934275865,4,-1,-16,-10,1,-6,14,-13,-1,-145,187,97,40,-24,152,23,21,0,176,163,168,171,1,10851
130.945171833,4,-1,-16,-15,-3,0,13,-10,-1,-145,187,97,40,-24,152,23,21,0,179,160,165,174,1,10852
130.967164039,4,-1,-16,-15,-3,0,13,-10,-1,39,227,98,40,-24,172,23,21,0,179,160,165,174,1,10853
130.975154876,4,-1,-16,-17,-4,0,10,-6,-1,-156,28,129,31,-20,191,23,21,0,179,160,165,174,1,10854
130.986088991,4,-1,-16,-17,-4,0,10,-6,-1,-156,28,129,31,-20,191,23,21,0,180,159,164,175,1,10855
130.996320963,4,-1,-16,-11,5,5,5,-4,-2,-156,28,129,31,-20,191,23,21,0,180,159,164,175,1,10856
131.015212059,4,-1,-16,-11,5,5,5,-4,-2,-6,-48,117,12,-12,207,23,21,0,176,163,171,168,1,10857
131.026159048,4,0,-16,-9,1,1,0,-1,-2,-139,-126,201,-14,1,217,23,21,0,176,163,171,168,1,10858
131.037155866,4,0,-16,-9,1,1,0,-1,-2,-139,-126,201,-14,1,217,23,21,0,175,164,168,171,1,10859
131.048998832,4,0,-16,-20,-10,3,-4,0,-2,-139,-126,201,-14,1,217,23,21,0,175,164,168,171,1,10860
131.066325903,4,0,-16,-20,-10,3,-4,0,-2,133,119,186,-43,20,220,23,21,0,182,157,161,178,1,10861
131.077252864,3,-1,-16,-15,-9,0,-9,0,-2,125,55,254,-69,38,214,23,21,0,182,157,161,178,1,10862
131.088116884,3,-1,-16,-15,-9,0,-9,0,-2,125,55,254,-69,38,214,23,21,0,179,160,161,178,1,10863
131.099890947,3,-1,-16,-7,0,8,-13,0,-1,125,55,254,-69,38,214,23,21,0,174,165,167,172,1,10864
131.117246866,3,-1,-16,-7,0,8,-13,0,-1,-198,-72,229,-86,52,204,23,21,0,174,165,167,172,1,10865
131.128278017,3,-1,-16,-5,-1,5,-15,0,0,16,-200,11,-91,61,191,23,21,0,174,165,167,172,1,10866
131.139361858,3,-1,-16,-5,-1,5,-15,0,0,16,-200,11,-91,61,191,23,21,0,173,166,166,173,1,10867
131.150182962,3,-1,-16,-14,-12,5,-16,-1,1,16,-200,11,-91,61,191,23,21,0,178,161,159,180,1,10868
131.169240951,3,-1,-16,-14,-12,5,-16,-1,1,-65,-231,171,-84,64,181,23,21,0,178,161,159,180,1,10869
131.180222034,3,-2,-16,-14,-11,1,-16,-2,2,-46,64,204,-66,61,176,23,21,0,178,161,159,180,1,10870
131.19117403,3,-2,-16,-6,-15,0,-15,-3,3,-46,64,204,-66,61,176,23,21,0,178,161,160,179,1,10871
131.201216936,3,-2,-16,-6,-15,0,-15,-3,3,-46,64,204,-66,61,176,23,21,0,173,166,158,181,1,10872
131.220660925,3,-2,-16,-5,0,5,-13,-5,4,39,191,87,-44,51,178,23,21,0,173,166,167,172,1,10873
131.231226921,3,-2,-16,-4,3,4,-11,-6,4,2,-8,224,-24,32,187,23,21,0,173,166,167,172,1,10874
131.242265939,3,-2,-16,-4,3,4,-11,-6,4,2,-8,224,-24,32,187,23,21,0,172,167,169,170,1,10875
131.25325489,3,-2,-16,-5,-4,0,-10,-7,4,2,-8,224,-24,32,187,23,21,0,172,167,169,170,1,10876
131.272191047,3,-3,-16,-5,-4,0,-10,-7,4,-162,-142,73,-10,9,199,23,21,0,173,166,165,174,1,10877
131.283232927,3,-3,-16,-9,0,0,-9,-8,4,-39,-22,168,-2,-12,214,23,21,0,173,166,165,174,1,10878
131.294132948,3,-3,-16,-1,-3,0,-8,-8,4,-39,-22,168,-2,-12,214,23,21,0,175,164,168,171,1,10879
131.305146932,3,-3,-16,-1,-3,0,-8,-8,4,-39,-22,168,-2,-12,214,23,21,0,170,169,165,174,1,10880
131.323457002,3,-3,-16,-3,11,1,-7,-7,3,-24,204,84,-2,-28,227,23,21,0,172,167,174,165,1,10881
131.334389925,2,-3,-16,4,16,2,-6,-5,2,236,114,142,-8,-37,235,23,21,0,172,167,174,165,1,10882
131.345309972,2,-3,-16,4,16,2,-6,-5,2,236,114,142,-8,-37,235,23,21,0,167,172,177,162,1,10883
131.356268882,2,-3,-16,7,8,-2,-6,-3,2,236,114,142,-8,-37,235,23,21,0,165,174,172,167,1,10884
131.375340938,2,-3,-16,7,8,-2,-6,-3,2,237,-136,161,-18,-36,237,23,21,0,165,174,172,167,1,10885
131.38739705,2,-3,-16,12,14,-3,-5,-1,1,75,-122,45,-26,-27,233,23,21,0,165,174,172,167,1,10886
131.397836923,2,-3,-16,7,9,-3,-3,1,1,75,-122,45,-26,-27,233,23,21,0,162,177,176,163,1,10887
131.408180952,2,-3,-16,7,9,-3,-3,1,1,75,-122,45,-26,-27,233,23,21,0,165,174,173,166,1,10888
131.427254915,2,-3,-16,14,16,-2,-2,4,0,12,-215,169,-26,-12,227,23,21,0,161,178,177,162,1,10889
131.438505888,2,-3,-16,14,8,-6,0,7,0,-55,132,50,-15,3,221,23,21,0,161,178,177,162,1,10890
131.451392889,2,-3,-16,14,8,-6,0,7,0,-55,132,50,-15,3,221,23,21,0,161,178,172,167,1,10891
131.460325956,2,-3,-16,14,12,-2,3,10,0,-55,132,50,-15,3,221,23,21,0,161,178,175,164,1,10892
131.478308916,2,-3,-16,14,12,-2,3,10,0,-86,1,162,6,13,216,23,21,0,161,178,175,164,1,10893
131.49189496,2,-3,-16,12,11,-7,6,12,-1,3,-133,84,34,14,213,23,21,0,161,178,175,164,1,10894
131.500313997,2,-3,-16,12,11,-7,6,12,-1,3,-133,84,34,14,213,23,21,0,162,177,174,165,1,10895
131.511226892,2,-2,-16,5,8,-2,9,13,-2,3,-133,84,34,14,213,23,21,0,162,177,174,165,1,10896
131.529327869,2,-2,-16,5,8,-2,9,13,-2,154,-65,150,58,5,211,23,21,0,166,173,172,167,1,10897
131.54023385,2,-2,-16,0,7,-11,11,13,-3,-32,62,133,74,-9,211,23,21,0,166,173,172,167,1,10898
131.551370859,2,-2,-16,0,7,-11,11,13,-3,-32,62,133,74,-9,211,23,21,0,169,170,172,167,1,10899
131.562345981,2,-2,-16,-7,9,-7,13,13,-3,-32,62,133,74,-9,211,23,21,0,169,170,172,167,1,10900
131.580306053,2,-1,-16,-7,9,-7,13,13,-3,59,118,77,76,-27,213,23,21,0,174,165,173,166,1,10901
131.59127593,2,-1,-16,-13,0,-11,13,12,-4,-90,-116,238,67,-42,218,23,21,0,174,165,173,166,1,10902
131.602185011,2,-1,-16,-13,0,-11,13,12,-4,-90,-116,238,67,-42,218,23,21,0,178,161,167,172,1,10903
131.613126993,2,-1,-16,-16,-2,-12,12,11,-5,-90,-116,238,67,-42,218,23,21,0,180,159,166,173,1,10904
131.632241964,2,0,-16,-16,-2,-12,12,11,-5,-17,0,244,52,-51,225,23,21,0,180,159,166,173,1,10905
131.643174886,2,0,-16,-10,-3,-6,9,10,-6,-94,42,195,33,-52,231,23,21,0,180,159,166,173,1,10906
131.653203964,2,0,-16,-10,-3,-6,9,10,-6,-94,42,195,33,-52,231,23,21,0,176,163,165,174,1,10907
131.664334058,2,0,-16,-11,-11,-5,5,8,-7,-94,42,195,33,-52,231,23,21,0,177,162,160,179,1,10908
131.683198928,2,0,-16,-11,-11,-5,5,8,-7,55,49,139,15,-45,235,23,21,0,177,162,160,179,1,10909
131.694159031,2,0,-16,-2,0,0,0,6,-8,-61,-37,173,0,-32,236,23,21,0,177,162,160,179,1,10910
131.70531702,2,0,-16,-3,8,0,-5,4,-8,-61,-37,173,0,-32,236,23,21,0,171,168,167,172,1,10911
131.716400861,2,0,-16,-3,8,0,-5,4,-8,-61,-37,173,0,-32,236,23,21,0,171,168,172,167,1,10912
131.73525691,1,0,-16,0,3,-1,-9,1,-9,110,47,43,-14,-16,233,23,21,0,169,170,169,170,1,10913
131.746144056,1,0,-17,4,18,6,-12,0,-8,56,-177,95,-23,-1,227,23,21,0,169,170,169,170,1,10914
131.757206916,1,0,-17,0,10,6,-13,-2,-7,56,-177,95,-23,-1,227,23,21,0,167,172,178,161,1,10915
131.768201828,1,0,-17,0,10,6,-13,-2,-7,-165,22,10,-27,11,217,23,21,0,169,170,173,166,1,10916
131.787462949,1,0,-17,-2,18,2,-11,-2,-5,-165,22,10,-27,11,217,23,21,0,171,168,178,161,1,10917
131.798236847,0,0,-17,1,14,8,-9,0,-3,-49,232,245,-26,18,207,23,21,0,171,168,178,161,1,10918
131.809152841,0,0,-17,1,14,8,-9,0,-3,-49,232,245,-26,18,207,23,21,0,168,171,176,163,1,10919
131.820266008,0,0,-17,2,26,14,-5,1,0,-49,232,245,-26,18,207,23,21,0,168,171,176,163,1,10920
131.838239908,0,0,-17,2,26,14,-5,1,0,-245,-79,171,-21,19,199,23,21,0,168,171,183,156,1,10921
131.849349022,0,0,-17,3,25,10,-1,5,2,-47,28,113,-15,15,193,23,21,0,168,171,183,156,1,10922
131.860255956,0,0,-17,3,25,10,-1,5,2,-47,28,113,-15,15,193,23,21,0,167,172,182,157,1,10923
131.871393919,0,0,-17,8,17,12,1,10,4,-47,28,113,-15,15,193,23,21,0,164,175,178,161,1,10924
131.889199972,0,0,-17,8,17,12,1,10,4,182,-100,59,-13,10,190,23,21,0,164,175,178,161,1,10925
131.900256872,1,0,-17,5,10,5,3,14,6,71,-25,185,-17,5,191,23,21,0,164,175,178,161,1,10926
131.911391019,1,0,-17,0,1,1,4,18,8,71,-25,185,-17,5,191,23,21,0,166,173,173,166,1,10927
131.922320842,1,0,-17,0,1,1,4,18,8,71,-25,185,-17,5,191,23,21,0,169,170,168,171,1,10928
131.941311836,1,0,-17,3,-5,0,4,20,9,-202,-4,77,-27,3,194,23,21,0,167,172,164,175,1,10929
131.952250003,1,0,-16,-1,-9,1,4,21,9,0,-213,169,-38,1,199,23,21,0,167,172,164,175,1,10930
131.963335991,1,0,-16,-1,-9,1,4,21,9,0,-213,169,-38,1,199,23,21,0,171,168,161,178,1,10931
131.97436285,1,0,-16,1,-24,0,3,20,9,0,-213,169,-38,1,199,23,21,0,171,168,161,178,1,10932
131.993294954,1,0,-16,-2,-30,-3,3,16,8,-152,-156,163,-46,-1,206,23,21,0,171,168,149,190,1,10933
132.004279852,1,0,-16,4,-35,-4,3,10,7,-72,5,218,-52,-8,215,23,21,0,171,168,149,190,1,10934
132.01522398,1,0,-16,4,-35,-4,3,10,7,-72,5,218,-52,-8,215,23,21,0,167,172,146,193,1,10935
132.026170969,1,0,-16,3,-40,-8,2,3,4,-72,5,218,-52,-8,215,23,21,0,167,172,146,193,1,10936
132.045172929,1,0,-16,2,-43,-5,2,-5,2,-75,143,200,-59,-19,229,23,21,0,168,171,141,198,1,10937
132.056332826,1,0,-16,-1,-45,-10,1,-14,0,-131,31,220,-68,-34,243,23,21,0,168,171,141,198,1,10938
132.067522049,1,0,-16,-1,-45,-10,1,-14,0,-131,31,220,-68,-34,243,23,21,0,171,168,140,199,1,10939
132.078382015,1,0,-16,-6,-44,-16,1,-23,-2,-131,31,220,-68,-34,243,23,21,0,173,166,141,198,1,10940
132.096235036,0,0,-16,-6,-44,-16,1,-23,-2,-18,166,43,-80,-49,1,23,21,0,173,166,141,198,1,10941
132.107228994,0,-1,-16,-2,-31,-15,1,-31,-4,46,-17,134,-93,-59,10,23,21,0,173,166,141,198,1,10942
132.118232965,0,-1,-16,-13,-34,-17,0,-37,-6,46,-17,134,-93,-59,10,23,21,0,171,168,148,191,1,10943
132.131335973,0,-1,-16,-13,-34,-17,0,-37,-6,46,-17,134,-93,-59,10,23,21,0,178,161,146,193,1,10944
132.148247957,0,-2,-16,-4,-18,-15,0,-41,-8,9,88,150,-105,-59,13,23,21,0,172,167,156,183,1,10945
132.15929389,0,-3,-16,-1,-3,-14,0,-43,-9,122,229,136,-110,-46,11,23,21,0,172,167,156,183,1,10946
132.170173883,0,-3,-16,-1,-3,-14,0,-43,-9,122,229,136,-110,-46,11,23,21,0,170,169,165,174,1,10947
132.182584047,0,-3,-16,-4,-9,-16,-1,-43,-11,122,229,136,-110,-46,11,23,21,0,172,167,161,178,1,10948
132.200227022,0,-4,-16,-11,-5,-14,-2,-40,-13,217,24,92,-107,-22,7,23,21,0,176,163,164,175,1,10949
132.211205959,0,-5,-17,-5,4,-9,-4,-35,-14,-77,-149,121,-91,9,1,23,21,0,176,163,164,175,1,10950
132.222197055,0,-5,-17,-5,4,-9,-4,-35,-14,-77,-149,121,-91,9,1,23,21,0,173,166,170,169,1,10951
132.233230829,0,-5,-17,-10,9,-13,-5,-28,-15,-77,-149,121,-91,9,1,23,21,0,176,163,173,166,1,10952
132.252246856,0,-5,-17,-1,20,-2,-6,-20,-16,-171,4,-97,-65,43,247,23,21,0,170,169,180,159,1,10953
132.263236045,0,-6,-17,4,21,-4,-7,-12,-15,134,16,248,-30,72,233,23,21,0,170,169,180,159,1,10954
132.274183988,0,-6,-17,4,21,-4,-7,-12,-15,134,16,248,-30,72,233,23,21,0,167,172,180,159,1,10955
132.285284996,0,-6,-18,1,12,-7,-7,-4,-14,134,16,248,-30,72,233,23,21,0,167,172,180,159,1,10956
132.303431034,0,-6,-18,1,12,-7,-7,-4,-14,172,-153,103,5,90,212,23,21,0,169,170,175,164,1,10957
132.315490961,0,-6,-18,1,11,-4,-6,2,-13,249,142,142,36,92,186,23,21,0,169,170,175,164,1,10958
132.325111866,0,-6,-18,1,11,-4,-6,2,-13,249,142,142,36,92,186,23,21,0,169,170,174,165,1,10959
132.336190939,0,-6,-18,0,4,-7,-6,7,-11,249,142,142,36,92,186,23,21,0,169,170,174,165,1,10960
132.355677843,0,-6,-18,0,4,-7,-6,7,-11,253,170,100,58,80,158,23,21,0,169,170,170,169,1,10961
132.365229845,0,-5,-18,-5,-5,-10,-4,12,-9,-125,109,194,73,56,137,23,21,0,169,170,170,169,1,10962
132.376318931,0,-5,-18,-5,-5,-10,-4,12,-9,-125,109,194,73,56,137,23,21,0,173,166,164,175,1,10963
132.38773489,0,-5,-18,5,-7,-10,-2,15,-7,-125,109,194,73,56,137,23,21,0,166,173,163,176,1,10964
132.405287027,1,-5,-18,5,-7,-10,-2,15,-7,1,29,52,84,30,124,23,21,0,166,173,163,176,1,10965
132.416218042,1,-4,-18,7,-11,-12,-1,15,-6,-27,116,213,94,9,123,23,21,0,166,173,163,176,1,10966
132.427228927,1,-4,-18,7,-11,-12,-1,15,-6,-27,116,213,94,9,123,23,21,0,165,174,160,179,1,10967
132.438186884,1,-4,-18,5,-16,-13,0,14,-5,-27,116,213,94,9,123,23,21,0,166,173,157,182,1,10968
132.457738876,1,-3,-18,5,-16,-13,0,14,-5,-86,-103,90,100,0,129,23,21,0,166,173,157,182,1,10969
132.468240976,1,-2,-18,7,-30,-10,1,10,-5,-46,-253,112,102,4,139,23,21,0,166,173,157,182,1,10970
132.479382038,1,-2,-18,18,-21,-2,2,5,-6,-46,-253,112,102,4,139,23,21,0,165,174,149,190,1,10971
132.490190982,1,-2,-18,18,-21,-2,2,5,-6,-46,-253,112,102,4,139,23,21,0,158,181,154,185,1,10972
132.509158849,1,-2,-19,3,-33,-3,2,-1,-7,158,-157,171,94,16,149,23,21,0,168,171,147,192,1,10973
132.520153045,1,-1,-19,15,-21,-4,3,-7,-9,212,-156,155,77,29,156,23,21,0,168,171,147,192,1,10974
132.53126502,1,-1,-19,15,-21,-4,3,-7,-9,212,-156,155,77,29,156,23,21,0,160,179,154,185,1,10975
132.542245864,1,-1,-19,1,-18,-2,5,-14,-10,212,-156,155,77,29,156,23,21,0,160,179,154,185,1,10976
132.560379982,2,-1,-19,1,-18,-2,5,-14,-10,159,235,142,54,34,158,23,21,0,169,170,156,183,1,10977
132.571274995,2,-1,-19,-4,3,-6,6,-20,-10,69,214,2,32,25,157,23,21,0,169,170,156,183,1,10978
132.583122015,2,-1,-19,4,23,-2,8,-24,-9,69,214,2,32,25,157,23,21,0,172,167,169,170,1,10979
132.593225956,2,-1,-19,4,23,-2,8,-24,-9,69,214,2,32,25,157,23,21,0,167,172,181,158,1,10980
132.612194061,2,0,-19,1,20,-7,9,-25,-8,-52,39,106,17,5,156,23,21,0,169,170,179,160,1,10981
132.623306989,2,-1,-19,0,32,-2,9,-24,-6,-116,-154,191,15,-18,158,23,21,0,169,170,179,160,1,10982
132.634249925,2,-1,-19,0,32,-2,9,-24,-6,-116,-154,191,15,-18,158,23,21,0,169,170,186,153,1,10983
132.647379875,2,-1,-19,-11,34,1,7,-19,-4,-116,-154,191,15,-18,158,23,21,0,177,162,188,151,1,10984
132.663204908,2,0,-19,-11,34,1,7,-19,-4,-173,-59,245,25,-36,166,23,21,0,177,162,188,151,1,10985
132.674298048,2,0,-19,-4,32,3,6,-11,-3,150,124,217,39,-43,178,23,21,0,177,162,188,151,1,10986
132.685250043,2,0,-19,1,38,5,3,0,-2,150,124,217,39,-43,178,23,21,0,172,167,187,152,1,10987
132.696267843,2,0,-19,1,38,5,3,0,-2,150,124,217,39,-43,178,23,21,0,169,170,190,149,1,10988
132.71525383,2,0,-19,3,31,6,1,10,-2,-119,21,61,51,-37,193,23,21,0,167,172,186,153,1,10989
132.726186037,2,0,-19,5,15,5,-1,21,-1,132,-68,42,53,-22,207,23,21,0,167,172,186,153,1,10990
132.739445924,2,0,-19,5,15,5,-1,21,-1,132,-68,42,53,-22,207,23,21,0,166,173,177,162,1,10991
132.74840784,2,0,-19,-2,3,0,-2,30,0,132,-68,42,53,-22,207,23,21,0,171,168,169,170,1,10992
132.769070863,1,0,-19,7,3,6,-3,36,0,50,-10,24,44,-2,219,23,21,0,165,174,169,170,1,10993
132.778614044,1,1,-19,9,-9,-1,-3,37,1,171,-114,81,29,20,227,23,21,0,165,174,169,170,1,10994
132.789317846,1,1,-19,9,-9,-1,-3,37,1,171,-114,81,29,20,227,23,21,0,164,175,161,178,1,10995
132.800156831,1,2,-19,18,-18,0,-2,35,3,171,-114,81,29,20,227,23,21,0,164,175,161,178,1,10996
132.818385839,1,2,-19,18,-18,0,-2,35,3,-96,-180,233,14,40,229,23,21,0,158,181,156,183,1,10997
132.829387903,1,3,-19,24,-33,-6,0,29,4,-141,-167,185,7,54,227,23,21,0,158,181,156,183,1,10998
132.840173006,1,3,-19,24,-33,-6,0,29,4,-141,-167,185,7,54,227,23,21,0,155,184,147,192,1,10999
132.851209879,1,3,-19,21,-22,-5,2,20,4,-141,-167,185,7,54,227,23,21,0,157,182,153,186,1,11000
132.869417905,1,3,-19,21,-22,-5,2,20,4,-44,62,64,12,56,219,23,21,0,157,182,153,186,1,11001
132.880429029,2,3,-19,23,-19,-8,5,9,4,-74,24,13,24,43,207,23,21,0,157,182,153,186,1,11002
132.89121294,2,3,-19,27,-21,-6,9,-1,2,-74,24,13,24,43,207,23,21,0,156,183,156,183,1,11003
132.902196884,2,3,-19,27,-21,-6,9,-1,2,-74,24,13,24,43,207,23,21,0,153,186,154,185,1,11004
132.921164989,2,3,-19,22,-1,-8,12,-11,0,104,-198,169,38,18,194,23,21,0,156,183,166,173,1,11005
132.932287931,2,3,-19,19,0,-5,16,-19,-1,207,-60,231,46,-11,182,23,21,0,156,183,166,173,1,11006
132.943403959,2,3,-19,19,0,-5,16,-19,-1,207,-60,231,46,-11,182,23,21,0,158,181,167,172,1,11007
132.954303026,2,2,-19,11,20,0,20,-24,-3,207,-60,231,46,-11,182,23,21,0,163,176,180,159,1,11008
132.973536968,2,2,-19,7,10,-8,22,-25,-5,22,52,118,45,-37,172,23,21,0,165,174,173,166,1,11009
132.98594594,3,2,-19,-2,29,-4,24,-23,-7,-93,59,85,37,-54,167,23,21,0,165,174,173,166,1,11010
132.995223999,3,2,-19,-2,29,-4,24,-23,-7,-93,59,85,37,-54,167,23,21,0,171,168,185,154,1,11011
133.006255865,3,2,-19,0,22,-7,23,-16,-7,-93,59,85,37,-54,167,23,21,0,169,170,181,158,1,11012
133.025142908,3,2,-19,-2,29,-5,21,-8,-7,-127,135,113,27,-60,169,23,21,0,171,168,185,154,1,11013
133.03621602,3,2,-20,-15,18,1,18,1,-7,-51,-78,147,19,-53,181,23,21,0,171,168,185,154,1,11014
133.047497034,3,2,-20,-15,18,1,18,1,-7,-51,-78,147,19,-53,181,23,21,0,179,160,178,161,1,11015
133.058220863,3,2,-20,-15,19,-3,13,11,-6,-51,-78,147,19,-53,181,23,21,0,179,160,178,161,1,11016
133.076231956,3,2,-20,-15,19,-3,13,11,-6,-191,-64,210,11,-38,202,23,21,0,179,160,179,160,1,11017
133.08720994,3,3,-20,-19,10,0,7,19,-5,123,-11,122,0,-17,232,23,21,0,179,160,179,160,1,11018
133.098835945,3,3,-20,-19,10,0,7,19,-5,123,-11,122,0,-17,232,23,21,0,181,158,173,166,1,11019
133.109199047,3,3,-20,-15,-4,-3,1,24,-4,123,-11,122,0,-17,232,23,21,0,181,158,173,166,1,11020
133.127301931,2,3,-20,-15,-4,-3,1,24,-4,-25,59,240,-15,4,11,23,21,0,179,160,164,175,1,11021
133.139591932,2,3,-20,-18,-11,-4,-3,27,-3,-69,27,49,-37,21,45,23,21,0,179,160,164,175,1,11022
133.149284839,2,3,-20,-18,-11,-4,-3,27,-3,-69,27,49,-37,21,45,23,21,0,180,159,160,179,1,11023
133.16028285,2,4,-20,-23,-6,-3,-8,26,-3,-69,27,49,-37,21,45,23,21,0,183,156,163,176,1,11024
133.178261995,2,3,-20,-23,-6,-3,-8,26,-3,-175,10,49,-62,30,72,23,21,0,183,156,163,176,1,11025
133.189213991,2,4,-20,-23,-18,-7,-12,22,-2,-20,104,7,-84,32,89,23,21,0,183,156,163,176,1,11026
133.2003479,2,4,-20,-23,-18,-7,-12,22,-2,-20,104,7,-84,32,89,23,21,0,184,155,156,183,1,11027
133.211220026,2,4,-20,-11,-20,-1,-16,16,-2,-20,104,7,-84,32,89,23,21,0,176,163,155,184,1,11028
133.231431007,2,4,-20,-11,-20,-1,-16,16,-2,-61,172,180,-98,29,95,23,21,0,176,163,155,184,1,11029
133.241243839,2,3,-20,-5,-19,-2,-18,8,-2,-68,137,85,-104,23,89,23,21,0,176,163,155,184,1,11030
133.252285003,1,3,-20,-7,-21,-4,-19,0,-2,-68,137,85,-104,23,89,23,21,0,173,166,155,184,1,11031
133.263345956,1,3,-20,-7,-21,-4,-19,0,-2,-68,137,85,-104,23,89,23,21,0,174,165,154,185,1,11032
133.281234979,1,3,-20,-1,-13,-2,-20,-7,-2,-14,-114,105,-103,21,74,23,21,0,170,169,159,180,1,11033
133.292186975,1,2,-20,-13,-9,3,-19,-13,-3,-7,-66,33,-95,24,54,23,21,0,170,169,159,180,1,11034
133.303297042,1,2,-20,-13,-9,3,-19,-13,-3,-7,-66,33,-95,24,54,23,21,0,177,162,161,178,1,11035
133.314151048,1,2,-20,-6,-2,6,-17,-18,-3,-7,-66,33,-95,24,54,23,21,0,177,162,161,178,1,11036
133.333186864,1,2,-20,-6,-2,6,-17,-18,-3,85,77,34,-83,32,31,23,21,0,174,165,166,173,1,11037
133.344218969,1,1,-20,-3,6,11,-14,-21,-3,57,23,180,-69,43,10,23,21,0,174,165,166,173,1,11038
133.355133056,1,1,-20,-6,4,8,-11,-21,-3,57,23,180,-69,43,10,23,21,0,172,167,171,168,1,11039
133.366129875,1,1,-20,-6,4,8,-11,-21,-3,57,23,180,-69,43,10,23,21,0,173,166,170,169,1,11040
133.38537693,1,0,-20,0,13,13,-8,-18,-2,8,38,74,-54,51,247,23,21,0,169,170,175,164,1,11041
133.396113872,1,0,-20,-4,19,20,-6,-14,0,3,38,225,-37,54,234,23,21,0,169,170,175,164,1,11042
133.40714097,1,0,-20,-4,19,20,-6,-14,0,3,38,225,-37,54,234,23,21,0,172,167,179,160,1,11043
133.418186903,1,0,-20,1,20,19,-4,-9,2,3,38,225,-37,54,234,23,21,0,169,170,179,160,1,11044
133.436331987,1,0,-20,1,20,19,-4,-9,2,-30,-45,201,-19,52,228,23,21,0,169,170,179,160,1,11045
133.448005914,1,0,-20,2,20,24,-4,-2,5,129,229,172,1,45,227,23,21,0,169,170,179,160,1,11046
133.458114862,1,0,-20,2,20,24,-4,-2,5,129,229,172,1,45,227,23,21,0,168,171,179,160,1,11047
133.46935296,1,0,-20,-2,15,15,-3,3,8,129,229,172,1,45,227,23,21,0,171,168,177,162,1,11048
133.488076925,1,0,-20,-2,15,15,-3,3,8,-154,-137,42,23,36,230,23,21,0,171,168,177,162,1,11049
133.506073951,1,0,-20,-8,8,21,-3,9,12,-91,-221,238,44,27,235,23,21,0,171,168,177,162,1,11050
133.509145975,1,0,-20,-4,8,17,-2,14,15,-91,-221,238,44,27,235,23,21,0,175,164,172,167,1,11051
133.521146059,1,0,-20,-4,8,17,-2,14,15,-91,-221,238,44,27,235,23,21,0,172,167,172,167,1,11052
133.540549039,1,0,-20,-1,1,13,-2,17,18,123,-44,250,61,20,236,23,21,0,170,169,168,171,1,11053
133.552451849,1,0,-19,1,-3,13,-1,19,19,0,-25,109,70,14,232,23,21,0,170,169,168,171,1,11054
133.565089941,1,0,-19,1,-3,13,-1,19,19,0,-25,109,70,14,232,23,21,0,169,170,165,174,1,11055
133.57230997,1,0,-19,3,-6,9,-1,18,20,0,-25,109,70,14,232,23,21,0,169,170,165,174,1,11056
133.590227842,1,1,-19,3,-6,9,-1,18,20,59,46,231,68,6,223,23,21,0,168,171,163,176,1,11057
133.601834058,1,1,-19,-13,-17,0,-1,16,20,15,76,140,57,-5,213,23,21,0,168,171,163,176,1,11058
133.612287998,1,1,-19,-4,-13,0,-2,12,19,15,76,140,57,-5,213,23,21,0,177,162,157,182,1,11059
133.623607874,1,1,-19,-4,-13,0,-2,12,19,15,76,140,57,-5,213,23,21,0,177,162,157,182,1,11060
133.642230033,1,1,-18,-4,-7,0,-2,7,17,-1,78,139,40,-18,205,23,21,0,172,167,163,176,1,11061
133.65335083,1,2,-18,-11,-13,-3,-2,1,14,84,46,23,23,-30,203,23,21,0,172,167,163,176,1,11062
133.664481878,1,2,-18,-11,-13,-3,-2,1,14,84,46,23,23,-30,203,23,21,0,176,163,159,180,1,11063
133.6754179,1,2,-18,-2,1,-6,-2,-4,11,84,46,23,23,-30,203,23,21,0,171,168,168,171,1,11064
133.693222046,1,2,-18,-2,1,-6,-2,-4,11,160,53,175,10,-36,207,23,21,0,171,168,168,171,1,11065
133.704279899,1,2,-18,0,8,-3,-3,-8,7,81,2,218,3,-33,218,23,21,0,171,168,168,171,1,11066
133.715313911,1,2,-18,-12,-1,-11,-4,-11,3,81,2,218,3,-33,218,23,21,0,170,169,172,167,1,11067
133.727349996,1,2,-18,-12,-1,-11,-4,-11,3,81,2,218,3,-33,218,23,21,0,177,162,166,173,1,11068
133.745229005,1,2,-18,-2,9,-5,-5,-12,0,123,-115,82,4,-21,233,23,21,0,171,168,173,166,1,11069
133.756278038,0,1,-18,-8,0,-3,-5,-11,-2,107,-77,20,13,-3,248,23,21,0,171,168,173,166,1,11070
133.767315864,0,1,-18,-8,0,-3,-5,-11,-2,107,-77,20,13,-3,248,23,21,0,175,164,167,172,1,11071
133.778461933,0,1,-18,-1,10,-2,-6,-8,-4,107,-77,20,13,-3,248,23,21,0,170,169,174,165,1,11072
133.796198845,0,1,-18,-1,10,-2,-6,-8,-4,-23,170,163,30,15,4,23,21,0,170,169,174,165,1,11073
133.807373046,0,1,-18,3,15,0,-6,-4,-6,72,87,30,51,29,12,23,21,0,170,169,174,165,1,11074
133.818518877,0,1,-18,3,15,0,-6,-4,-6,72,87,30,51,29,12,23,21,0,167,172,176,163,1,11075
133.829417944,0,1,-18,4,3,-2,-6,0,-6,72,87,30,51,29,12,23,21,0,167,172,176,163,1,11076
133.851404905,0,2,-18,7,12,-4,-5,4,-6,-46,17,169,72,36,15,23,21,0,165,174,175,164,1,11077
133.859256982,0,2,-18,6,2,0,-4,7,-6,-16,-30,83,89,36,10,23,21,0,165,174,175,164,1,11078
133.870362043,0,2,-18,6,2,0,-4,7,-6,-16,-30,83,89,36,10,23,21,0,166,173,169,170,1,11079
133.881381988,0,2,-18,11,10,-3,-3,9,-5,-16,-30,83,89,36,10,23,21,0,163,176,174,165,1,11080
133.900624036,0,2,-18,11,10,-3,-3,9,-5,143,-72,97,97,32,255,23,21,0,163,176,174,165,1,11081
133.911232948,0,3,-18,16,13,0,-1,10,-4,83,141,78,94,26,238,23,21,0,163,176,174,165,1,11082
133.922230959,0,3,-18,8,1,-11,1,10,-2,83,141,78,94,26,238,23,21,0,160,179,175,164,1,11083
133.933147907,0,3,-18,8,1,-11,1,10,-2,83,141,78,94,26,238,23,21,0,165,174,168,171,1,11084
133.951343059,0,3,-18,14,0,-1,4,10,-2,39,166,211,83,22,220,23,21,0,161,178,167,172,1,11085
133.962308883,1,3,-18,16,4,-1,6,9,-1,-63,75,75,67,18,209,23,21,0,161,178,167,172,1,11086
133.973224878,1,3,-18,16,4,-1,6,9,-1,-63,75,75,67,18,209,23,21,0,160,179,170,169,1,11087
133.984133958,1,3,-18,16,-1,-7,9,8,-1,-63,75,75,67,18,209,23,21,0,160,179,166,173,1,11088
134.003207922,1,4,-18,16,-1,-7,9,8,-1,135,-24,45,50,18,207,23,21,0,160,179,166,173,1,11089
134.014248848,1,4,-19,14,10,-3,11,7,-2,-35,-230,23,37,21,212,23,21,0,160,179,166,173,1,11090
134.025264978,1,4,-19,8,4,-5,12,5,-3,-35,-230,23,37,21,212,23,21,0,161,178,173,166,1,11091
134.036213874,1,4,-19,8,4,-5,12,5,-3,-35,-230,23,37,21,212,23,21,0,164,175,170,169,1,11092
134.054412841,1,4,-19,11,1,-3,14,4,-4,-121,-24,231,28,26,220,23,21,0,162,177,168,171,1,11093
134.065299034,2,4,-19,7,2,0,14,3,-4,20,92,155,24,26,225,23,21,0,162,177,168,171,1,11094
134.076400995,2,4,-19,7,2,0,14,3,-4,20,92,155,24,26,225,23,21,0,165,174,169,170,1,11095
134.087375879,2,4,-19,9,-1,0,14,3,-5,20,92,155,24,26,225,23,21,0,165,174,169,170,1,11096
134.106264829,2,5,-19,9,-1,0,14,3,-5,17,68,35,22,19,225,23,21,0,164,175,166,173,1,11097
134.117166996,2,5,-19,4,-1,0,14,3,-5,146,53,236,20,3,219,23,21,0,164,175,166,173,1,11098
134.128301859,2,5,-19,3,4,2,13,2,-4,146,53,236,20,3,219,23,21,0,167,172,166,173,1,11099
134.139273882,2,5,-19,3,4,2,13,2,-4,146,53,236,20,3,219,23,21,0,167,172,170,169,1,11100
134.158298015,2,5,-19,3,0,-2,12,2,-3,88,63,121,16,-15,211,23,21,0,167,172,167,172,1,11101
134.169846057,2,5,-19,-4,2,0,10,2,-2,221,-36,136,12,-31,203,23,21,0,167,172,167,172,1,11102
134.180217981,2,5,-19,-4,2,0,10,2,-2,221,-36,136,12,-31,203,23,21,0,172,167,168,171,1,11103
134.190146923,2,5,-19,4,0,4,8,2,-1,221,-36,136,12,-31,203,23,21,0,167,172,167,172,1,11104
134.209413051,2,5,-19,4,0,4,8,2,-1,59,79,81,11,-39,201,23,21,0,167,172,167,172,1,11105
134.220288992,2,5,-19,0,-1,0,6,1,0,4,-110,173,16,-36,208,23,21,0,167,172,167,172,1,11106
134.231215953,2,5,-19,-5,-3,2,4,1,0,4,-110,173,16,-36,208,23,21,0,169,170,166,173,1,11107
134.242260933,2,5,-19,-5,-3,2,4,1,0,4,-110,173,16,-36,208,23,21,0,173,166,165,174,1,11108
134.261173009,2,5,-19,0,-2,0,3,0,0,-129,-225,87,28,-24,225,23,21,0,169,170,166,173,1,11109
134.272212028,2,5,-19,-7,-5,1,1,0,1,-20,190,40,45,-7,248,23,21,0,169,170,166,173,1,11110
134.283184051,2,5,-19,-7,-5,1,1,0,1,-20,190,40,45,-7,248,23,21,0,174,165,164,175,1,11111
134.294101953,2,5,-19,-1,1,3,0,0,1,-20,190,40,45,-7,248,23,21,0,170,169,168,171,1,11112
134.312288999,2,5,-19,-1,1,3,0,0,1,64,253,102,61,6,19,23,21,0,170,169,168,171,1,11113
134.323335886,2,5,-19,0,0,4,0,0,1,151,118,242,72,16,43,23,21,0,170,169,168,171,1,11114
134.334195852,2,5,-19,0,0,4,0,0,1,151,118,242,72,16,43,23,21,0,170,169,167,172,1,11115
134.345233917,2,5,-19,-12,-3,6,-1,-1,1,151,118,242,72,16,43,23,21,0,170,169,167,172,1,11116
134.363477945,2,5,-19,-12,-3,6,-1,-1,1,52,-41,-10,73,20,61,23,21,0,177,162,165,174,1,11117
134.374321937,2,5,-19,-15,-3,9,-2,-1,1,117,-181,202,66,23,70,23,21,0,177,162,165,174,1,11118
134.385133028,2,5,-19,-15,-3,9,-2,-1,1,117,-181,202,66,23,70,23,21,0,179,160,165,174,1,11119
134.396258831,2,5,-19,-13,7,11,-3,-1,1,117,-181,202,66,23,70,23,21,0,179,160,165,174,1,11120
134.414255857,2,5,-19,-13,7,11,-3,-1,1,158,-198,66,54,28,68,23,21,0,178,161,171,168,1,11121
134.42516303,2,5,-19,-14,9,11,-4,-2,2,-42,-181,11,43,32,54,23,21,0,178,161,171,168,1,11122
134.436313867,2,5,-19,-14,9,11,-4,-2,2,-42,-181,11,43,32,54,23,21,0,178,161,173,166,1,11123
134.447268009,1,5,-19,-27,1,6,-5,-1,3,-42,-181,11,43,32,54,23,21,0,186,153,168,171,1,11124
134.466318845,2,5,-19,-27,1,6,-5,-1,3,-90,161,237,38,33,31,23,21,0,186,153,168,171,1,11125
134.477195024,1,5,-19,-25,-6,13,-7,-1,4,-44,-94,121,39,24,3,23,21,0,186,153,168,171,1,11126
134.488273859,1,5,-19,-25,-6,13,-7,-1,4,-44,-94,121,39,24,3,23,21,0,185,154,163,176,1,11127
134.498219013,1,5,-19,-18,2,7,-9,0,6,-44,-94,121,39,24,3,23,21,0,181,158,169,170,1,11128
134.517258882,1,5,-19,-18,2,7,-9,0,6,0,10,103,44,6,234,23,21,0,181,158,169,170,1,11129
134.528244972,1,5,-18,-19,-8,6,-12,0,8,-7,19,248,48,-17,216,23,21,0,181,158,169,170,1,11130
134.539265871,1,5,-18,-14,2,1,-15,1,9,-7,19,248,48,-17,216,23,21,0,181,158,162,177,1,11131
134.55022788,1,5,-18,-14,2,1,-15,1,9,-7,19,248,48,-17,216,23,21,0,178,161,169,170,1,11132
134.56923294,1,5,-18,-16,-12,8,-18,2,10,15,-69,122,48,-42,209,23,21,0,179,160,160,179,1,11133
134.580493927,0,6,-18,-16,-8,0,-20,1,10,46,-35,0,40,-60,210,23,21,0,179,160,160,179,1,11134
134.591313839,0,6,-18,-7,-13,6,-21,0,10,46,-35,0,40,-60,210,23,21,0,179,160,162,177,1,11135
134.60213685,0,6,-18,-7,-13,6,-21,0,10,58,-66,2,28,-69,216,23,21,0,174,165,159,180,1,11136
134.620208978,0,6,-18,-1,-5,1,-21,-1,8,58,-66,2,28,-69,216,23,21,0,170,169,164,175,1,11137
134.631203889,0,6,-18,1,-19,-1,-20,-3,7,-140,-114,-73,13,-69,220,23,21,0,170,169,164,175,1,11138
134.642562866,0,6,-18,1,-19,-1,-20,-3,7,-140,-114,-73,13,-69,220,23,21,0,168,171,155,184,1,11139
134.653620004,0,5,-18,1,-17,-4,-18,-5,5,-140,-114,-73,13,-69,220,23,21,0,168,171,155,184,1,11140
134.674288988,0,6,-18,1,-17,-4,-18,-5,5,12,23,214,0,-61,218,23,21,0,169,170,157,182,1,11141
134.683383941,-1,5,-18,4,-10,-5,-15,-7,4,188,84,96,-9,-51,207,23,21,0,169,170,157,182,1,11142
134.694443941,-1,5,-18,4,-10,-5,-15,-7,4,188,84,96,-9,-51,207,23,21,0,167,172,161,178,1,11143
134.705100059,-1,5,-18,8,-10,-5,-11,-10,2,188,84,96,-9,-51,207,23,21,0,164,175,161,178,1,11144
134.723264932,-1,5,-18,8,-10,-5,-11,-10,2,-45,-115,80,-13,-40,189,23,21,0,164,175,161,178,1,11145
134.736220836,-1,5,-18,16,10,0,-7,-11,1,-105,0,169,-13,-32,167,23,21,0,159,180,176,163,1,11146
134.750733852,-1,5,-18,6,0,-7,-3,-12,0,-105,0,169,-13,-32,167,23,21,0,166,173,170,169,1,11147
134.780439853,-2,4,-18,10,0,-3,0,-13,-1,-238,-77,252,-8,-26,150,23,21,0,163,176,173,166,1,11148
134.793163061,-2,4,-18,11,3,-1,4,-12,-2,82,16,68,-2,-23,144,23,21,0,162,177,176,163,1,11149
134.805868864,-2,4,-18,8,2,-4,7,-10,-3,82,16,68,-2,-23,144,23,21,0,164,175,176,163,1,11150
134.836253881,-2,3,-18,7,10,-3,9,-6,-4,156,120,134,1,-21,152,23,21,0,165,174,182,157,1,11151
134.851464986,-1,3,-18,9,8,-2,10,-3,-4,-49,-68,151,0,-21,172,23,21,0,164,175,183,156,1,11152
134.861309051,-1,3,-18,0,-6,-5,11,0,-4,-49,-68,151,0,-21,172,23,21,0,169,170,175,164,1,11153
134.892379045,-1,3,-18,4,0,0,11,3,-4,-41,-92,171,-4,-21,202,23,21,0,167,172,180,159,1,11154
134.906152963,-1,3,-18,-3,-11,-1,10,5,-4,20,-31,188,-11,-20,234,23,21,0,172,167,173,166,1,11155
134.918728828,-1,3,-18,-3,-11,-7,9,6,-3,20,-31,188,-11,-20,234,23,21,0,171,168,177,162,1,11156
134.949333906,-1,3,-18,-2,-15,0,7,5,-3,-32,5,53,-16,-17,7,23,21,0,171,168,175,164,1,11157
134.962183952,-1,3,-18,-11,-14,0,5,3,-2,-225,-6,205,-19,-15,25,23,21,0,176,163,177,162,1,11158
134.974105835,-1,3,-18,-5,-21,-8,3,0,-2,-225,-6,205,-19,-15,25,23,21,0,173,166,174,165,1,11159
135.005766868,-1,3,-18,-5,-24,-5,0,-3,-2,-252,173,93,-20,-13,29,23,21,0,172,167,175,164,1,11160
135.019234895,-1,3,-18,-7,-20,-2,-1,-7,-2,60,96,220,-20,-13,18,23,21,0,173,166,180,159,1,11161
135.031244993,-1,2,-18,-6,-15,-4,-3,-11,-2,60,96,220,-20,-13,18,23,21,0,171,168,185,154,1,11162
135.062264919,-1,2,-18,-7,-14,-5,-5,-15,-2,8,30,113,-25,-11,252,23,21,0,172,167,188,151,1,11163
135.07922101,-1,1,-19,-6,-9,-5,-6,-18,-3,-122,174,237,-35,-5,226,23,21,0,171,168,191,148,1,11164
135.087268829,-1,1,-19,-6,-16,-6,-7,-20,-3,-122,174,237,-35,-5,226,23,21,0,171,168,187,152,1,11165
135.111367941,-1,1,-19,-6,-16,-6,-7,-20,-3,-122,174,237,-35,-5,226,23,21,0,171,168,187,152,1,11166
135.122251033,-2,0,-19,-6,-13,-7,-7,-20,-4,126,49,194,-49,7,205,23,21,0,171,168,187,152,1,11167
135.13331294,-2,0,-19,-6,-13,-7,-7,-20,-4,126,49,194,-49,7,205,23,21,0,171,168,189,150,1,11168
135.144283056,-2,0,-19,-5,-8,-3,-7,-20,-4,126,49,194,-49,7,205,23,21,0,170,169,192,147,1,11169
135.170286893,-2,0,-19,-7,-10,-3,-7,-18,-5,113,-68,23,-64,30,195,23,21,0,168,171,192,147,1,11170
135.183303833,-2,0,-19,-3,-11,1,-6,-16,-5,188,-45,39,-75,63,197,23,21,0,166,173,191,148,1,11171
135.195554971,-2,0,-19,-6,-15,-1,-6,-14,-5,188,-45,39,-75,63,197,23,21,0,170,169,189,150,1,11172
135.227233886,-1,0,-19,-9,-18,0,-6,-12,-5,72,74,50,-75,100,209,23,21,0,172,167,189,150,1,11173
135.240952968,-1,-1,-19,-8,-18,-2,-6,-11,-5,-82,-48,184,-62,133,228,23,21,0,172,167,189,150,1,11174
135.252317905,-1,-1,-19,-5,-15,5,-6,-10,-4,-82,-48,184,-62,133,228,23,21,0,170,169,191,148,1,11175
135.283303022,-1,-1,-19,-8,-13,-2,-6,-11,-3,-92,-3,207,-36,153,248,23,21,0,172,167,193,146,1,11176
135.296269893,0,-2,-19,-5,-5,0,-6,-12,-2,82,-16,31,-2,156,9,23,21,0,170,169,198,141,1,11177
135.308298826,0,-2,-19,-4,-12,-3,-6,-13,-1,82,-16,31,-2,156,9,23,21,0,170,169,192,147,1,11178
135.340524911,0,-2,-19,-5,-10,8,-7,-15,0,86,-5,180,31,136,21,23,21,0,171,168,190,149,1,11179
135.355366945,0,-2,-19,-3,-5,3,-7,-15,0,108,232,170,58,95,25,23,21,0,172,167,188,151,1,11180
135.365311861,0,-3,-19,0,-1,3,-7,-15,0,108,232,170,58,95,25,23,21,0,169,170,178,161,1,11181
135.396235942,0,-3,-19,-5,2,0,-6,-14,1,153,-16,-41,72,39,21,23,21,0,173,166,174,165,1,11182
135.407559871,0,-3,-19,-2,3,-1,-6,-12,1,-120,-120,154,76,-19,9,23,21,0,173,166,174,165,1,11183
135.418431997,0,-3,-19,-2,3,-1,-6,-12,1,-120,-120,154,76,-19,9,23,21,0,171,168,174,165,1,11184
135.429404974,0,-3,-19,0,13,6,-5,-10,1,-120,-120,154,76,-19,9,23,21,0,169,170,180,159,1,11185
135.447237968,0,-2,-19,0,13,6,-5,-10,1,32,187,173,71,-69,246,23,21,0,169,170,180,159,1,11186
135.458436012,0,-2,-19,9,17,1,-4,-7,2,-131,132,155,63,-100,221,23,21,0,169,170,180,159,1,11187
135.469380855,0,-2,-19,11,13,1,-3,-4,2,-131,132,155,63,-100,221,23,21,0,164,175,183,156,1,11188
135.480680942,0,-2,-19,11,13,1,-3,-4,2,-131,132,155,63,-100,221,23,21,0,162,177,181,158,1,11189
135.501024007,0,-2,-19,0,16,4,-2,0,2,-76,-172,212,53,-107,193,23,21,0,170,169,182,157,1,11190
135.510346889,0,-1,-19,5,19,1,0,3,2,191,34,3,42,-91,165,23,21,0,170,169,182,157,1,11191
135.521328926,0,-1,-19,5,19,1,0,3,2,191,34,3,42,-91,165,23,21,0,166,173,184,155,1,11192
135.533354997,0,-1,-19,21,17,-3,0,6,2,191,34,3,42,-91,165,23,21,0,157,182,183,156,1,11193
135.551255941,0,-1,-19,18,29,8,2,10,2,-46,-49,19,28,-58,142,23,21,0,159,180,190,149,1,11194
135.564177036,-1,0,-19,19,26,4,4,13,2,-85,-6,134,14,-19,129,23,21,0,158,181,185,154,1,11195
135.576449871,0,0,-19,23,15,-5,6,16,2,-85,-6,134,14,-19,129,23,21,0,155,184,175,164,1,11196
135.608353853,-1,0,-19,12,11,-2,9,18,1,-174,-252,91,1,14,129,23,21,0,162,177,170,169,1,11197
135.621106863,0,0,-19,5,6,-8,11,20,1,120,-65,-8,-9,34,144,23,21,0,166,173,166,173,1,11198
135.633335828,0,0,-19,11,0,-9,14,21,1,120,-65,-8,-9,34,144,23,21,0,162,177,158,181,1,11199
135.663300991,0,0,-19,6,4,-7,16,21,1,-69,-32,208,-18,33,171,23,21,0,166,173,156,183,1,11200
135.676538944,0,1,-19,2,5,-5,17,20,0,28,-10,199,-25,11,204,23,21,0,168,171,155,184,1,11201
135.688336849,0,1,-19,7,4,-14,17,17,-1,28,-10,199,-25,11,204,23,21,0,165,174,152,187,1,11202
135.720180034,0,1,-19,6,-1,-11,15,13,-3,11,105,169,-30,-28,236,23,21,0,166,173,147,192,1,11203
135.733228921,0,1,-19,6,12,-9,13,9,-5,-138,117,48,-33,-77,3,23,21,0,166,173,150,189,1,11204
135.745225906,0,1,-19,3,14,-8,10,5,-7,-138,117,48,-33,-77,3,23,21,0,167,172,150,189,1,11205
135.77651596,0,1,-19,1,30,-3,7,3,-9,15,-127,91,-33,-121,12,23,21,0,168,171,156,183,1,11206
135.789296865,0,1,-20,0,44,-4,5,1,-10,221,-100,49,-31,-149,7,23,21,0,170,169,161,178,1,11207
135.801643848,0,1,-20,-1,39,-3,3,2,-10,221,-100,49,-31,-149,7,23,21,0,170,169,158,181,1,11208
135.824127912,0,1,-20,-1,39,-3,3,2,-10,221,-100,49,-31,-149,7,23,21,0,170,169,158,181,1,11209
135.835283041,0,1,-20,-5,55,3,3,6,-10,44,178,125,-27,-155,248,23,21,0,170,169,158,181,1,11210
135.846235036,0,1,-20,0,53,0,2,11,-9,44,178,125,-27,-155,248,23,21,0,173,166,167,172,1,11211
135.857213974,0,1,-20,0,53,0,2,11,-9,44,178,125,-27,-155,248,23,21,0,170,169,166,173,1,11212
135.876257896,0,1,-20,-5,60,1,2,19,-8,131,203,5,-21,-139,229,23,21,0,173,166,170,169,1,11213
135.887347936,-1,1,-20,3,49,0,1,27,-5,95,42,63,-11,-105,209,23,21,0,173,166,170,169,1,11214
135.898401022,-1,1,-20,3,49,0,1,27,-5,95,42,63,-11,-105,209,23,21,0,167,172,164,175,1,11215
135.909311056,-1,2,-20,8,51,2,0,36,-3,95,42,63,-11,-105,209,23,21,0,165,174,165,174,1,11216
135.928244829,-1,1,-20,8,51,2,0,36,-3,-63,57,31,2,-60,193,23,21,0,165,174,165,174,1,11217
135.939285993,-1,2,-20,12,43,0,0,45,-1,-231,-39,103,21,-11,182,23,21,0,165,174,165,174,1,11218
135.95015192,-1,2,-20,9,40,8,-1,51,0,-231,-39,103,21,-11,182,23,21,0,162,177,160,179,1,11219
135.963294029,-1,2,-20,9,40,8,-1,51,0,-231,-39,103,21,-11,182,23,21,0,162,177,160,179,1,11220
135.97941184,-2,3,-20,10,35,2,-1,55,1,-10,-38,76,40,33,178,23,21,0,163,176,155,184,1,11221
135.99050498,-2,4,-20,20,18,-5,0,57,2,126,216,255,55,67,181,23,21,0,163,176,155,184,1,11222
136.00147891,-2,4,-20,20,18,-5,0,57,2,126,216,255,55,67,181,23,21,0,157,182,145,194,1,11223
136.012338876,-1,4,-20,23,15,-7,1,55,2,126,216,255,55,67,181,23,21,0,156,183,143,196,1,11224
136.031224012,-1,5,-20,23,15,-7,1,55,2,236,214,86,59,83,192,23,21,0,156,183,143,196,1,11225
136.042265892,-1,6,-20,25,9,-11,4,51,2,48,-70,122,53,81,209,23,21,0,156,183,143,196,1,11226
136.053339004,-1,6,-20,25,9,-11,4,51,2,48,-70,122,53,81,209,23,21,0,154,185,140,199,1,11227
136.064260006,-1,6,-20,25,2,-16,8,45,2,48,-70,122,53,81,209,23,21,0,154,185,140,199,1,11228
136.082329034,-1,6,-20,25,2,-16,8,45,2,-141,-114,211,40,66,231,23,21,0,154,185,136,203,1,11229
136.095221996,0,7,-20,22,13,-10,12,38,1,-121,-150,83,27,47,254,23,21,0,156,183,142,197,1,11230
136.106199979,0,7,-20,22,13,-10,12,38,1,-121,-150,83,27,47,254,23,21,0,156,183,142,197,1,11231
136.117403984,0,7,-20,23,9,-19,15,29,0,-121,-150,83,27,47,254,23,21,0,155,184,140,199,1,11232
136.135272979,0,7,-20,23,9,-19,15,29,0,-90,-74,124,18,28,17,23,21,0,155,184,140,199,1,11233
136.146203041,0,8,-20,19,21,-17,19,22,-3,2,-54,101,11,11,28,23,21,0,155,184,140,199,1,11234
136.158517837,0,8,-20,19,21,-17,19,22,-3,2,-54,101,11,11,28,23,21,0,158,181,147,192,1,11235
136.16820693,0,8,-20,21,20,-17,22,15,-6,2,-54,101,11,11,28,23,21,0,157,182,146,193,1,11236
136.187310934,0,8,-20,21,20,-17,22,15,-6,-14,-137,181,6,-3,34,23,21,0,157,182,146,193,1,11237
136.198356866,1,8,-20,7,45,-14,24,10,-9,220,162,111,0,-19,35,23,21,0,157,182,146,193,1,11238
136.209112882,1,8,-20,7,45,-14,24,10,-9,220,162,111,0,-19,35,23,21,0,165,174,161,178,1,11239
136.219674825,1,8,-20,14,36,-22,24,7,-13,220,162,111,0,-19,35,23,21,0,161,178,156,183,1,11240
136.239263057,1,8,-21,6,39,-12,24,8,-15,243,24,146,-8,-35,37,23,21,0,166,173,158,181,1,11241
136.249349832,1,8,-21,9,40,-14,22,11,-17,19,240,247,-15,-48,43,23,21,0,166,173,158,181,1,11242
136.260175943,1,8,-21,6,41,-20,20,17,-18,19,240,247,-15,-48,43,23,21,0,166,173,159,180,1,11243
136.289402008,1,8,-21,5,54,-12,17,24,-18,-73,64,38,-15,-52,52,23,21,0,166,173,167,172,1,11244
136.302136898,2,9,-22,7,42,-16,14,31,-18,-219,12,-75,-3,-43,61,23,21,0,165,174,159,180,1,11245
136.314226865,2,9,-22,9,33,-18,11,38,-17,-219,12,-75,-3,-43,61,23,21,0,164,175,154,185,1,11246
136.345386982,2,9,-22,7,30,-20,8,43,-16,-120,-224,64,20,-18,66,23,21,0,165,174,154,185,1,11247
136.358285904,2,10,-23,16,9,-20,6,45,-16,-244,-234,-53,48,17,60,23,21,0,160,179,143,196,1,11248
136.370255947,2,10,-23,21,11,-20,5,46,-15,-244,-234,-53,48,17,60,23,21,0,157,182,147,192,1,11249
136.402076006,2,11,-23,17,2,-19,6,44,-16,-33,-140,146,70,54,41,23,21,0,159,180,144,195,1,11250
136.415247917,2,12,-23,23,-1,-16,7,40,-16,-143,131,81,75,79,5,23,21,0,155,184,149,190,1,11251
136.431232929,2,12,-24,24,-10,-20,9,34,-17,-143,131,81,75,79,5,23,21,0,155,184,147,192,1,11252
136.458230018,2,12,-24,20,0,-16,11,26,-18,-107,66,152,59,83,214,23,21,0,157,182,160,179,1,11253
136.471328973,3,12,-24,19,0,-8,14,17,-19,60,104,61,23,65,164,23,21,0,158,181,165,174,1,11254
136.482457876,3,12,-24,19,0,-8,14,17,-19,60,104,61,23,65,164,23,21,0,158,181,165,174,1,11255
136.493204832,3,12,-24,24,-2,-11,17,9,-19,60,104,61,23,65,164,23,21,0,155,184,163,176,1,11256
136.511225938,3,12,-24,24,-2,-11,17,9,-19,-181,107,218,-23,34,123,23,21,0,155,184,163,176,1,11257
136.522224903,4,12,-25,19,0,2,20,2,-19,-66,65,133,-72,4,103,23,21,0,155,184,163,176,1,11258
136.533206939,4,12,-25,19,0,2,20,2,-19,-66,65,133,-72,4,103,23,21,0,158,181,165,174,1,11259
136.54432106,4,12,-25,10,2,-1,22,-3,-18,-66,65,133,-72,4,103,23,21,0,163,176,166,173,1,11260
136.563312053,4,12,-25,10,2,-1,22,-3,-18,-37,68,109,-112,-13,108,23,21,0,163,176,166,173,1,11261
136.574177026,4,11,-25,2,2,12,23,-6,-17,-61,-34,5,-138,-12,134,23,21,0,163,176,166,173,1,11262
136.585283994,4,10,-25,-1,-1,11,23,-6,-14,-61,-34,5,-138,-12,134,23,21,0,168,171,166,173,1,11263
136.59623003,4,10,-25,-1,-1,11,23,-6,-14,-61,-34,5,-138,-12,134,23,21,0,170,169,164,175,1,11264
136.614205837,4,10,-25,-5,-4,16,21,-5,-10,-63,75,14,-146,4,172,23,21,0,173,166,162,177,1,11265
136.625362873,5,9,-26,-8,-6,17,19,-3,-6,-241,-75,32,-138,32,210,23,21,0,173,166,162,177,1,11266
136.636821985,5,9,-26,-8,-6,17,19,-3,-6,-241,-75,32,-138,32,210,23,21,0,175,164,161,178,1,11267
136.647330999,5,9,-26,-17,-9,20,15,-1,-1,-241,-75,32,-138,32,210,23,21,0,180,159,159,180,1,11268
136.666316986,5,8,-26,-17,-9,20,15,-1,-1,-81,-2,48,-121,60,241,23,21,0,180,159,159,180,1,11269
136.67734003,5,7,-26,-20,-16,26,10,0,3,12,-22,27,-99,82,3,23,21,0,180,159,159,180,1,11270
136.688827991,5,7,-25,-7,-12,28,4,1,8,12,-22,27,-99,82,3,23,21,0,182,157,155,184,1,11271
136.699182987,5,7,-25,-7,-12,28,4,1,8,12,-22,27,-99,82,3,23,21,0,174,165,157,182,1,11272
136.717407941,5,7,-25,-17,-19,31,0,0,13,-201,0,69,-80,90,8,23,21,0,180,159,153,186,1,11273
136.728414058,5,6,-25,-2,-19,28,-6,-2,17,-237,234,101,-69,83,0,23,21,0,180,159,153,186,1,11274
136.73942995,5,6,-25,-2,-19,28,-6,-2,17,-237,234,101,-69,83,0,23,21,0,171,168,153,186,1,11275
136.750428915,5,6,-25,-4,-16,24,-11,-5,20,-237,234,101,-69,83,0,23,21,0,171,168,153,186,1,11276
136.769345045,5,5,-25,-4,-16,24,-11,-5,20,-91,33,49,-66,66,240,23,21,0,172,167,155,184,1,11277
136.780256033,5,5,-24,-8,-13,25,-14,-9,23,-158,-123,10,-72,43,219,23,21,0,172,167,155,184,1,11278
136.791115999,5,5,-24,6,-7,22,-15,-13,26,-158,-123,10,-72,43,219,23,21,0,174,165,156,183,1,11279
136.802325964,5,5,-24,6,-7,22,-15,-13,26,-158,-123,10,-72,43,219,23,21,0,166,173,160,179,1,11280
136.820693016,5,4,-24,-1,-3,23,-15,-16,27,-112,73,144,-86,25,195,23,21,0,171,168,163,176,1,11281
136.831334829,5,3,-23,10,5,21,-13,-17,28,-156,35,-22,-104,18,173,23,21,0,171,168,163,176,1,11282
136.843098878,5,3,-23,10,5,21,-13,-17,28,-156,35,-22,-104,18,173,23,21,0,163,176,168,171,1,11283
136.853498935,5,3,-23,8,16,18,-9,-17,28,-156,35,-22,-104,18,173,23,21,0,164,175,174,165,1,11284
136.872181892,5,2,-23,8,16,18,-9,-17,28,-11,-82,234,-124,22,154,23,21,0,164,175,174,165,1,11285
136.88516283,5,1,-23,4,18,18,-5,-16,27,-125,124,111,-141,34,139,23,21,0,165,174,181,158,1,11286
136.897322893,5,1,-22,16,14,16,-1,-12,25,-125,124,111,-141,34,139,23,21,0,154,185,178,161,1,11287
136.928210973,5,0,-22,5,11,12,1,-7,24,-105,9,48,-154,49,128,23,21,0,158,181,176,163,1,11288
136.94115591,5,0,-22,4,0,9,4,-1,22,82,113,204,-163,61,123,23,21,0,155,184,170,169,1,11289
136.954099893,5,0,-21,3,4,11,7,4,20,82,113,204,-163,61,123,23,21,0,148,191,172,167,1,11290
136.985318899,6,0,-21,4,0,13,8,10,18,-110,102,49,-167,67,126,23,21,0,144,195,169,170,1,11291
136.998476028,6,-1,-21,-3,-3,12,9,13,16,-54,96,108,-165,66,141,23,21,0,144,195,167,172,1,11292
137.011518001,6,-1,-21,-11,-9,6,9,14,14,-54,96,108,-165,66,141,23,21,0,143,196,164,175,1,11293
137.041193962,6,-1,-20,-23,-10,6,7,13,13,54,32,11,-155,62,165,23,21,0,148,191,163,176,1,11294
137.054286003,6,-2,-20,-40,-10,3,5,9,12,62,-125,164,-138,58,193,23,21,0,158,181,161,178,1,11295
137.066236019,6,-2,-20,-39,-5,11,2,4,11,62,-125,164,-138,58,193,23,21,0,158,181,160,179,1,11296
137.097389936,7,-3,-20,-52,-6,1,-1,0,10,-28,144,34,-114,54,221,23,21,0,166,173,159,180,1,11297
137.111238956,6,-3,-20,-54,-5,4,-7,-5,9,-173,-77,99,-86,53,242,23,21,0,167,172,158,181,1,11298
137.122179985,6,-3,-20,-54,-5,4,-7,-5,9,-173,-77,99,-86,53,242,23,21,0,167,172,158,181,1,11299
137.133476972,6,-3,-20,-54,-4,6,-15,-8,8,-173,-77,99,-86,53,242,23,21,0,167,172,159,180,1,11300
137.15128684,6,-4,-20,-54,-4,6,-15,-8,8,-202,100,142,-57,51,254,23,21,0,167,172,159,180,1,11301
137.1621809,6,-4,-19,-50,-1,4,-24,-10,7,86,-6,103,-31,47,0,23,21,0,167,172,159,180,1,11302
137.173177957,6,-4,-19,-50,-1,4,-24,-10,7,86,-6,103,-31,47,0,23,21,0,164,175,161,178,1,11303
137.18471384,6,-4,-19,-47,0,8,-33,-10,6,86,-6,103,-31,47,0,23,21,0,164,175,161,178,1,11304
137.202363968,6,-4,-19,-47,0,8,-33,-10,6,-27,-64,7,-13,42,248,23,21,0,162,177,162,177,1,11305
137.213152885,5,-5,-19,-32,-8,8,-41,-9,5,-101,-16,-25,-7,36,233,23,21,0,162,177,162,177,1,11306
137.226212024,5,-5,-19,-32,-8,8,-41,-9,5,-101,-16,-25,-7,36,233,23,21,0,153,186,157,182,1,11307
137.235244035,5,-5,-19,-25,-10,7,-48,-7,5,-101,-16,-25,-7,36,233,23,21,0,150,189,155,184,1,11308
137.255200862,5,-5,-19,-25,-10,7,-48,-7,5,-199,-119,59,-12,28,214,23,21,0,150,189,155,184,1,11309
137.264238834,4,-5,-19,-11,-10,4,-53,-5,5,-160,-119,193,-25,19,194,23,21,0,150,189,155,184,1,11310
137.277974844,4,-5,-19,-11,-10,4,-53,-5,5,-160,-119,193,-25,19,194,23,21,0,141,198,155,184,1,11311
137.286351919,3,-5,-19,-15,-11,1,-54,-4,5,-160,-119,193,-25,19,194,23,21,0,143,196,155,184,1,11312
137.304232835,4,-5,-19,-15,-11,1,-54,-4,5,45,-249,5,-42,7,173,23,21,0,143,196,155,184,1,11313
137.315400838,3,-5,-19,-13,-16,-3,-51,-3,5,-52,-154,230,-61,-6,157,23,21,0,143,196,155,184,1,11314
137.32622385,2,-5,-19,-12,-9,-5,-45,-3,6,-52,-154,230,-61,-6,157,23,21,0,142,197,152,187,1,11315
137.337126016,2,-5,-19,-12,-9,-5,-45,-3,6,-52,-154,230,-61,-6,157,23,21,0,142,197,156,183,1,11316
137.356271982,2,-6,-19,-8,-12,-3,-37,-4,6,33,10,136,-79,-25,146,23,21,0,139,200,154,185,1,11317
137.370117902,1,-6,-19,-16,-6,-8,-28,-6,5,64,-1,30,-93,-49,145,23,21,0,144,195,159,180,1,11318
137.383080005,1,-6,-19,-24,-3,-6,-19,-9,4,64,-1,30,-93,-49,145,23,21,0,149,190,162,177,1,11319
137.413210868,0,-7,-19,-24,-2,-15,-13,-11,2,94,-215,8,-99,-75,152,23,21,0,149,190,163,176,1,11320
137.426144838,0,-7,-19,-26,0,-9,-9,-12,0,-43,-121,10,-94,-99,163,23,21,0,150,189,168,171,1,11321
137.439321994,0,-7,-19,-33,2,-10,-8,-12,-3,-43,-121,10,-94,-99,163,23,21,0,154,185,170,169,1,11322
137.469280958,0,-8,-19,-27,-3,-13,-10,-11,-6,182,40,27,-78,-117,175,23,21,0,160,179,167,172,1,11323
137.483441829,-1,-8,-19,-30,-4,-7,-14,-8,-8,10,168,234,-53,-126,186,23,21,0,170,169,167,172,1,11324
137.496269941,-1,-8,-19,-19,-1,-8,-18,-5,-10,10,168,234,-53,-126,186,23,21,0,169,170,169,170,1,11325
137.526181936,-2,-8,-19,-20,-6,-7,-23,-3,-11,105,85,93,-20,-126,195,23,21,0,180,159,165,174,1,11326
137.539269924,-3,-8,-20,-9,-9,-7,-27,0,-12,-202,-10,180,15,-116,203,23,21,0,175,164,164,175,1,11327
137.550134897,-3,-8,-20,-9,-9,-7,-27,0,-12,-202,-10,180,15,-116,203,23,21,0,175,164,164,175,1,11328
137.561240911,-3,-8,-20,6,-21,-7,-29,0,-11,-202,-10,180,15,-116,203,23,21,0,166,173,157,182,1,11329
137.579238891,-3,-8,-20,6,-21,-7,-29,0,-11,-195,-92,180,51,-95,212,23,21,0,166,173,157,182,1,11330
137.591333866,-5,-8,-20,21,-25,-6,-29,0,-11,-165,96,72,81,-64,223,23,21,0,166,173,157,182,1,11331
137.601397037,-5,-8,-20,21,-25,-6,-29,0,-11,-165,96,72,81,-64,223,23,21,0,157,182,154,185,1,11332
137.612262964,-5,-8,-20,29,-21,-4,-27,-1,-10,-165,96,72,81,-64,223,23,21,0,157,182,154,185,1,11333
137.637147903,-5,-7,-20,35,-18,-7,-22,-4,-8,-113,90,128,98,-30,234,23,21,0,152,187,158,181,1,11334
137.650451898,-6,-7,-20,37,-13,-12,-14,-8,-7,-134,138,46,95,2,244,23,21,0,156,183,161,178,1,11335
137.662231922,-6,-7,-20,37,-16,-13,-4,-12,-6,-134,138,46,95,2,244,23,21,0,161,178,160,179,1,11336
137.694253921,-6,-7,-20,44,-2,-10,6,-16,-6,-153,70,124,70,30,253,23,21,0,163,176,168,171,1,11337
137.707422018,-5,-7,-21,39,0,-15,17,-19,-6,37,-115,16,27,50,3,23,21,0,166,173,170,169,1,11338
137.719244003,-5,-7,-21,31,2,-9,27,-20,-7,37,-115,16,27,50,3,23,21,0,171,168,171,168,1,11339
137.750267982,-4,-7,-21,30,2,-12,35,-19,-8,-153,-102,122,-26,64,4,23,21,0,172,167,171,168,1,11340
137.761308908,-3,-7,-21,25,5,-13,40,-17,-9,159,27,39,-80,69,255,23,21,0,172,167,171,168,1,11341
137.772214889,-3,-7,-21,25,5,-13,40,-17,-9,159,27,39,-80,69,255,23,21,0,175,164,173,166,1,11342
137.783426046,-3,-7,-21,19,8,-5,42,-12,-11,159,27,39,-80,69,255,23,21,0,175,164,173,166,1,11343
137.803153038,-2,-7,-21,19,8,-5,42,-12,-11,126,130,230,-123,68,244,23,21,0,178,161,174,165,1,11344
137.813124895,-1,-8,-21,15,-6,-4,42,-7,-12,-56,-127,197,-147,60,229,23,21,0,178,161,174,165,1,11345
137.824148893,-1,-8,-21,15,-6,-4,42,-7,-12,-56,-127,197,-147,60,229,23,21,0,180,159,165,174,1,11346
137.835173845,-1,-7,-21,11,-8,4,39,-2,-12,-56,-127,197,-147,60,229,23,21,0,183,156,164,175,1,11347
137.853169918,-1,-8,-21,11,-8,4,39,-2,-12,17,-208,211,-147,51,214,23,21,0,183,156,164,175,1,11348
137.864186048,0,-8,-22,10,-18,1,35,1,-12,-209,-199,24,-125,42,202,23,21,0,183,156,164,175,1,11349
137.875222921,0,-8,-22,8,-26,8,29,4,-11,-209,-199,24,-125,42,202,23,21,0,184,155,159,180,1,11350
137.886127948,0,-8,-22,8,-26,8,29,4,-11,-209,-199,24,-125,42,202,23,21,0,185,154,154,185,1,11351
137.905246973,0,-8,-22,4,-19,7,24,4,-9,47,-24,218,-87,32,195,23,21,0,187,152,158,181,1,11352
137.921301841,0,-8,-22,6,-30,3,18,2,-6,66,221,112,-43,19,191,23,21,0,187,152,158,181,1,11353
137.927203893,0,-8,-22,6,-30,3,18,2,-6,66,221,112,-43,19,191,23,21,0,186,153,151,188,1,11354
137.93817687,1,-9,-22,10,-19,7,14,-2,-3,-1,196,42,-5,2,189,23,21,0,184,155,158,181,1,11355
137.964177847,1,-9,-22,10,-26,7,10,-8,0,-1,196,42,-5,2,189,23,21,0,184,155,153,186,1,11356
137.977321863,1,-9,-22,8,-15,9,8,-14,3,133,-32,235,21,-17,186,23,21,0,185,154,160,179,1,11357
137.991467952,1,-9,-22,12,-4,8,6,-20,5,133,-32,235,21,-17,186,23,21,0,182,157,167,172,1,11358
138.020339012,1,-9,-22,8,0,4,6,-24,7,11,-180,210,34,-32,183,23,21,0,185,154,170,169,1,11359
138.033285856,1,-10,-21,8,10,6,6,-26,8,-124,73,106,36,-38,181,23,21,0,185,154,176,163,1,11360
138.045120954,1,-10,-21,13,0,2,7,-25,8,-124,73,106,36,-38,181,23,21,0,182,157,169,170,1,11361
138.077282905,1,-10,-21,15,15,5,8,-21,8,19,101,63,32,-33,180,23,21,0,181,158,179,160,1,11362
138.090236902,1,-10,-21,20,10,3,9,-16,7,-108,219,241,24,-19,182,23,21,0,178,161,176,163,1,11363
138.102221012,1,-10,-21,5,13,1,10,-9,6,-108,219,241,24,-19,182,23,21,0,199,140,158,181,1,11364
138.133388042,1,-9,-21,14,11,2,11,-1,6,-215,64,112,14,0,188,23,21,0,185,154,157,182,1,11365
138.146360874,1,-9,-21,9,8,1,11,4,5,-91,-167,45,4,26,195,23,21,0,184,155,155,184,1,11366
138.158483982,2,-9,-21,5,-2,1,12,9,4,-91,-167,45,4,26,195,23,21,0,181,158,149,190,1,11367
138.189247846,2,-8,-21,7,6,2,12,12,3,9,-204,46,-8,56,203,23,21,0,177,162,154,185,1,11368
138.20441699,2,-8,-21,8,2,6,12,14,3,171,215,58,-24,83,211,23,21,0,167,172,150,189,1,11369
138.215214967,2,-8,-21,2,9,3,12,13,2,171,215,58,-24,83,211,23,21,0,168,171,154,185,1,11370
138.246433973,3,-7,-21,0,-1,2,11,11,2,107,109,229,-42,101,219,23,21,0,169,170,146,193,1,11371
138.259315967,3,-7,-20,-2,1,0,10,8,2,-188,85,70,-57,105,228,23,21,0,171,168,148,191,1,11372
138.271322012,3,-7,-20,-3,13,9,8,5,2,-188,85,70,-57,105,228,23,21,0,172,167,156,183,1,11373
138.295236826,3,-7,-20,-3,13,9,8,5,2,-188,85,70,-57,105,228,23,21,0,172,167,156,183,1,11374
138.306223869,4,-7,-20,-11,7,6,6,3,2,52,10,59,-64,95,237,23,21,0,172,167,156,183,1,11375
138.317419052,4,-7,-20,-11,7,6,6,3,2,52,10,59,-64,95,237,23,21,0,177,162,152,187,1,11376
138.328246832,4,-7,-20,-14,13,6,4,2,3,52,10,59,-64,95,237,23,21,0,177,162,152,187,1,11377
138.355191946,4,-7,-20,-13,1,4,2,2,3,19,-18,6,-62,77,248,23,21,0,178,161,148,191,1,11378
138.364213943,4,-7,-20,-18,12,5,0,3,4,-50,129,195,-50,57,4,23,21,0,178,161,148,191,1,11379
138.375159978,4,-7,-20,-18,12,5,0,3,4,-50,129,195,-50,57,4,23,21,0,181,158,154,185,1,11380
138.386292934,4,-7,-20,-10,7,13,-3,4,4,-50,129,195,-50,57,4,23,21,0,181,158,154,185,1,11381
138.406173944,4,-7,-20,-10,7,13,-3,4,4,31,-36,252,-32,39,15,23,21,0,176,163,151,188,1,11382
138.417250871,4,-7,-20,-15,0,7,-6,6,5,184,-3,53,-13,27,25,23,21,0,176,163,151,188,1,11383
138.427317857,4,-6,-20,-14,1,7,-9,8,5,184,-3,53,-13,27,25,23,21,0,178,161,148,191,1,11384
138.439960956,4,-6,-20,-14,1,7,-9,8,5,184,-3,53,-13,27,25,23,21,0,178,161,148,191,1,11385
138.459883928,4,-6,-20,-12,-4,5,-12,9,6,-9,-169,31,4,22,30,23,21,0,177,162,144,195,1,11386
138.470593929,4,-6,-20,-16,-1,2,-14,9,7,145,-24,140,17,21,31,23,21,0,177,162,144,195,1,11387
138.480445861,4,-6,-20,-4,0,7,-15,8,7,145,-24,140,17,21,31,23,21,0,172,167,146,193,1,11388
138.491413831,4,-6,-20,-4,0,7,-15,8,7,145,-24,140,17,21,31,23,21,0,172,167,146,193,1,11389
138.511200904,4,-6,-20,-12,-1,1,-16,6,7,-42,32,150,27,21,28,23,21,0,177,162,146,193,1,11390
138.522325992,3,-5,-19,-1,2,3,-15,4,7,-238,-27,41,35,18,25,23,21,0,177,162,146,193,1,11391
138.533305883,3,-5,-19,0,-5,-1,-14,1,7,-238,-27,41,35,18,25,23,21,0,170,169,131,208,1,11392
138.562299966,3,-5,-19,4,5,2,-13,0,6,75,141,152,41,11,25,23,21,0,167,172,137,202,1,11393
138.576169014,3,-5,-19,8,-1,-2,-11,-2,5,-10,76,238,43,0,30,23,21,0,164,175,133,206,1,11394
138.58732295,3,-5,-19,8,-1,-2,-11,-2,5,-10,76,238,43,0,30,23,21,0,164,175,133,206,1,11395
138.598875045,3,-5,-19,10,10,3,-8,-2,4,-10,76,238,43,0,30,23,21,0,163,176,140,199,1,11396
138.617342949,3,-5,-19,10,10,3,-8,-2,4,-94,122,109,40,-8,41,23,21,0,163,176,140,199,1,11397
138.630169868,2,-5,-19,2,11,-5,-5,-2,2,48,32,45,29,-9,55,23,21,0,168,171,141,198,1,11398
138.642361879,2,-4,-19,1,14,3,-2,-1,1,48,32,45,29,-9,55,23,21,0,169,170,143,196,1,11399
138.673243999,2,-4,-19,1,24,0,0,0,0,-79,-130,103,14,2,70,23,21,0,168,171,149,190,1,11400
138.686183929,2,-4,-19,2,29,0,3,2,0,-137,51,129,-3,30,78,23,21,0,168,171,152,187,1,11401
138.699444055,2,-4,-19,-11,20,0,5,5,0,-137,51,129,-3,30,78,23,21,0,177,162,147,192,1,11402
138.731312036,2,-4,-19,1,29,7,6,8,0,-35,106,59,-20,68,75,23,21,0,169,170,152,187,1,11403
138.743239879,3,-3,-19,-3,22,3,5,12,0,12,22,129,-35,105,58,23,21,0,172,167,147,192,1,11404
138.755162,3,-3,-19,-2,22,1,4,17,0,12,22,129,-35,105,58,23,21,0,172,167,148,191,1,11405
138.786334037,3,-3,-19,-3,13,4,2,21,0,16,-24,197,-47,132,27,23,21,0,172,167,144,195,1,11406
138.799232959,3,-2,-19,0,5,-2,0,24,1,-69,-214,49,-55,143,243,23,21,0,170,169,139,200,1,11407
138.810081005,3,-2,-19,0,5,-2,0,24,1,-69,-214,49,-55,143,243,23,21,0,170,169,139,200,1,11408
138.835345983,3,-2,-19,4,3,-4,-2,25,2,-69,-214,49,-55,143,243,23,21,0,167,172,174,165,1,11409
138.849100828,3,-1,-19,4,8,-2,-3,25,2,-161,137,109,-58,136,203,23,21,0,167,172,179,160,1,11410
138.860307932,3,-1,-19,5,-4,-4,-4,23,2,-161,137,109,-58,136,203,23,21,0,166,173,174,165,1,11411
138.892256021,4,-1,-19,1,-5,-5,-3,20,2,29,17,9,-57,112,171,23,21,0,169,170,176,163,1,11412
138.905208826,4,-1,-19,5,-16,-3,-2,15,1,36,-4,242,-53,77,154,23,21,0,166,173,176,163,1,11413
138.917201042,4,-1,-19,2,-10,-8,0,10,0,36,-4,242,-53,77,154,23,21,0,168,171,182,157,1,11414
138.948420047,4,-1,-19,8,-19,-11,1,4,-1,-67,151,103,-48,41,152,23,21,0,164,175,180,159,1,11415
138.961348056,5,-1,-19,6,-24,-8,3,0,-3,-153,-67,120,-43,12,163,23,21,0,166,173,181,158,1,11416
138.973150968,5,-1,-19,-5,-41,-10,4,-5,-4,-153,-67,120,-43,12,163,23,21,0,173,166,173,166,1,11417
139.005178928,5,-1,-19,2,-30,-9,5,-9,-6,-139,204,17,-39,-1,181,23,21,0,168,171,181,158,1,11418
139.018213987,5,-2,-19,-5,-40,-9,5,-13,-7,-12,194,100,-37,0,199,23,21,0,173,166,177,162,1,11419
139.030211925,5,-2,-19,-5,-42,-5,5,-18,-8,-12,194,100,-37,0,199,23,21,0,173,166,177,162,1,11420
139.061187982,5,-3,-19,-4,-47,-6,4,-22,-8,175,55,226,-39,14,213,23,21,0,172,167,175,164,1,11421
139.074305057,5,-3,-20,-10,-47,-4,2,-27,-9,174,45,95,-47,39,221,23,21,0,176,163,176,163,1,11422
139.08615899,5,-4,-20,-27,-45,-1,0,-32,-9,174,45,95,-47,39,221,23,21,0,186,153,177,162,1,11423
139.11163187,5,-4,-20,-27,-45,-1,0,-32,-9,174,45,95,-47,39,221,23,21,0,186,153,177,162,1,11424
139.125604868,5,-5,-20,-28,-38,3,-1,-36,-9,62,-103,67,-58,67,225,23,21,0,187,152,181,158,1,11425
139.135263919,5,-5,-20,-28,-38,3,-1,-36,-9,62,-103,67,-58,67,225,23,21,0,187,152,181,158,1,11426
139.14617896,5,-5,-20,-27,-28,5,-4,-40,-8,62,-103,67,-58,67,225,23,21,0,186,153,187,152,1,11427
139.171648025,5,-6,-20,-28,-34,7,-7,-43,-7,5,-32,36,-68,92,226,23,21,0,187,152,184,155,1,11428
139.184350013,5,-7,-20,-21,-29,5,-11,-45,-5,-76,-47,243,-70,105,224,23,21,0,182,157,186,153,1,11429
139.197947979,5,-7,-20,-23,-39,6,-15,-45,-3,-76,-47,243,-70,105,224,23,21,0,183,156,180,159,1,11430
139.227195024,5,-8,-20,-15,-32,9,-19,-43,0,-88,-190,32,-61,99,221,23,21,0,179,160,183,156,1,11431
139.241840839,5,-9,-20,-12,-42,4,-23,-40,1,-208,-226,172,-43,70,216,23,21,0,177,162,169,170,1,11432
139.252264976,4,-9,-20,-8,-35,3,-26,-37,4,-208,-226,172,-43,70,216,23,21,0,175,164,169,170,1,11433
139.284222841,4,-10,-20,-11,-38,2,-26,-34,6,-20,40,70,-21,20,207,23,21,0,177,162,162,177,1,11434
139.297154903,3,-11,-20,-8,-33,0,-25,-33,7,-47,140,166,-2,-38,196,23,21,0,175,164,160,179,1,11435
139.309324979,3,-11,-20,0,-39,-7,-22,-32,7,-47,140,166,-2,-38,196,23,21,0,169,170,149,190,1,11436
139.332239866,3,-11,-20,0,-39,-7,-22,-32,7,-47,140,166,-2,-38,196,23,21,0,169,170,149,190,1,11437
139.343399047,3,-11,-20,-4,-27,-9,-19,-33,7,-170,122,48,5,-95,185,23,21,0,169,170,149,190,1,11438
139.354122877,3,-11,-20,-4,-27,-9,-19,-33,7,-170,122,48,5,-95,185,23,21,0,172,167,156,183,1,11439
139.365176916,2,-11,-20,3,-11,-5,-14,-34,5,-170,122,48,5,-95,185,23,21,0,168,171,166,173,1,11440
139.383296966,2,-11,-20,3,-11,-5,-14,-34,5,1,29,97,0,-132,178,23,21,0,168,171,166,173,1,11441
139.394268035,1,-12,-20,-2,3,-6,-10,-35,3,-19,-205,189,-14,-136,180,23,21,0,168,171,166,173,1,11442
139.405299902,1,-12,-20,-6,23,-2,-6,-35,1,-19,-205,189,-14,-136,180,23,21,0,171,168,175,164,1,11443
139.416676998,1,-12,-20,-6,23,-2,-6,-35,1,44,-3,201,-33,-108,191,23,21,0,173,166,186,153,1,11444
139.435266018,1,-12,-20,-9,20,-5,-4,-34,-1,44,-3,201,-33,-108,191,23,21,0,175,164,185,154,1,11445
139.446661949,0,-12,-20,-11,31,-7,-2,-29,-4,58,-30,180,-50,-56,208,23,21,0,175,164,185,154,1,11446
139.457237005,0,-12,-20,-11,31,-7,-2,-29,-4,58,-30,180,-50,-56,208,23,21,0,177,162,191,148,1,11447
139.471580028,0,-12,-20,-4,31,-2,-1,-22,-6,58,-30,180,-50,-56,208,23,21,0,177,162,191,148,1,11448
139.487124919,0,-12,-20,-4,31,-2,-1,-22,-6,-219,214,20,-57,0,227,23,21,0,172,167,191,148,1,11449
139.498692035,0,-13,-20,-8,32,-1,-1,-11,-7,-248,57,112,-53,41,240,23,21,0,172,167,191,148,1,11450
139.509249925,0,-13,-20,-8,32,-1,-1,-11,-7,-248,57,112,-53,41,240,23,21,0,175,164,192,147,1,11451
139.520244836,0,-12,-20,-4,36,-3,-2,0,-7,-248,57,112,-53,41,240,23,21,0,172,167,194,145,1,11452
139.53827691,0,-13,-20,-4,36,-3,-2,0,-7,-86,13,23,-40,59,246,23,21,0,172,167,194,145,1,11453
139.551230907,0,-12,-20,-3,17,-5,-4,12,-6,74,237,235,-28,54,244,23,21,0,172,167,194,145,1,11454
139.563838005,0,-12,-20,5,4,-9,-6,22,-5,74,237,235,-28,54,244,23,21,0,171,168,183,156,1,11455
139.591403961,0,-12,-20,4,3,-4,-7,30,-4,153,200,120,-23,36,235,23,21,0,167,172,172,167,1,11456
139.604250908,0,-11,-20,3,-10,-7,-7,34,-4,31,-18,87,-31,19,224,23,21,0,167,172,165,174,1,11457
139.616284847,0,-10,-20,2,-13,-14,-7,34,-3,31,-18,87,-31,19,224,23,21,0,168,171,168,171,1,11458
139.647713899,0,-10,-20,1,-14,-16,-5,29,-3,70,-126,216,-48,13,215,23,21,0,168,171,170,169,1,11459
139.661306858,0,-9,-20,0,-6,-19,-2,22,-4,252,-71,105,-67,18,210,23,21,0,169,170,176,163,1,11460
139.672564029,0,-9,-21,-3,-13,-25,0,12,-6,252,-71,105,-67,18,210,23,21,0,172,167,174,165,1,11461
139.704248905,0,-9,-21,-15,-6,-23,2,2,-8,-28,-119,141,-77,30,210,23,21,0,179,160,181,158,1,11462
139.717167854,0,-9,-21,-19,2,-22,3,-6,-10,97,-160,150,-72,39,215,23,21,0,181,158,188,151,1,11463
139.729140043,0,-9,-21,-16,9,-29,3,-12,-13,97,-160,150,-72,39,215,23,21,0,179,160,193,146,1,11464
139.76037383,0,-9,-21,-13,17,-22,2,-15,-16,-8,-168,139,-51,35,222,23,21,0,178,161,200,139,1,11465
139.774185896,0,-10,-22,-9,22,-14,-1,-15,-19,26,229,54,-16,13,228,23,21,0,175,164,205,134,1,11466
139.786442041,0,-10,-22,-15,6,-16,-5,-11,-22,26,229,54,-16,13,228,23,21,0,179,160,197,142,1,11467
139.817430019,0,-10,-22,-5,10,-8,-9,-6,-24,-49,-7,44,23,-24,230,23,21,0,173,166,201,138,1,11468
139.830428838,0,-9,-23,0,-3,-6,-13,0,-24,-48,112,119,59,-69,225,23,21,0,169,170,194,145,1,11469
139.843472957,0,-9,-23,6,-8,-6,-15,7,-23,-48,112,119,59,-69,225,23,21,0,166,173,192,147,1,11470
139.873184919,0,-9,-23,2,-7,-2,-16,12,-21,63,155,195,84,-108,212,23,21,0,168,171,194,145,1,11471
139.886271953,-1,-8,-24,11,-10,1,-14,14,-18,-35,-61,225,93,-130,192,23,21,0,163,176,192,147,1,11472
139.899068832,-1,-8,-24,5,-13,0,-11,13,-14,-35,-61,225,93,-130,192,23,21,0,166,173,190,149,1,11473
139.923365831,-1,-8,-24,5,-13,0,-11,13,-14,-35,-61,225,93,-130,192,23,21,0,166,173,190,149,1,11474
139.935082912,-1,-7,-24,2,-6,5,-6,10,-10,127,98,202,85,-127,173,23,21,0,166,173,190,149,1,11475
139.945207834,-1,-7,-24,2,-6,5,-6,10,-10,127,98,202,85,-127,173,23,21,0,168,171,194,145,1,11476
139.956212043,-2,-6,-24,2,-13,5,-1,4,-6,-25,61,92,65,-99,158,23,21,0,168,171,194,145,1,11477
139.982173919,-2,-6,-24,0,-7,0,2,-1,-3,-25,61,92,65,-99,158,23,21,0,169,170,199,140,1,11478
139.993232965,-2,-6,-24,-6,-5,2,6,-7,0,128,-48,55,39,-52,152,23,21,0,169,170,199,140,1,11479
140.004299879,-2,-6,-24,-6,-5,2,6,-7,0,128,-48,55,39,-52,152,23,21,0,173,166,200,139,1,11480
140.015323877,-2,-6,-24,-10,-3,4,7,-11,1,128,-48,55,39,-52,152,23,21,0,173,166,200,139,1,11481
140.034355878,-2,-6,-24,-10,-3,4,7,-11,1,14,-224,157,15,4,157,23,21,0,176,163,201,138,1,11482
140.045302867,-2,-6,-24,-13,3,9,7,-14,2,31,-59,218,0,57,174,23,21,0,176,163,201,138,1,11483
140.056243896,-2,-6,-24,-11,1,9,6,-14,3,31,-59,218,0,57,174,23,21,0,176,163,199,140,1,11484
140.085306882,-2,-6,-24,-18,-5,4,2,-12,4,119,228,19,-6,93,197,23,21,0,180,159,193,146,1,11485
140.098201036,-2,-6,-24,-10,-9,1,-1,-9,4,-19,-61,237,-2,102,223,23,21,0,176,163,189,150,1,11486
140.110133886,-2,-6,-24,-14,-7,9,-5,-6,4,-19,-61,237,-2,102,223,23,21,0,178,161,188,151,1,11487
140.142175912,-1,-5,-24,-4,-5,6,-9,-2,5,-181,-210,33,10,85,246,23,21,0,172,167,187,152,1,11488
140.155247926,-1,-5,-24,-2,-3,6,-12,-1,5,103,46,43,25,50,7,23,21,0,171,168,186,153,1,11489
140.167309999,-1,-5,-24,-10,-2,1,-14,0,6,103,46,43,25,50,7,23,21,0,176,163,186,153,1,11490
140.198226928,-1,-5,-24,0,-2,6,-14,-1,6,116,4,169,39,7,15,23,21,0,170,169,185,154,1,11491
140.21122384,-2,-5,-24,0,3,1,-14,-2,6,11,83,118,47,-32,17,23,21,0,170,169,184,155,1,11492
140.223728895,-2,-5,-24,0,-2,-1,-11,-4,6,11,83,118,47,-32,17,23,21,0,170,169,176,163,1,11493
140.254355907,-2,-5,-23,4,4,1,-9,-5,5,-4,107,5,48,-63,14,23,21,0,167,172,175,164,1,11494
140.265362024,-2,-4,-23,4,9,0,-6,-5,5,-97,6,-50,46,-77,9,23,21,0,167,172,175,164,1,11495
140.276214838,-2,-4,-23,4,9,0,-6,-5,5,-97,6,-50,46,-77,9,23,21,0,167,172,178,161,1,11496
140.287312984,-2,-4,-23,0,21,-3,-3,-4,4,-97,6,-50,46,-77,9,23,21,0,169,170,185,154,1,11497
140.306182861,-2,-4,-23,0,21,-3,-3,-4,4,-92,19,179,44,-75,4,23,21,0,169,170,185,154,1,11498
140.317584991,-2,-4,-23,0,23,-4,-1,-2,3,-38,91,41,44,-57,254,23,21,0,169,170,185,154,1,11499
140.329834938,-2,-4,-23,3,23,-2,0,0,1,-38,91,41,44,-57,254,23,21,0,167,172,186,153,1,11500
140.360781908,-2,-4,-23,4,23,-5,1,3,0,-53,-98,126,44,-28,245,23,21,0,167,172,193,146,1,11501
140.374284029,-2,-3,-23,1,27,-5,2,7,0,42,-47,149,41,4,234,23,21,0,169,170,200,139,1,11502
140.386126995,-2,-3,-23,1,30,-2,2,12,-1,42,-47,149,41,4,234,23,21,0,169,170,205,134,1,11503
140.417275905,-2,-2,-23,1,24,-9,2,17,-2,-9,14,8,32,32,220,23,21,0,169,170,204,135,1,11504
140.430233001,-2,-2,-23,3,14,-5,2,21,-3,-1,103,215,18,51,207,23,21,0,168,171,204,135,1,11505
140.442307949,-2,-1,-23,3,11,-4,2,24,-4,-1,103,215,18,51,207,23,21,0,167,172,204,135,1,11506
140.473701953,-2,-1,-24,-1,0,-6,2,26,-4,-162,3,107,0,58,200,23,21,0,171,168,198,141,1,11507
140.487156868,-2,0,-24,0,-8,-5,2,27,-5,135,90,24,-18,53,201,23,21,0,169,170,195,144,1,11508
140.498225927,-1,0,-24,5,-17,-9,1,25,-5,135,90,24,-18,53,201,23,21,0,166,173,192,147,1,11509
140.530266046,-1,0,-24,6,-9,-5,1,21,-5,165,-232,206,-37,40,210,23,21,0,165,174,199,140,1,11510
140.543257951,-1,0,-24,2,-27,-9,1,16,-6,197,-135,105,-55,25,226,23,21,0,168,171,188,151,1,11511
140.555372953,-1,0,-24,4,-24,-12,1,9,-6,197,-135,105,-55,25,226,23,21,0,167,172,190,149,1,11512
140.586184978,-1,0,-24,0,-23,-8,2,1,-6,147,44,137,-65,10,246,23,21,0,169,170,190,149,1,11513
140.597372055,-1,0,-24,-4,-8,-8,2,-6,-6,2,197,-108,-64,-3,9,23,21,0,169,170,190,149,1,11514
140.608263969,-1,0,-24,0,-17,-13,2,-13,-7,2,197,-108,-64,-3,9,23,21,0,170,169,194,145,1,11515
140.636214971,0,0,-24,-2,-5,-11,3,-18,-8,123,173,69,-47,-16,23,23,21,0,171,168,201,138,1,11516
140.647466898,0,-1,-25,-8,-5,-1,2,-22,-8,28,-78,11,-15,-25,26,23,21,0,171,168,201,138,1,11517
140.658689022,0,-1,-25,-8,-5,-1,2,-22,-8,28,-78,11,-15,-25,26,23,21,0,175,164,201,138,1,11518
140.669275999,0,-1,-25,-14,-2,-12,2,-23,-9,28,-78,11,-15,-25,26,23,21,0,178,161,203,136,1,11519
140.68848896,0,-1,-25,-14,-2,-12,2,-23,-9,47,-15,113,23,-27,14,23,21,0,178,161,203,136,1,11520
140.699200868,0,-1,-25,-14,-2,-7,1,-21,-9,19,-43,-18,64,-22,240,23,21,0,178,161,203,136,1,11521
140.710156917,0,-1,-25,-8,5,0,0,-18,-10,19,-43,-18,64,-22,240,23,21,0,178,161,203,136,1,11522
140.721191883,0,-1,-25,-8,5,0,0,-18,-10,19,-43,-18,64,-22,240,23,21,0,175,164,208,131,1,11523
140.740295887,0,-1,-25,-6,1,-2,-2,-14,-10,164,58,229,97,-11,196,23,21,0,173,166,205,134,1,11524
140.751276016,-1,-1,-25,-3,2,1,-5,-9,-9,31,111,162,121,-1,146,23,21,0,173,166,205,134,1,11525
140.762225866,-1,-1,-25,-3,2,1,-5,-9,-9,31,111,162,121,-1,146,23,21,0,172,167,206,133,1,11526
140.773179054,-1,-1,-25,-9,-12,-7,-7,-4,-8,31,111,162,121,-1,146,23,21,0,175,164,197,142,1,11527
140.791306972,-1,-1,-25,-6,-14,0,-9,-1,-7,62,-151,160,134,3,97,23,21,0,173,166,195,144,1,11528
140.802268982,-1,0,-25,-8,-19,-2,-10,1,-5,11,-231,236,141,3,60,23,21,0,173,166,195,144,1,11529
140.813350916,-1,0,-25,-8,-19,-2,-10,1,-5,11,-231,236,141,3,60,23,21,0,175,164,193,146,1,11530
140.824331045,-1,0,-25,-1,-17,-1,-10,1,-4,11,-231,236,141,3,60,23,21,0,170,169,194,145,1,11531
140.849347829,-1,0,-25,-8,-13,-3,-10,0,-2,149,-53,217,146,-2,40,23,21,0,175,164,196,143,1,11532
140.863237857,-1,1,-25,-6,-11,0,-8,-2,-1,42,-37,204,150,-13,42,23,21,0,174,165,195,144,1,11533
140.874193906,-1,1,-25,3,-12,-1,-7,-6,-1,42,-37,204,150,-13,42,23,21,0,167,172,190,149,1,11534
140.90624094,-2,2,-25,1,-15,3,-6,-10,-1,1,-202,82,156,-27,62,23,21,0,169,170,181,158,1,11535
140.919788837,-2,3,-26,4,-9,-1,-5,-14,-1,78,-134,32,163,-45,97,23,21,0,167,172,178,161,1,11536
140.930357933,-2,3,-26,4,-9,-1,-5,-14,-1,78,-134,32,163,-45,97,23,21,0,167,172,178,161,1,11537
140.941148042,-2,3,-26,-2,-5,0,-4,-16,-1,78,-134,32,163,-45,97,23,21,0,171,168,180,159,1,11538
140.960209846,-2,4,-26,-2,-5,0,-4,-16,-1,49,-8,114,169,-64,139,23,21,0,171,168,180,159,1,11539
140.971467971,-2,4,-26,-8,7,4,-3,-17,-1,52,160,60,171,-83,180,23,21,0,171,168,180,159,1,11540
140.98150897,-2,4,-26,-8,7,4,-3,-17,-1,52,160,60,171,-83,180,23,21,0,175,164,188,151,1,11541
140.992354869,-2,4,-26,0,10,-1,-2,-16,-1,52,160,60,171,-83,180,23,21,0,169,170,190,149,1,11542
141.017338037,-3,5,-26,-9,18,4,-1,-14,0,-117,-233,112,168,-98,213,23,21,0,175,164,180,159,1,11543
141.030299902,-3,5,-26,0,25,1,0,-11,0,-64,-96,46,159,-107,233,23,21,0,169,170,183,156,1,11544
141.042212009,-3,5,-26,0,15,1,0,-6,0,-64,-96,46,159,-107,233,23,21,0,170,169,174,165,1,11545
141.07424283,-3,6,-26,1,19,0,0,0,1,-111,-23,87,142,-108,242,23,21,0,169,170,175,164,1,11546
141.087324857,-3,6,-26,3,17,0,-1,5,1,151,-215,10,116,-101,243,23,21,0,168,171,173,166,1,11547
141.101847887,-3,6,-26,8,26,2,-2,10,2,151,-215,10,116,-101,243,23,21,0,164,175,176,163,1,11548
141.130282878,-4,7,-25,1,18,-5,-2,15,2,99,30,0,82,-89,244,23,21,0,168,171,170,169,1,11549
141.143276929,-4,8,-25,10,20,-7,-1,19,2,173,21,181,45,-78,247,23,21,0,163,176,170,169,1,11550
141.155496835,-4,8,-25,9,16,-3,0,22,1,173,21,181,45,-78,247,23,21,0,163,176,166,173,1,11551
141.186116933,-4,8,-25,17,18,-7,0,22,0,17,-125,83,11,-69,254,23,21,0,158,181,164,175,1,11552
141.20018506,-4,9,-25,20,18,-2,2,22,0,72,-154,217,-10,-63,8,23,21,0,156,183,163,176,1,11553
141.211709976,-4,9,-25,12,21,-4,5,21,-1,72,-154,217,-10,-63,8,23,21,0,161,178,163,176,1,11554
141.243185043,-4,9,-25,22,20,-9,7,20,-3,66,-81,33,-18,-61,18,23,21,0,155,184,162,177,1,11555
141.256286859,-4,9,-26,22,27,-5,10,19,-4,121,-147,32,-9,-61,23,23,21,0,154,185,163,176,1,11556
141.268163919,-4,9,-26,19,26,-2,12,18,-5,121,-147,32,-9,-61,23,23,21,0,156,183,163,176,1,11557
141.292240858,-4,9,-26,19,26,-2,12,18,-5,121,-147,32,-9,-61,23,23,21,0,156,183,163,176,1,11558
141.303218841,-4,10,-26,24,27,-7,15,18,-5,-46,-85,-60,10,-64,22,23,21,0,156,183,163,176,1,11559
141.31425786,-4,10,-26,24,27,-7,15,18,-5,-46,-85,-60,10,-64,22,23,21,0,153,186,163,176,1,11560
141.325232029,-4,10,-26,14,29,-2,17,19,-6,-46,-85,-60,10,-64,22,23,21,0,153,186,163,176,1,11561
141.345332861,-4,10,-26,20,28,-6,19,20,-6,-186,20,60,36,-70,10,23,21,0,155,184,164,175,1,11562
141.358404874,-3,10,-26,12,32,-2,20,22,-5,-31,126,28,57,-78,241,23,21,0,220,220,220,220,1,11563
141.369407892,-3,10,-26,12,32,-2,20,22,-5,-31,126,28,57,-78,241,23,21,0,220,220,220,220,1,11564
141.380185842,-3,10,-26,13,30,1,21,24,-5,-31,126,28,57,-78,241,23,21,0,220,220,220,220,1,11565
141.400053024,-4,10,-26,13,30,1,21,24,-5,211,75,34,66,-86,204,23,21,0,220,220,220,220,1,11566
141.410250902,-3,11,-26,3,25,0,21,26,-5,126,-187,182,59,-88,161,23,21,0,220,220,220,220,1,11567
141.421432018,-3,11,-26,-2,21,3,20,28,-4,126,-187,182,59,-88,161,23,21,0,167,172,152,187,1,11568
141.43224883,-3,11,-26,-2,21,3,20,28,-4,126,-187,182,59,-88,161,23,21,0,167,172,152,187,1,11569
141.451343059,-4,11,-26,5,17,0,18,29,-3,91,34,205,38,-83,122,23,21,0,162,177,149,190,1,11570
141.463405847,-4,12,-26,5,10,4,16,30,-3,11,-134,37,11,-70,95,23,21,0,162,177,149,190,1,11571
141.473289013,-4,12,-26,5,10,4,16,30,-3,11,-134,37,11,-70,95,23,21,0,163,176,145,194,1,11572
141.484238863,-3,12,-26,9,8,1,13,29,-1,11,-134,37,11,-70,95,23,21,0,163,176,145,194,1,11573
141.509253978,-4,12,-26,2,10,2,9,28,0,5,223,233,-10,-51,87,23,21,0,164,175,141,198,1,11574
141.520200967,-4,12,-26,6,14,2,6,25,0,-236,-110,22,-20,-31,98,23,21,0,164,175,141,198,1,11575
141.531295061,-4,12,-26,6,14,2,6,25,0,-236,-110,22,-20,-31,98,23,21,0,162,177,143,196,1,11576
141.542230844,-4,12,-26,18,26,3,4,21,1,-236,-110,22,-20,-31,98,23,21,0,162,177,143,196,1,11577
141.562295913,-4,12,-26,19,28,9,3,18,2,-135,-67,13,-18,-13,126,23,21,0,154,185,152,187,1,11578
141.57320404,-4,12,-26,17,30,6,3,14,3,-34,-82,150,-7,0,164,23,21,0,154,185,152,187,1,11579
141.584122896,-4,12,-26,17,30,6,3,14,3,-34,-82,150,-7,0,164,23,21,0,155,184,153,186,1,11580
141.595312833,-4,12,-26,19,30,11,4,12,3,-42,143,147,2,6,201,23,21,0,153,186,153,186,1,11581
141.621227026,-4,12,-26,15,29,5,6,13,3,-42,143,147,2,6,201,23,21,0,155,184,152,187,1,11582
141.634462833,-4,12,-26,15,28,7,10,15,4,85,61,100,6,6,230,23,21,0,155,184,151,188,1,11583
141.646443843,-4,12,-26,12,22,8,13,19,5,85,61,100,6,6,230,23,21,0,159,180,148,191,1,11584
141.67738986,-3,12,-26,3,21,5,16,23,5,-161,-95,26,0,2,243,23,21,0,164,175,147,192,1,11585
141.691383838,-3,13,-26,-4,16,11,18,27,6,-115,66,190,-14,-2,239,23,21,0,169,170,144,195,1,11586
141.702189922,-3,13,-26,7,14,12,18,30,7,-115,66,190,-14,-2,239,23,21,0,163,176,143,196,1,11587
141.734144926,-2,13,-26,-5,9,11,17,30,8,-199,-33,198,-32,-6,219,23,21,0,172,167,150,189,1,11588
141.747249841,-2,13,-25,0,3,7,14,29,8,-13,15,83,-50,-8,189,23,21,0,169,170,156,183,1,11589
141.758308887,-2,13,-25,0,3,7,14,29,8,-13,15,83,-50,-8,189,23,21,0,169,170,156,183,1,11590
141.770160913,-2,13,-25,1,13,17,11,26,9,-13,15,83,-50,-8,189,23,21,0,168,171,162,177,1,11591
141.787240028,-2,13,-25,1,13,17,11,26,9,18,-158,5,-68,-7,155,23,21,0,168,171,162,177,1,11592
141.800132036,-2,13,-25,6,0,8,6,22,9,31,-23,49,-82,-4,126,23,21,0,166,173,172,167,1,11593
141.812121868,-2,13,-25,7,-6,15,3,17,9,31,-23,49,-82,-4,126,23,21,0,165,174,171,168,1,11594
141.844203949,-2,12,-25,-4,-9,5,0,12,10,64,58,229,-91,-1,108,23,21,0,172,167,171,168,1,11595
141.857180833,-2,11,-24,0,-22,2,-1,8,10,-29,-125,225,-93,-1,104,23,21,0,170,169,169,170,1,11596
141.870436906,-2,11,-24,3,-9,9,-1,4,11,-29,-125,225,-93,-1,104,23,21,0,167,172,178,161,1,11597
141.900218963,-2,10,-24,2,-21,0,0,1,11,-169,-119,238,-86,-5,115,23,21,0,168,171,173,166,1,11598
141.913398027,-2,10,-24,2,-22,1,0,-2,11,-118,-39,244,-71,-13,139,23,21,0,168,171,174,165,1,11599
141.925186872,-2,9,-24,-6,-32,-2,1,-6,10,-118,-39,244,-71,-13,139,23,21,0,174,165,169,170,1,11600
141.957231044,-2,8,-24,1,-22,2,2,-9,8,-66,-13,161,-52,-23,171,23,21,0,169,170,179,160,1,11601
141.97043991,-2,8,-24,-1,-28,-3,2,-13,6,111,109,166,-35,-35,204,23,21,0,171,168,177,162,1,11602
141.985502004,-2,7,-24,-1,-32,-1,2,-17,4,111,109,166,-35,-35,204,23,21,0,170,169,176,163,1,11603
142.015241861,-2,7,-24,-8,-33,-1,1,-21,2,-38,82,62,-23,-46,232,23,21,0,175,164,176,163,1,11604
142.026169061,-2,6,-23,-7,-29,-5,0,-24,0,-103,122,147,-19,-53,250,23,21,0,174,165,181,158,1,11605
142.038506984,-2,5,-23,-11,-31,-1,0,-27,0,-103,122,147,-19,-53,250,23,21,0,177,162,181,158,1,11606
142.070608854,-2,5,-24,-5,-26,0,-2,-28,-1,44,154,192,-22,-53,3,23,21,0,173,166,185,154,1,11607
142.083294868,-2,3,-24,-9,-31,0,-3,-30,-2,-25,4,0,-27,-43,3,23,21,0,175,164,184,155,1,11608
142.09512186,-2,3,-24,-17,-28,-3,-4,-30,-2,-25,4,0,-27,-43,3,23,21,0,180,159,187,152,1,11609
142.126229047,-2,3,-24,-11,-29,1,-6,-31,-2,213,-5,160,-33,-22,2,23,21,0,177,162,186,153,1,11610
142.139224052,-3,1,-24,-17,-30,0,-7,-31,-2,-128,4,164,-37,6,1,23,21,0,180,159,187,152,1,11611
142.151391029,-3,1,-24,-20,-36,1,-9,-30,-1,-128,4,164,-37,6,1,23,21,0,182,157,183,156,1,11612
142.182436943,-3,1,-24,-19,-26,0,-10,-30,-1,-23,-161,7,-35,37,1,23,21,0,182,157,189,150,1,11613
142.198151826,-3,0,-24,-17,-32,4,-11,-29,0,-51,-93,174,-29,63,254,23,21,0,181,158,185,154,1,11614
142.207265853,-3,0,-24,-23,-20,2,-13,-29,0,-51,-93,174,-29,63,254,23,21,0,184,155,193,146,1,11615
142.239207029,-3,0,-24,-18,-31,9,-15,-29,0,-4,118,217,-21,77,245,23,21,0,181,158,186,153,1,11616
142.250330925,-3,-1,-24,-15,-22,4,-16,-29,0,57,63,198,-16,75,229,23,21,0,181,158,186,153,1,11617
142.261231899,-3,-1,-24,-15,-22,4,-16,-29,0,57,63,198,-16,75,229,23,21,0,179,160,191,148,1,11618
142.272605896,-3,-1,-24,-15,-25,4,-18,-29,1,57,63,198,-16,75,229,23,21,0,179,160,191,148,1,11619
142.297163009,-3,-1,-24,-17,-17,4,-19,-29,2,-123,218,41,-17,59,206,23,21,0,181,158,194,145,1,11620
142.310137033,-3,-2,-24,-14,-12,2,-19,-28,3,-189,177,7,-24,36,181,23,21,0,179,160,197,142,1,11621
142.322330951,-3,-3,-24,-8,-8,4,-19,-27,3,-189,177,7,-24,36,181,23,21,0,175,164,200,139,1,11622
142.35362792,-3,-3,-24,-6,-9,3,-19,-26,4,156,146,188,-35,13,158,23,21,0,174,165,199,140,1,11623
142.366206884,-3,-4,-23,0,-3,5,-17,-23,5,151,-9,251,-46,0,142,23,21,0,170,169,203,136,1,11624
142.378159999,-3,-4,-23,-2,-7,1,-16,-20,5,151,-9,251,-46,0,142,23,21,0,173,166,199,140,1,11625
142.410256862,-3,-4,-23,6,0,4,-14,-17,5,11,-163,1,-56,3,137,23,21,0,168,171,202,137,1,11626
142.423305988,-4,-5,-23,5,1,-3,-11,-14,4,-49,18,224,-59,21,146,23,21,0,169,170,199,140,1,11627
142.435372829,-4,-5,-23,13,13,2,-8,-10,4,-49,18,224,-59,21,146,23,21,0,164,175,202,137,1,11628
142.466225862,-3,-5,-23,17,7,-4,-5,-7,3,-90,99,240,-53,46,167,23,21,0,162,177,187,152,1,11629
142.480039835,-3,-5,-23,15,14,-2,-1,-4,2,2,111,130,-39,72,197,23,21,0,163,176,185,154,1,11630
142.492275953,-3,-5,-23,12,7,-12,1,-1,2,2,111,130,-39,72,197,23,21,0,163,176,174,165,1,11631
142.515362024,-3,-5,-23,12,7,-12,1,-1,2,2,111,130,-39,72,197,23,21,0,163,176,174,165,1,11632
142.526396036,-2,-5,-23,8,8,-10,5,1,1,37,10,50,-19,92,229,23,21,0,163,176,174,165,1,11633
142.537314891,-2,-5,-23,8,8,-10,5,1,1,37,10,50,-19,92,229,23,21,0,165,174,175,164,1,11634
142.548269987,-2,-5,-23,1,2,-10,9,4,0,37,10,50,-19,92,229,23,21,0,169,170,171,168,1,11635
142.566287994,-2,-5,-23,1,2,-10,9,4,0,-60,-81,-10,1,105,2,23,21,0,169,170,171,168,1,11636
142.577312946,-1,-5,-23,-3,5,-8,11,7,-1,96,210,1,21,109,22,23,21,0,169,170,171,168,1,11637
142.588580846,-1,-5,-23,-3,5,-8,11,7,-1,96,210,1,21,109,22,23,21,0,172,167,173,166,1,11638
142.599309921,-1,-5,-23,-10,17,-8,13,8,-3,96,210,1,21,109,22,23,21,0,176,163,180,159,1,11639
142.617430925,-1,-5,-23,-10,17,-8,13,8,-3,-144,-117,13,38,104,27,23,21,0,176,163,180,159,1,11640
142.628541946,0,-5,-23,-16,16,-8,13,9,-5,-102,-220,107,50,93,15,23,21,0,176,163,180,159,1,11641
142.641146898,0,-4,-23,-13,11,-9,11,10,-7,-102,-220,107,50,93,15,23,21,0,180,159,180,159,1,11642
142.650393962,0,-4,-23,-13,11,-9,11,10,-7,-102,-220,107,50,93,15,23,21,0,178,161,176,163,1,11643
142.669263839,0,-4,-23,-15,7,-7,8,10,-9,22,-222,203,53,77,243,23,21,0,179,160,174,165,1,11644
142.680698871,0,-4,-23,-16,10,-4,3,9,-10,21,-149,44,48,55,207,23,21,0,179,160,174,165,1,11645
142.692205906,0,-4,-23,-14,10,0,-2,9,-10,21,-149,44,48,55,207,23,21,0,178,161,176,163,1,11646
142.724191904,0,-3,-24,-13,13,2,-8,10,-10,13,-2,172,34,27,174,23,21,0,175,164,178,161,1,11647
142.737215042,0,-3,-24,-5,7,3,-12,10,-9,-106,-27,104,15,-8,152,23,21,0,169,170,174,165,1,11648
142.74910593,0,-2,-24,-2,5,4,-16,11,-7,-106,-27,104,15,-8,152,23,21,0,165,174,173,166,1,11649
142.780202865,0,-2,-24,-3,4,6,-17,11,-5,-82,-182,55,-4,-49,146,23,21,0,164,175,172,167,1,11650
142.793216943,0,-2,-24,6,4,9,-17,11,-3,6,-16,113,-22,-95,154,23,21,0,156,183,172,167,1,11651
142.805482864,0,-2,-24,-2,-4,3,-15,10,0,6,-16,113,-22,-95,154,23,21,0,161,178,167,172,1,11652
142.837167978,-1,-2,-24,6,2,8,-12,9,1,-255,-15,230,-36,-141,173,23,21,0,154,185,171,168,1,11653
142.850301981,-1,-1,-24,5,3,9,-8,8,3,-56,-111,184,-45,-180,197,23,21,0,153,186,172,167,1,11654
142.862134933,-1,-1,-24,3,8,3,-3,6,5,-56,-111,184,-45,-180,197,23,21,0,154,185,175,164,1,11655
142.893129825,-2,-1,-24,-5,6,7,0,4,6,6,-61,112,-52,-205,222,23,21,0,159,180,174,165,1,11656
142.906295061,-3,-1,-24,-8,9,3,2,3,7,-102,-22,182,-58,-213,245,23,21,0,160,179,175,164,1,11657
142.91823101,-3,-1,-24,-1,10,7,4,2,7,-102,-22,182,-58,-213,245,23,21,0,155,184,176,163,1,11658
142.950196981,-3,-1,-23,-3,22,11,4,2,7,-176,202,144,-64,-202,6,23,21,0,156,183,183,156,1,11659
142.963181972,-4,-1,-23,-5,15,7,3,3,7,-74,-111,71,-71,-174,16,23,21,0,157,182,179,160,1,11660
142.975214958,-4,-1,-23,-15,10,4,1,4,6,-74,-111,71,-71,-174,16,23,21,0,162,177,176,163,1,11661
143.006247997,-4,-1,-23,-13,7,8,0,7,6,-239,40,19,-78,-134,18,23,21,0,160,179,174,165,1,11662
143.020609855,-5,-1,-23,-18,2,6,-3,10,6,-80,198,161,-88,-89,10,23,21,0,163,176,171,168,1,11663
143.031319856,-5,-1,-23,-17,4,7,-5,12,6,-80,198,161,-88,-89,10,23,21,0,161,178,172,167,1,11664
143.062275886,-5,-1,-23,-21,0,6,-8,14,6,-210,194,181,-103,-43,248,23,21,0,162,177,169,170,1,11665
143.076221943,-6,-1,-23,-22,-1,1,-10,14,7,-199,44,138,-123,-1,221,23,21,0,162,177,168,171,1,11666
143.088178873,-6,-1,-23,-14,-8,5,-12,12,7,-199,44,138,-123,-1,221,23,21,0,157,182,164,175,1,11667
143.119420051,-6,-2,-22,-18,-6,3,-14,10,7,0,83,28,-145,35,188,23,21,0,157,182,167,172,1,11668
143.132256031,-6,-2,-22,-15,-8,-1,-16,6,6,107,41,126,-166,68,156,23,21,0,155,184,165,174,1,11669
143.143257856,-6,-2,-22,-15,-8,-1,-16,6,6,107,41,126,-166,68,156,23,21,0,155,184,165,174,1,11670
143.154268026,-6,-2,-22,-23,-7,1,-18,2,6,107,41,126,-166,68,156,23,21,0,160,179,166,173,1,11671
143.173321008,-6,-3,-22,-23,-7,1,-18,2,6,14,45,27,-182,97,131,23,21,0,160,179,166,173,1,11672
143.187279939,-6,-3,-22,-16,2,-3,-19,-1,5,-40,-167,109,-185,122,118,23,21,0,151,188,173,166,1,11673
143.199328899,-6,-3,-22,-12,6,0,-19,-4,4,-40,-167,109,-185,122,118,23,21,0,148,191,176,163,1,11674
143.230152845,-6,-4,-22,-17,5,-3,-19,-6,3,-72,-249,-38,-171,139,117,23,21,0,151,188,175,164,1,11675
143.243307829,-6,-5,-22,-15,13,-2,-19,-7,1,-131,-181,-98,-138,143,128,23,21,0,149,190,180,159,1,11676
143.255240917,-6,-5,-22,-4,11,0,-18,-6,0,-131,-181,-98,-138,143,128,23,21,0,141,198,179,160,1,11677
143.286238908,-5,-6,-22,-7,15,-1,-17,-4,0,-211,157,146,-92,130,142,23,21,0,142,197,181,158,1,11678
143.300107002,-5,-6,-22,-3,15,1,-16,0,-1,-171,94,230,-42,97,154,23,21,0,139,200,181,158,1,11679
143.31118989,-5,-6,-22,-11,13,-1,-15,3,-1,-171,94,230,-42,97,154,23,21,0,143,196,180,159,1,11680
143.343199968,-4,-6,-22,-8,3,-6,-13,7,-2,-155,-129,118,-1,50,155,23,21,0,141,198,174,165,1,11681
143.356503009,-4,-6,-22,-8,0,-2,-11,11,-2,-81,-113,129,19,-1,147,23,21,0,141,198,172,167,1,11682
143.368365049,-4,-6,-22,-10,-2,-3,-9,13,-2,-81,-113,129,19,-1,147,23,21,0,142,197,171,168,1,11683
143.399647951,-4,-6,-22,-15,-1,-6,-8,14,-1,13,-99,138,16,-46,135,23,21,0,144,195,171,168,1,11684
143.412158012,-4,-6,-22,-21,1,-3,-7,13,-1,-16,-168,27,-8,-79,129,23,21,0,147,192,173,166,1,11685
143.424252987,-4,-6,-22,-19,-8,-5,-7,11,-2,-16,-168,27,-8,-79,129,23,21,0,146,193,167,172,1,11686
143.456243038,-4,-6,-22,-23,-10,-5,-7,7,-2,-161,-178,221,-45,-96,136,23,21,0,148,191,165,174,1,11687
143.469122886,-5,-6,-22,-24,-14,-1,-9,3,-3,-140,-84,10,-84,-102,160,23,21,0,149,190,163,176,1,11688
143.483441829,-5,-6,-22,-25,-7,-2,-12,0,-3,-140,-84,10,-84,-102,160,23,21,0,150,189,167,172,1,11689
143.505209922,-5,-6,-22,-25,-7,-2,-12,0,-3,-140,-84,10,-84,-102,160,23,21,0,150,189,167,172,1,11690
143.516185999,-6,-6,-22,-25,-11,-3,-15,-3,-4,-75,234,107,-115,-100,197,23,21,0,150,189,167,172,1,11691
143.527258873,-6,-6,-22,-25,-11,-3,-15,-3,-4,-75,234,107,-115,-100,197,23,21,0,150,189,165,174,1,11692
143.538688898,-6,-6,-23,-11,-6,-1,-18,-6,-4,-75,234,107,-115,-100,197,23,21,0,141,198,168,171,1,11693
143.565884828,-6,-6,-23,-18,-9,-5,-21,-8,-4,-42,-49,48,-133,-96,240,23,21,0,145,194,167,172,1,11694
143.577292919,-7,-7,-23,-8,-7,-2,-23,-10,-4,-33,-110,216,-139,-91,23,23,21,0,139,200,168,171,1,11695
143.589215993,-7,-7,-23,0,-4,0,-24,-10,-4,-33,-110,216,-139,-91,23,23,21,0,134,205,170,169,1,11696
143.621147871,-8,-7,-23,-2,-3,0,-23,-10,-3,3,-113,-123,-135,-83,49,23,21,0,135,204,170,169,1,11697
143.634372949,-8,-8,-23,0,-1,-4,-21,-10,-3,213,7,115,-126,-73,57,23,21,0,135,204,172,167,1,11698
143.646328926,-8,-8,-23,5,-4,-6,-18,-9,-2,213,7,115,-126,-73,57,23,21,0,134,205,170,169,1,11699
143.677206039,-9,-8,-23,4,0,-4,-14,-7,-2,-12,-4,-65,-116,-61,45,23,21,0,141,198,173,166,1,11700
143.690296888,-9,-9,-23,3,0,-3,-9,-6,-2,-190,-96,11,-103,-50,15,23,21,0,145,194,173,166,1,11701
143.702252864,-9,-8,-23,-3,2,-13,-4,-4,-2,-190,-96,11,-103,-50,15,23,21,0,150,189,173,166,1,11702
143.734130859,-9,-9,-23,0,2,-4,0,-3,-2,-72,-177,98,-87,-41,224,23,21,0,150,189,173,166,1,11703
143.747233867,-9,-9,-23,0,3,-6,2,-2,-3,-144,-17,209,-67,-35,169,23,21,0,153,186,172,167,1,11704
143.75927186,-9,-9,-23,-7,-4,-8,4,0,-4,-144,-17,209,-67,-35,169,23,21,0,158,181,167,172,1,11705
143.783383846,-9,-9,-23,-7,-4,-8,4,0,-4,-144,-17,209,-67,-35,169,23,21,0,158,181,167,172,1,11706
143.794085979,-8,-9,-23,-2,-4,-8,4,0,-5,35,98,105,-47,-34,112,23,21,0,158,181,167,172,1,11707
143.805243969,-8,-9,-23,-2,-4,-8,4,0,-5,35,98,105,-47,-34,112,23,21,0,155,184,167,172,1,11708
143.816268921,-8,-9,-23,4,-12,-6,3,0,-6,35,98,105,-47,-34,112,23,21,0,168,171,162,177,1,11709
143.842366933,-8,-9,-23,6,-2,-9,1,1,-7,142,-75,26,-31,-38,63,23,21,0,169,170,168,171,1,11710
143.855273008,-9,-9,-24,12,0,-12,0,0,-7,39,-27,42,-20,-44,31,23,21,0,172,167,169,170,1,11711
143.867349863,-8,-9,-24,15,-2,-6,-1,0,-8,39,-27,42,-20,-44,31,23,21,0,173,166,168,171,1,11712
143.898288011,-9,-10,-24,20,-5,-7,-1,-1,-8,55,86,82,-11,-50,20,23,21,0,172,167,166,173,1,11713
143.911196947,-9,-10,-24,28,-7,-9,0,-3,-8,5,100,104,0,-52,34,23,21,0,172,167,165,174,1,11714
143.923257827,-9,-10,-24,34,9,0,2,-4,-8,5,100,104,0,-52,34,23,21,0,177,162,175,164,1,11715
143.955328941,-10,-10,-24,30,7,-5,6,-5,-8,70,-61,163,13,-50,69,23,21,0,184,155,174,165,1,11716
143.968214988,-10,-10,-24,42,12,-6,11,-5,-8,-11,-226,28,33,-41,122,23,21,0,177,162,177,162,1,11717
143.980299949,-9,-10,-25,41,2,0,17,-4,-8,-11,-226,28,33,-41,122,23,21,0,178,161,171,168,1,11718
144.011281967,-9,-9,-25,46,11,0,22,-2,-7,-52,-3,143,55,-27,185,23,21,0,174,165,176,163,1,11719
144.02432084,-8,-9,-25,44,9,7,28,0,-6,100,-23,176,74,-14,249,23,21,0,176,163,175,164,1,11720
144.039273023,-8,-9,-25,44,9,7,28,0,-6,100,-23,176,74,-14,249,23,21,0,176,163,175,164,1,11721
144.046164989,-8,-9,-25,44,12,5,33,2,-5,100,-23,176,74,-14,249,23,21,0,176,163,177,162,1,11722
144.065244913,-8,-8,-25,44,12,5,33,2,-5,69,150,173,85,-7,52,23,21,0,176,163,177,162,1,11723
144.076295852,-7,-8,-25,49,10,4,37,5,-4,-86,-31,107,84,-10,97,23,21,0,176,163,177,162,1,11724
144.086386919,-7,-8,-25,49,10,4,37,5,-4,-86,-31,107,84,-10,97,23,21,0,173,166,176,163,1,11725
144.097208976,-7,-8,-25,37,1,9,41,8,-2,-86,-31,107,84,-10,97,23,21,0,180,159,171,168,1,11726
144.116590023,-7,-7,-25,37,1,9,41,8,-2,-9,174,56,71,-22,126,23,21,0,180,159,171,168,1,11727
144.127303838,-6,-7,-25,37,-3,3,43,9,0,-237,-60,141,49,-38,136,23,21,0,180,159,171,168,1,11728
144.138349056,-6,-7,-25,37,-3,3,43,9,0,-237,-60,141,49,-38,136,23,21,0,180,159,167,172,1,11729
144.149318933,-6,-7,-25,28,6,9,45,10,2,-237,-60,141,49,-38,136,23,21,0,185,154,174,165,1,11730
144.167383909,-6,-6,-25,28,6,9,45,10,2,-58,165,74,24,-50,125,23,21,0,185,154,174,165,1,11731
144.178129911,-5,-6,-25,24,-2,4,45,10,4,50,88,71,-2,-52,98,23,21,0,185,154,174,165,1,11732
144.18915987,-5,-6,-25,13,0,6,44,9,5,50,88,71,-2,-52,98,23,21,0,188,151,168,171,1,11733
144.200223922,-5,-6,-25,13,0,6,44,9,5,50,88,71,-2,-52,98,23,21,0,194,145,169,170,1,11734
144.223366022,-4,-6,-25,16,-9,10,42,7,6,107,93,148,-30,-42,61,23,21,0,193,146,164,175,1,11735
144.23013401,-3,-5,-25,12,-9,6,39,5,7,39,36,119,-57,-17,22,23,21,0,193,146,164,175,1,11736
144.241071939,-3,-5,-25,12,-9,6,39,5,7,39,36,119,-57,-17,22,23,21,0,195,144,164,175,1,11737
144.25216794,-3,-5,-25,8,-13,6,34,2,7,39,36,119,-57,-17,22,23,21,0,198,141,162,177,1,11738
144.271586895,-3,-5,-25,13,-4,10,29,0,7,116,-71,246,-80,18,244,23,21,0,194,145,167,172,1,11739
144.284425973,-2,-5,-24,11,-11,8,23,-2,7,83,-102,-5,-90,60,219,23,21,0,196,143,163,176,1,11740
144.296298027,-2,-5,-24,10,-5,7,18,-4,7,83,-102,-5,-90,60,219,23,21,0,196,143,166,173,1,11741
144.32734704,-2,-6,-24,8,-13,6,14,-7,7,98,161,9,-83,98,203,23,21,0,197,142,161,178,1,11742
144.340148925,-1,-6,-24,14,-11,2,10,-8,7,-7,182,170,-57,123,193,23,21,0,194,145,163,176,1,11743
144.352519035,-1,-6,-24,10,-4,9,9,-9,7,-7,182,170,-57,123,193,23,21,0,196,143,167,172,1,11744
144.383309841,0,-6,-24,14,-2,3,8,-10,7,-161,-95,120,-15,131,184,23,21,0,194,145,168,171,1,11745
144.397325992,0,-6,-24,18,5,5,8,-10,7,62,-112,249,31,123,173,23,21,0,152,187,173,166,1,11746
144.408406019,0,-6,-24,11,10,5,9,-9,7,62,-112,249,31,123,173,23,21,0,156,183,176,163,1,11747
144.443300008,0,-6,-24,15,6,4,11,-8,6,157,-7,170,73,102,158,23,21,0,154,185,173,166,1,11748
144.447326898,1,-6,-23,9,17,7,12,-6,6,69,121,55,100,73,142,23,21,0,154,185,173,166,1,11749
144.458463907,1,-6,-23,9,17,7,12,-6,6,69,121,55,100,73,142,23,21,0,157,182,180,159,1,11750
144.469331979,1,-6,-23,2,12,6,13,-4,5,69,121,55,100,73,142,23,21,0,162,177,177,162,1,11751
144.488224029,1,-5,-23,2,12,6,13,-4,5,-175,-84,-39,108,43,128,23,21,0,162,177,177,162,1,11752
144.499202013,2,-5,-23,-18,15,7,14,0,5,-99,-4,-102,100,16,119,23,21,0,162,177,177,162,1,11753
144.510521888,2,-5,-23,-18,15,7,14,0,5,-99,-4,-102,100,16,119,23,21,0,174,165,179,160,1,11754
144.521419048,2,-5,-23,-32,16,6,14,3,5,-99,-4,-102,100,16,119,23,21,0,174,165,179,160,1,11755
144.539211988,2,-4,-23,-32,16,6,14,3,5,59,71,66,80,-5,113,23,21,0,182,157,180,159,1,11756
144.550240039,3,-3,-23,-45,12,6,12,7,5,211,92,148,53,-18,109,23,21,0,182,157,180,159,1,11757
144.564395904,3,-3,-23,-45,12,6,12,7,5,211,92,148,53,-18,109,23,21,0,190,149,177,162,1,11758
144.572324991,3,-3,-23,-50,-4,6,9,10,5,211,92,148,53,-18,109,23,21,0,190,149,177,162,1,11759
144.590251922,3,-3,-23,-50,-4,6,9,10,5,33,6,139,23,-18,104,23,21,0,193,146,167,172,1,11760
144.603371858,3,-2,-23,-56,-11,3,3,13,5,-175,71,-45,-1,-4,100,23,21,0,193,146,167,172,1,11761
144.612385988,3,-2,-23,-56,-11,3,3,13,5,-175,71,-45,-1,-4,100,23,21,0,197,142,162,177,1,11762
144.623283863,3,-2,-23,-53,-19,9,-5,14,6,-175,71,-45,-1,-4,100,23,21,0,195,144,158,181,1,11763
144.641381025,3,-2,-23,-53,-19,9,-5,14,6,-43,16,52,-17,25,102,23,21,0,195,144,158,181,1,11764
144.652273893,3,-1,-23,-33,-25,1,-15,14,6,-163,22,180,-22,69,111,23,21,0,195,144,158,181,1,11765
144.663203954,3,-1,-23,-33,-25,1,-15,14,6,-163,22,180,-22,69,111,23,21,0,183,156,154,185,1,11766
144.674396991,3,-1,-23,-27,-18,7,-27,11,6,-163,22,180,-22,69,111,23,21,0,180,159,158,181,1,11767
144.693361997,3,-1,-23,-15,-28,1,-38,6,6,-21,40,147,-20,121,125,23,21,0,172,167,152,187,1,11768
144.704375982,2,-1,-23,4,-20,1,-47,0,6,-124,-145,180,-15,170,142,23,21,0,172,167,152,187,1,11769
144.715245962,2,-1,-23,4,-20,1,-47,0,6,-124,-145,180,-15,170,142,23,21,0,160,179,157,182,1,11770
144.726270914,2,-1,-23,8,-25,4,-50,-8,5,-124,-145,180,-15,170,142,23,21,0,158,181,154,185,1,11771
144.74535489,2,-1,-22,21,-16,0,-49,-15,5,-104,113,149,-14,211,159,23,21,0,150,189,160,179,1,11772
144.756361007,2,-2,-22,24,-6,-1,-42,-21,4,-194,-86,205,-19,233,174,23,21,0,150,189,160,179,1,11773
144.767345905,2,-2,-22,24,-6,-1,-42,-21,4,-194,-86,205,-19,233,174,23,21,0,148,191,165,174,1,11774
144.779603004,2,-2,-22,23,8,-4,-31,-25,3,-194,-86,205,-19,233,174,23,21,0,148,191,165,174,1,11775
144.797786951,3,-2,-22,23,8,-4,-31,-25,3,-204,-141,67,-32,232,188,23,21,0,149,190,174,165,1,11776
144.807231903,4,-3,-22,27,25,-8,-17,-26,3,208,124,144,-51,206,204,23,21,0,149,190,174,165,1,11777
144.818143844,4,-3,-22,27,25,-8,-17,-26,3,208,124,144,-51,206,204,23,21,0,146,193,185,154,1,11778
144.829221963,3,-3,-22,18,19,-11,-2,-25,1,208,124,144,-51,206,204,23,21,0,152,187,181,158,1,11779
144.847208023,4,-3,-22,18,19,-11,-2,-25,1,65,-18,89,-73,161,222,23,21,0,152,187,181,158,1,11780
144.858392953,5,-3,-22,9,25,-18,10,-20,0,-51,-203,105,-94,103,244,23,21,0,152,187,181,158,1,11781
144.871381044,5,-3,-22,9,25,-18,10,-20,0,-51,-203,105,-94,103,244,23,21,0,157,182,185,154,1,11782
144.88159585,5,-3,-22,-4,35,-12,21,-13,0,-51,-203,105,-94,103,244,23,21,0,166,173,191,148,1,11783
144.899219989,6,-4,-22,-4,35,-12,21,-13,0,-11,-28,49,-108,43,8,23,21,0,166,173,191,148,1,11784
144.910122871,6,-4,-22,-12,14,-10,27,-4,-3,-158,-77,121,-109,-10,20,23,21,0,166,173,191,148,1,11785
144.925832986,6,-4,-22,-14,11,-4,29,5,-5,-158,-77,121,-109,-10,20,23,21,0,171,168,178,161,1,11786
144.932973861,6,-4,-22,-14,11,-4,29,5,-5,-158,-77,121,-109,-10,20,23,21,0,171,168,178,161,1,11787
144.951374054,7,-4,-22,-20,-6,-2,26,15,-8,-133,-5,43,-100,-55,17,23,21,0,175,164,165,174,1,11788
144.962309837,7,-4,-23,-15,-19,1,19,22,-10,-181,-203,9,-86,-88,0,23,21,0,175,164,165,174,1,11789
144.972127914,7,-4,-23,-15,-19,1,19,22,-10,-181,-203,9,-86,-88,0,23,21,0,172,167,158,181,1,11790
144.983243942,7,-4,-23,-16,-28,4,10,26,-11,-181,-203,9,-86,-88,0,23,21,0,173,166,152,187,1,11791
145.002326011,6,-4,-23,-7,-33,4,0,25,-11,109,-1,-51,-74,-112,226,23,21,0,168,171,149,190,1,11792
145.013231992,6,-4,-23,-8,-42,5,-8,19,-10,27,-179,233,-68,-126,192,23,21,0,168,171,149,190,1,11793
145.024461031,6,-4,-23,-8,-42,5,-8,19,-10,27,-179,233,-68,-126,192,23,21,0,168,171,144,195,1,11794
145.03549385,6,-4,-23,9,-40,9,-15,10,-7,27,-179,233,-68,-126,192,23,21,0,157,182,145,194,1,11795
145.058431863,5,-4,-23,2,-39,7,-19,-1,-4,36,-6,117,-69,-135,161,23,21,0,0,0,0,0,0,11796
145.069293975,4,-5,-23,13,-26,15,-20,-14,0,-42,-28,110,-71,-140,139,23,21,0,0,0,0,0,0,11797
145.080291032,4,-5,-23,13,-26,15,-20,-14,0,-42,-28,110,-71,-140,139,23,21,0,0,0,0,0,0,11798
145.091331005,4,-5,-23,7,-17,11,-17,-26,3,-42,-28,110,-71,-140,139,23,21,0,0,0,0,0,0,11799
145.102370023,3,-5,-23,7,-17,11,-17,-26,3,36,159,-27,-65,-143,128,34,22,1,0,0,0,0,0,11800
145.113303899,3,-5,-23,16,1,15,-12,-35,6,36,159,-27,-65,-143,128,34,22,1,0,0,0,0,0,11801
145.124289035,2,-5,-23,16,1,15,-12,-35,6,-55,-11,11,-45,-142,130,34,22,1,0,0,0,0,0,11802
145.135349035,2,-6,-23,15,11,11,-5,-41,8,-55,-11,11,-45,-142,130,33,23,0,0,0,0,0,0,11803
145.146232843,1,-6,-23,4,21,15,1,-41,10,-231,86,136,-14,-136,139,33,23,0,0,0,0,0,0,11804
145.15724492,1,-6,-23,4,21,15,1,-41,10,-231,86,136,-14,-136,139,33,23,0,0,0,0,0,0,11805
145.168190002,0,-6,-23,-3,21,15,7,-37,11,-98,-89,177,22,-119,150,33,23,0,0,0,0,0,0,11806
145.1793859,0,-6,-23,-3,21,15,7,-37,11,-98,-89,177,22,-119,150,33,24,0,0,0,0,0,0,11807
145.190224886,0,-7,-23,0,22,15,11,-28,12,-64,-23,-73,52,-93,156,33,24,0,0,0,0,0,0,11808
145.202445983,0,-7,-23,-5,16,15,13,-17,13,-64,-23,-73,52,-93,156,33,24,0,0,0,0,0,0,11809
145.212422847,0,-7,-23,-5,16,15,13,-17,13,-113,155,69,63,-60,154,32,25,0,0,0,0,0,0,11810
145.223567009,0,-6,-22,-16,9,17,13,-4,13,-113,155,69,63,-60,154,32,25,0,0,0,0,0,0,11811
