TiempoEjecucion,AnguloPitch,AnguloRoll,AnguloYaw,G_Pitch,G_Roll,G_Yaw,G_Pitch_filtrada,G_Roll_filtrada,G_Yaw_filtrada,Ax,Ay,Az,Ax_filtrada,Ay_filtrada,Az_filtrada,posZ,posZ_filtrada,velZ,motorDelantero,motorTrasero,motorDerecho,motorIzquierdo,EstadoEncendido,MensajesRecibidos
8.298996926,-1,-2,0,0,-4,0,0,0,1,30,18,96,-28,-3,28,0,0,0,169,170,167,172,1,729
8.310070992,-1,-2,0,0,0,0,0,0,1,-19,-123,114,-44,0,39,0,0,0,169,170,167,172,1,730
8.321059942,-1,-2,0,0,0,0,0,0,1,-19,-123,114,-44,0,39,0,0,0,169,170,170,169,1,731
8.332137823,-1,-2,0,0,3,0,0,-1,1,-19,-123,114,-44,0,39,0,0,0,169,170,172,167,1,732
8.35097599,-1,-2,0,0,3,0,0,-1,1,-29,47,86,-54,9,41,0,0,0,169,170,172,167,1,733
8.362063885,-1,-2,0,-2,-3,0,0,-2,0,-97,46,218,-55,19,35,0,0,0,169,170,172,167,1,734
8.373049975,-1,-2,0,-2,-3,0,0,-2,0,-97,46,218,-55,19,35,0,0,0,171,168,167,172,1,735
8.383993864,-1,-2,0,-1,0,0,0,-2,0,-97,46,218,-55,19,35,0,0,0,171,168,169,170,1,736
8.40198493,-1,-2,0,-1,0,0,0,-2,0,-60,7,22,-50,28,21,0,0,0,171,168,169,170,1,737
8.413921833,-1,-2,0,0,-1,0,0,-1,0,34,31,88,-41,32,2,0,0,0,171,168,169,170,1,738
8.424017906,-1,-2,0,0,3,0,0,-1,0,34,31,88,-41,32,2,0,0,0,170,169,169,170,1,739
8.435005903,-1,-2,0,0,3,0,0,-1,0,34,31,88,-41,32,2,0,0,0,169,170,172,167,1,740
8.453929901,0,-3,0,0,0,0,0,0,0,7,163,69,-31,33,236,0,0,0,169,170,169,170,1,741
8.464995861,0,-3,0,0,0,0,0,0,0,1,3,130,-24,30,213,0,0,0,169,170,169,170,1,742
8.476082802,0,-3,0,0,-2,0,0,0,0,1,3,130,-24,30,213,0,0,0,169,170,169,170,1,743
8.491854906,0,-3,0,0,-2,0,0,0,0,30,76,190,-19,26,192,0,0,0,169,170,168,171,1,744
8.505952835,0,-3,0,0,0,0,0,0,0,30,76,190,-19,26,192,0,0,0,170,169,169,170,1,745
8.517257929,0,-3,0,0,0,-1,0,0,0,25,-65,48,-16,25,174,0,0,0,170,169,169,170,1,746
8.527975798,0,-3,0,0,0,-1,0,0,0,25,-65,48,-16,25,174,0,0,0,170,169,170,169,1,747
8.540217877,0,-3,0,0,-2,0,0,0,0,25,-65,48,-16,25,174,0,0,0,170,169,170,169,1,748
8.556952954,0,-3,0,0,-2,0,0,0,0,57,72,225,-14,27,158,0,0,0,170,169,168,171,1,749
8.568033934,0,-3,0,0,0,0,0,0,0,-1,-80,107,-12,31,148,0,0,0,170,169,168,171,1,750
8.578918934,0,-3,0,0,0,0,0,0,0,-1,-80,107,-12,31,148,0,0,0,170,169,169,170,1,751
8.589902878,0,-3,0,0,3,2,0,0,0,-1,-80,107,-12,31,148,0,0,0,170,169,169,170,1,752
8.608008862,0,-3,0,0,3,2,0,0,0,-5,-67,253,-7,35,145,0,0,0,169,170,172,167,1,753
8.619002819,0,-3,0,0,3,2,0,0,0,-26,136,123,0,38,150,0,0,0,169,170,172,167,1,754
8.630075932,0,-3,0,0,-1,0,0,0,0,-26,136,123,0,38,150,0,0,0,169,170,171,168,1,755
8.641031027,0,-3,0,0,-1,0,0,0,0,-26,136,123,0,38,150,0,0,0,170,169,169,170,1,756
8.664175987,0,-3,0,0,-3,1,0,0,0,-36,5,40,7,36,161,0,0,0,170,169,167,172,1,757
8.671028853,0,-3,0,-1,-4,0,0,0,0,-69,-34,121,13,31,178,0,0,0,170,169,167,172,1,758
8.682490826,0,-3,0,-1,-4,0,0,0,0,-69,-34,121,13,31,178,0,0,0,170,169,167,172,1,759
8.692998886,0,-3,0,0,4,1,0,0,0,-69,-34,121,13,31,178,0,0,0,169,170,172,167,1,760
8.711953879,0,-3,0,0,0,-1,0,0,0,29,-86,167,17,22,198,0,0,0,170,169,170,169,1,761
8.724170923,0,-2,0,1,0,0,0,0,1,118,32,37,16,12,219,0,0,0,170,169,170,169,1,762
8.734138012,0,-2,0,1,0,0,0,0,1,118,32,37,16,12,219,0,0,0,169,170,169,170,1,763
8.745215893,0,-2,0,0,-4,0,0,0,1,118,32,37,16,12,219,0,0,0,169,170,169,170,1,764
8.762928963,1,-2,0,0,-4,0,0,0,1,88,52,119,11,4,238,0,0,0,170,169,167,172,1,765
8.774025917,1,-2,0,0,4,1,0,0,1,-18,59,101,4,-3,251,0,0,0,170,169,167,172,1,766
8.785175801,1,-2,0,0,4,1,0,0,1,-18,59,101,4,-3,251,0,0,0,170,169,172,167,1,767
8.796196938,1,-2,0,0,0,-2,0,0,0,-18,59,101,4,-3,251,0,0,0,170,169,172,167,1,768
8.814047814,1,-2,0,0,0,-2,0,0,0,58,80,154,0,-8,2,0,0,0,170,169,170,169,1,769
8.82531786,1,-2,0,0,-4,0,0,0,0,119,135,190,-1,-9,2,0,0,0,170,169,170,169,1,770
8.836061001,1,-2,0,0,-4,0,0,0,0,119,135,190,-1,-9,2,0,0,0,170,169,167,172,1,771
8.848067999,1,-2,0,0,1,0,0,0,0,119,135,190,-1,-9,2,0,0,0,170,169,167,172,1,772
8.866075993,1,-2,0,0,1,0,0,0,0,-11,-51,17,3,-5,254,0,0,0,170,169,170,169,1,773
8.884076834,1,-2,0,0,0,0,0,0,0,-4,45,138,13,3,245,0,0,0,170,169,170,169,1,774
8.887995005,0,-2,0,0,2,0,0,0,0,-4,45,138,13,3,245,0,0,0,170,169,170,169,1,775
8.89913702,0,-2,0,0,2,0,0,0,0,-4,45,138,13,3,245,0,0,0,169,170,171,168,1,776
8.918012858,0,-2,0,0,2,0,0,0,0,2,-31,209,26,16,232,0,0,0,169,170,171,168,1,777
8.929098845,1,-2,0,0,0,0,0,0,0,40,65,110,38,31,219,0,0,0,169,170,171,168,1,778
8.939985991,1,-2,0,0,0,0,0,0,0,40,65,110,38,31,219,0,0,0,170,169,169,170,1,779
8.950989008,1,-2,0,1,1,-1,0,0,0,40,65,110,38,31,219,0,0,0,169,170,170,169,1,780
8.970120907,1,-1,0,0,-1,0,0,0,0,-55,57,97,47,44,206,0,0,0,170,169,169,170,1,781
8.981029988,1,-1,0,0,0,0,0,0,0,-86,39,124,51,52,196,0,0,0,170,169,169,170,1,782
8.992317915,1,-1,0,0,0,0,0,0,0,-86,39,124,51,52,196,0,0,0,170,169,170,169,1,783
9.003022909,1,-1,0,-1,-1,0,0,1,0,-86,39,124,51,52,196,0,0,0,170,169,170,169,1,784
9.021163941,1,-1,0,-1,-1,0,0,1,0,-87,-85,44,48,54,190,0,0,0,170,169,168,171,1,785
9.031963825,1,-1,0,0,-1,0,0,1,0,-106,-126,249,38,51,190,0,0,0,170,169,168,171,1,786
9.042996884,1,-1,0,0,-1,0,0,1,0,-106,-126,249,38,51,190,0,0,0,170,169,169,170,1,787
9.05415988,1,-1,0,0,3,0,0,0,0,-106,-126,249,38,51,190,0,0,0,170,169,169,170,1,788
9.072209835,1,0,0,0,3,0,0,0,0,-97,-115,22,21,44,198,0,0,0,169,170,171,168,1,789
9.083106995,2,0,0,0,2,0,0,0,0,-18,72,121,0,32,215,0,0,0,169,170,171,168,1,790
9.093924999,2,0,0,0,2,0,0,0,0,-18,72,121,0,32,215,0,0,0,169,170,171,168,1,791
9.105077982,2,0,0,0,0,0,0,0,0,-18,72,121,0,32,215,0,0,0,170,169,169,170,1,792
9.122968912,2,0,0,0,0,0,0,0,0,70,-189,238,-23,16,237,0,0,0,170,169,169,170,1,793
9.134290934,2,0,0,-1,-1,0,0,0,0,-60,10,144,-47,-2,5,0,0,0,170,169,169,170,1,794
9.144967795,2,0,0,0,4,1,0,0,0,-60,10,144,-47,-2,5,0,0,0,171,168,168,171,1,795
9.156147957,2,0,0,0,4,1,0,0,0,-60,10,144,-47,-2,5,0,0,0,170,169,172,167,1,796
9.174956799,2,0,0,0,-2,0,0,0,0,23,29,137,-65,-23,28,0,0,0,170,169,168,171,1,797
9.188531876,2,0,0,0,-2,-1,0,0,0,80,68,53,-76,-43,43,0,0,0,170,169,168,171,1,798
9.197691918,2,0,0,0,-2,-1,0,0,0,80,68,53,-76,-43,43,0,0,0,169,170,168,171,1,799
9.208185911,2,0,0,0,-2,0,0,0,0,80,68,53,-76,-43,43,0,0,0,170,169,168,171,1,800
9.227126837,1,-1,0,3,5,0,0,0,0,33,-24,9,-75,-58,48,0,0,0,168,171,173,166,1,801
9.238004923,1,-1,0,1,6,0,0,0,0,-23,-123,103,-65,-64,42,0,0,0,168,171,173,166,1,802
9.248943806,1,-1,0,1,6,0,0,0,0,-23,-123,103,-65,-64,42,0,0,0,169,170,173,166,1,803
9.260033846,1,-1,0,0,0,-2,0,0,0,-23,-123,103,-65,-64,42,0,0,0,169,170,173,166,1,804
9.279150009,1,-1,0,-1,-3,0,0,0,0,-15,-4,81,-46,-62,26,0,0,0,170,169,167,172,1,805
9.290102005,1,-1,0,-2,-4,0,0,0,0,-29,133,110,-23,-53,4,0,0,0,170,169,167,172,1,806
9.300969839,1,-1,0,-2,-4,0,0,0,0,-29,133,110,-23,-53,4,0,0,0,171,168,167,172,1,807
9.312147856,1,-1,0,0,4,1,0,0,0,-29,133,110,-23,-53,4,0,0,0,170,169,172,167,1,808
9.32995987,1,-1,0,0,4,1,0,0,0,-62,104,75,0,-39,235,0,0,0,170,169,172,167,1,809
9.341104031,0,-1,0,0,2,1,0,0,0,21,124,168,17,-23,209,0,0,0,170,169,172,167,1,810
9.352020979,0,-1,0,0,-2,1,0,0,0,21,124,168,17,-23,209,0,0,0,170,169,171,168,1,811
9.3630929,0,-1,0,0,-2,1,0,0,0,21,124,168,17,-23,209,0,0,0,170,169,168,171,1,812
9.382122994,0,-1,0,0,1,0,0,0,0,-94,242,176,27,-7,186,0,0,0,169,170,171,168,1,813
9.393024922,0,-1,0,0,-2,0,0,0,0,2,100,184,27,10,168,0,0,0,169,170,171,168,1,814
9.404047013,0,-1,0,0,-2,0,0,0,0,2,100,184,27,10,168,0,0,0,170,169,168,171,1,815
9.415088892,0,-1,0,2,3,0,0,0,0,2,100,184,27,10,168,0,0,0,168,171,172,167,1,816
9.434064865,0,-1,0,0,0,0,0,0,0,-104,80,64,19,31,158,0,0,0,170,169,169,170,1,817
9.444957018,0,-1,0,0,3,0,0,0,0,-114,-33,93,4,54,157,0,0,0,170,169,169,170,1,818
9.45599103,0,-1,0,0,3,0,0,0,0,-114,-33,93,4,54,157,0,0,0,169,170,171,168,1,819
9.467025995,0,-1,0,0,-3,0,0,0,1,-114,-33,93,4,54,157,0,0,0,170,169,167,172,1,820
9.486006022,0,-1,0,0,-3,0,0,0,1,45,146,253,-12,78,163,0,0,0,170,169,167,172,1,821
9.495975971,1,-1,0,-1,-4,0,0,0,1,-12,-122,213,-30,100,177,0,0,0,170,169,167,172,1,822
9.507148981,1,-1,0,-1,-4,0,0,0,1,-12,-122,213,-30,100,177,0,0,0,170,169,167,172,1,823
9.51809001,1,-1,0,0,2,0,0,0,0,-12,-122,213,-30,100,177,0,0,0,170,169,171,168,1,824
9.537181854,1,-1,0,0,2,0,0,0,0,-53,-36,25,-46,115,197,0,0,0,170,169,171,168,1,825
9.54800582,2,-1,0,0,4,0,0,0,0,-83,-97,122,-57,119,221,0,0,0,170,169,171,168,1,826
9.559026957,2,-1,0,0,4,0,0,0,0,-83,-97,122,-57,119,221,0,0,0,169,170,172,167,1,827
9.569948912,1,-1,0,0,1,2,0,0,0,-83,-97,122,-57,119,221,0,0,0,169,170,171,168,1,828
9.588291884,2,-1,0,0,1,2,0,0,0,-5,-50,230,-62,111,244,0,0,0,169,170,171,168,1,829
9.599082947,2,-1,0,0,-1,0,0,0,0,-34,-126,128,-61,89,9,0,0,0,169,170,171,168,1,830
9.610015869,2,-1,0,0,1,1,0,0,0,-34,-126,128,-61,89,9,0,0,0,170,169,169,170,1,831
9.621076822,2,-1,0,0,1,1,0,0,0,-34,-126,128,-61,89,9,0,0,0,169,170,171,168,1,832
9.639997006,3,-2,0,-1,-6,-1,0,0,0,55,-1,176,-56,56,24,0,0,0,170,169,166,173,1,833
9.651062966,3,-2,0,-1,-4,-1,0,0,0,34,-30,84,-49,18,32,0,0,0,170,169,166,173,1,834
9.661967993,3,-2,0,-1,-4,-1,0,0,0,34,-30,84,-49,18,32,0,0,0,170,169,167,172,1,835
9.673023939,3,-2,0,-2,-1,0,0,0,0,34,-30,84,-49,18,32,0,0,0,171,168,169,170,1,836
9.690995932,3,-2,0,-2,-1,0,0,0,0,-75,196,197,-40,-20,32,0,0,0,171,168,169,170,1,837
9.702083826,3,-2,0,2,6,2,0,0,0,-150,176,116,-30,-52,24,0,0,0,171,168,169,170,1,838
9.71300292,3,-2,0,1,-2,0,0,0,0,-150,176,116,-30,-52,24,0,0,0,168,171,174,165,1,839
9.723984957,3,-2,0,1,-2,0,0,0,0,-150,176,116,-30,-52,24,0,0,0,169,170,168,171,1,840
9.743247032,3,-2,0,0,-3,1,0,0,0,40,119,141,-21,-71,10,0,0,0,170,169,167,172,1,841
9.754408837,2,-2,0,-1,-4,0,0,0,0,129,10,40,-14,-73,248,0,0,0,170,169,167,172,1,842
9.765465021,2,-2,0,-1,-4,0,0,0,0,129,10,40,-14,-73,248,0,0,0,170,169,167,172,1,843
9.776150942,2,-2,0,0,4,2,0,-1,0,129,10,40,-14,-73,248,0,0,0,170,169,167,172,1,844
9.794149876,2,-2,0,0,4,2,0,-1,0,52,21,240,-11,-55,230,0,0,0,169,170,172,167,1,845
9.805024862,2,-2,0,0,4,1,0,-1,0,150,68,174,-9,-22,213,0,0,0,169,170,172,167,1,846
9.816044808,2,-2,0,-1,-2,1,0,-1,0,150,68,174,-9,-22,213,0,0,0,170,169,172,167,1,847
9.828293801,2,-2,0,-1,-2,1,0,-1,0,150,68,174,-9,-22,213,0,0,0,171,168,168,171,1,848
9.846004009,2,-2,0,0,4,1,0,-1,0,111,-70,208,-8,18,199,0,0,0,169,170,172,167,1,849
9.857338906,2,-2,0,0,-2,0,0,0,0,8,113,207,-3,57,191,0,0,0,169,170,172,167,1,850
9.86824584,2,-2,0,0,-2,0,0,0,0,8,113,207,-3,57,191,0,0,0,170,169,168,171,1,851
9.879101992,2,-2,0,1,0,0,0,0,1,8,113,207,-3,57,191,0,0,0,170,169,168,171,1,852
9.897516012,2,-2,0,1,0,0,0,0,1,-47,-23,250,7,86,188,0,0,0,168,171,170,169,1,853
9.908160925,2,-2,0,0,1,0,0,0,1,-114,110,25,23,101,191,0,0,0,168,171,170,169,1,854
9.919035912,2,-2,0,-2,-2,0,0,0,1,-114,110,25,23,101,191,0,0,0,169,170,170,169,1,855
9.930008888,2,-2,0,-2,-2,0,0,0,1,-114,110,25,23,101,191,0,0,0,171,168,168,171,1,856
9.949004889,2,-2,0,0,2,1,0,1,1,83,43,110,40,100,197,0,0,0,169,170,171,168,1,857
9.960073948,3,-2,0,-1,-2,0,0,1,1,-10,-33,192,54,88,205,0,0,0,169,170,171,168,1,858
9.970958948,3,-2,0,-1,-2,0,0,1,1,-10,-33,192,54,88,205,0,0,0,170,169,168,171,1,859
9.982023001,3,-2,0,0,0,1,0,1,1,-10,-33,192,54,88,205,0,0,0,170,169,169,170,1,860
10.000239849,3,-2,0,0,0,1,0,1,1,-25,-165,6,60,68,213,0,0,0,170,169,169,170,1,861
10.011201859,3,-1,0,0,0,0,0,0,0,10,78,105,56,47,220,0,0,0,170,169,169,170,1,862
10.024211884,3,-1,0,0,0,0,0,0,0,10,78,105,56,47,220,0,0,0,170,169,170,169,1,863
10.033104897,3,-1,0,-1,-3,2,0,0,0,10,78,105,56,47,220,0,0,0,170,169,170,169,1,864
10.052183867,3,-1,0,-1,-3,2,0,0,0,2,146,104,44,27,223,0,0,0,170,169,167,172,1,865
10.062927008,4,-1,0,0,0,2,0,0,0,61,63,88,27,11,225,0,0,0,170,169,167,172,1,866
10.074090958,4,-1,0,0,1,1,0,0,0,61,63,88,27,11,225,0,0,0,170,169,170,169,1,867
10.085315943,4,-1,0,0,1,1,0,0,0,61,63,88,27,11,225,0,0,0,170,169,170,169,1,868
10.104084969,4,-1,0,-1,-4,0,0,0,0,1,-65,178,9,0,224,0,0,0,170,169,167,172,1,869
10.118266821,4,-1,0,0,-4,0,0,0,0,32,78,71,-5,-5,223,0,0,0,170,169,167,172,1,870
10.127643824,4,-1,0,0,-4,0,0,0,0,32,78,71,-5,-5,223,0,0,0,170,169,167,172,1,871
10.136974812,3,-1,0,0,-1,2,0,0,1,32,78,71,-5,-5,223,0,0,0,170,169,167,172,1,872
10.154977799,4,0,0,0,-1,2,0,0,1,24,67,57,-13,-3,218,0,0,0,170,169,169,170,1,873
10.166010857,3,0,0,1,7,3,-1,0,1,-18,-51,178,-15,4,213,0,0,0,170,169,169,170,1,874
10.17719388,3,0,0,0,-1,0,-1,-1,1,-18,-51,178,-15,4,213,0,0,0,169,170,174,165,1,875
10.18819499,3,0,0,0,-1,0,-1,-1,1,-18,-51,178,-15,4,213,0,0,0,170,169,168,171,1,876
10.207126856,3,0,0,0,-1,1,0,-1,1,34,-210,253,-10,15,207,0,0,0,170,169,169,170,1,877
10.218024969,3,0,0,0,-3,1,0,-1,1,-149,23,37,-1,26,205,0,0,0,170,169,169,170,1,878
10.228988886,3,0,0,0,-3,1,0,-1,1,-149,23,37,-1,26,205,0,0,0,170,169,167,172,1,879
10.240082026,3,0,0,0,5,2,0,0,1,-149,23,37,-1,26,205,0,0,0,169,170,173,166,1,880
10.25797987,3,0,0,0,5,2,0,0,1,-129,95,15,8,31,208,0,0,0,169,170,173,166,1,881
10.269130945,3,0,0,1,4,2,0,0,1,14,109,99,14,30,214,0,0,0,169,170,173,166,1,882
10.280011893,3,0,0,1,4,2,0,0,1,14,109,99,14,30,214,0,0,0,169,170,172,167,1,883
10.291158915,3,0,0,-1,-5,1,0,0,1,14,109,99,14,30,214,0,0,0,170,169,166,173,1,884
10.310019016,3,0,0,-1,-5,1,0,0,1,-39,-39,119,15,21,224,0,0,0,170,169,166,173,1,885
10.321051836,3,0,0,-1,-4,1,0,0,1,-81,36,245,7,10,235,0,0,0,170,169,166,173,1,886
10.33202982,3,0,0,-1,-4,1,0,0,1,-81,36,245,7,10,235,0,0,0,171,168,167,172,1,887
10.342916966,3,0,0,0,0,0,0,0,1,-81,36,245,7,10,235,0,0,0,170,169,169,170,1,888
10.36103487,3,0,0,0,0,0,0,0,1,-104,33,8,-6,0,242,0,0,0,170,169,169,170,1,889
10.372220993,3,0,0,1,1,0,0,0,1,-6,15,228,-24,-5,242,0,0,0,170,169,169,170,1,890
10.383152008,3,0,0,0,-2,1,0,0,1,-6,15,228,-24,-5,242,0,0,0,168,171,170,169,1,891
10.394266844,3,0,0,0,-2,1,0,0,1,-6,15,228,-24,-5,242,0,0,0,170,169,168,171,1,892
10.413616896,3,0,0,1,2,0,0,0,1,83,78,170,-43,-5,237,0,0,0,169,170,171,168,1,893
10.423967838,3,0,0,0,1,0,0,0,1,134,-65,224,-58,0,228,0,0,0,169,170,171,168,1,894
10.434953928,3,0,0,0,1,0,0,0,1,134,-65,224,-58,0,228,0,0,0,170,169,170,169,1,895
10.446051836,3,0,0,-1,-2,0,0,0,1,134,-65,224,-58,0,228,0,0,0,170,169,170,169,1,896
10.465147019,3,-1,0,0,0,0,0,-1,1,-66,-22,54,-67,9,217,0,0,0,170,169,169,170,1,897
10.476131916,3,-1,0,0,-2,0,0,-1,0,33,-81,130,-66,19,209,0,0,0,170,169,169,170,1,898
10.487159968,3,-1,0,0,-2,0,0,-1,0,33,-81,130,-66,19,209,0,0,0,170,169,168,171,1,899
10.499768973,3,-1,0,2,2,0,0,0,0,33,-81,130,-66,19,209,0,0,0,168,171,171,168,1,900
10.51601696,3,-1,0,2,2,0,0,0,0,-19,1,217,-55,26,204,0,0,0,168,171,171,168,1,901
10.526974917,3,-1,0,2,1,0,0,0,0,-4,-87,194,-36,28,206,0,0,0,168,171,171,168,1,902
10.538003922,3,-1,0,2,1,0,0,0,0,-4,-87,194,-36,28,206,0,0,0,168,171,171,168,1,903
10.548930884,3,-1,0,0,0,0,0,0,0,-4,-87,194,-36,28,206,0,0,0,169,170,170,169,1,904
10.567173958,3,-1,0,0,0,0,0,0,0,46,64,220,-14,23,215,0,0,0,169,170,170,169,1,905
10.578020811,3,-2,0,0,-3,0,0,0,0,-98,132,88,7,12,229,0,0,0,169,170,170,169,1,906
10.588958025,3,-2,0,0,0,1,0,0,0,-98,132,88,7,12,229,0,0,0,170,169,167,172,1,907
10.600129843,3,-2,0,0,0,1,0,0,0,-98,132,88,7,12,229,0,0,0,169,170,170,169,1,908
10.619079828,3,-2,0,0,1,0,0,0,0,-46,105,112,23,0,245,0,0,0,170,169,170,169,1,909
10.630061865,3,-1,0,0,2,1,0,0,0,-25,54,149,31,-13,3,0,0,0,170,169,170,169,1,910
10.64099288,3,-1,0,0,2,1,0,0,0,-25,54,149,31,-13,3,0,0,0,169,170,171,168,1,911
10.651948929,3,-1,0,-1,-2,0,0,0,0,-25,54,149,31,-13,3,0,0,0,169,170,171,168,1,912
10.670085907,3,-1,0,-1,-2,0,0,0,0,-123,131,141,30,-18,14,0,0,0,170,169,168,171,1,913
10.680989027,3,-1,0,0,-1,1,0,0,0,73,-8,208,20,-14,21,0,0,0,170,169,168,171,1,914
10.692184925,3,-1,0,0,-1,1,0,0,0,73,-8,208,20,-14,21,0,0,0,170,169,168,171,1,915
10.703007937,3,-1,0,1,4,1,0,0,0,73,-8,208,20,-14,21,0,0,0,169,170,172,167,1,916
10.721930027,3,-1,0,1,4,1,0,0,0,18,43,20,4,0,22,0,0,0,169,170,172,167,1,917
10.732961893,3,-1,0,1,5,1,0,0,0,-85,34,101,-13,20,18,0,0,0,169,170,172,167,1,918
10.744025946,3,-1,0,0,-3,1,0,0,0,-85,34,101,-13,20,18,0,0,0,169,170,173,166,1,919
10.754958868,3,-1,0,0,-3,1,0,0,0,-85,34,101,-13,20,18,0,0,0,169,170,167,172,1,920
10.772985935,3,-1,0,1,6,1,0,0,0,93,17,135,-30,44,7,0,0,0,168,171,173,166,1,921
10.784232855,3,-1,0,-1,-4,0,0,0,0,-32,147,194,-41,64,247,0,0,0,168,171,173,166,1,922
10.795111895,3,-1,0,-1,-4,0,0,0,0,-32,147,194,-41,64,247,0,0,0,170,169,167,172,1,923
10.805976868,3,-1,0,0,-1,-2,0,0,1,-32,147,194,-41,64,247,0,0,0,170,169,167,172,1,924
10.824991942,3,-1,0,0,-1,-2,0,0,1,-34,-6,83,-45,77,229,0,0,0,170,169,169,170,1,925
10.836081982,3,-1,0,0,0,-2,0,1,1,-69,49,241,-42,82,209,0,0,0,170,169,169,170,1,926
10.846968889,3,-1,0,-1,-3,0,0,1,1,-69,49,241,-42,82,209,0,0,0,170,169,170,169,1,927
10.857926846,3,-1,0,-1,-3,0,0,1,1,-69,49,241,-42,82,209,0,0,0,171,168,167,172,1,928
10.8769629,3,-1,0,0,0,-1,0,1,1,-103,-142,50,-33,79,193,0,0,0,169,170,170,169,1,929
10.888015986,4,-1,0,0,4,0,0,0,0,-62,-4,181,-22,71,182,0,0,0,169,170,170,169,1,930
10.899252892,4,-1,0,0,4,0,0,0,0,-62,-4,181,-22,71,182,0,0,0,169,170,172,167,1,931
10.910034895,3,-1,0,0,-3,0,0,0,0,-62,-4,181,-22,71,182,0,0,0,170,169,167,172,1,932
10.928056956,4,-2,0,0,-3,0,0,0,0,15,34,14,-14,58,178,0,0,0,170,169,167,172,1,933
10.939989805,4,-2,0,-1,-3,0,0,0,0,47,-13,105,-11,42,180,0,0,0,170,169,167,172,1,934
10.950271845,4,-2,0,0,1,0,0,0,0,47,-13,105,-11,42,180,0,0,0,170,169,168,171,1,935
10.961099863,4,-2,0,0,1,0,0,0,0,47,-13,105,-11,42,180,0,0,0,170,169,170,169,1,936
10.98009491,4,-2,0,0,2,0,0,-1,0,25,36,163,-14,25,185,0,0,0,169,170,171,168,1,937
10.991008997,4,-2,0,0,2,0,0,-1,0,-126,57,145,-20,9,193,0,0,0,169,170,171,168,1,938
11.00205493,4,-2,0,0,2,0,0,-1,0,-126,57,145,-20,9,193,0,0,0,170,169,171,168,1,939
11.013032913,4,-2,0,-1,-2,0,0,-1,0,-126,57,145,-20,9,193,0,0,0,171,168,168,171,1,940
11.031171799,4,-2,0,-1,-2,0,0,-1,0,-178,-60,64,-27,-4,203,0,0,0,171,168,168,171,1,941
11.042037964,4,-2,0,0,-1,0,0,0,0,2,-15,115,-32,-12,213,0,0,0,171,168,168,171,1,942
11.052966833,4,-2,0,0,-1,0,0,0,0,2,-15,115,-32,-12,213,0,0,0,170,169,168,171,1,943
11.068200827,4,-2,0,1,1,0,0,0,0,2,-15,115,-32,-12,213,0,0,0,170,169,168,171,1,944
11.082048893,4,-2,0,1,1,0,0,0,0,-27,-19,13,-36,-14,223,0,0,0,168,171,170,169,1,945
11.093763828,4,-2,0,0,0,0,0,0,0,84,31,198,-40,-12,232,0,0,0,168,171,170,169,1,946
11.104074001,4,-2,0,0,-1,0,0,0,0,84,31,198,-40,-12,232,0,0,0,170,169,170,169,1,947
11.115166903,4,-2,0,0,-1,0,0,0,0,84,31,198,-40,-12,232,0,0,0,170,169,170,169,1,948
11.134034872,4,-2,0,0,1,0,0,0,0,-25,17,128,-43,-8,242,0,0,0,169,170,170,169,1,949
11.144963026,4,-2,0,0,0,0,0,0,0,-72,-147,233,-46,-3,251,0,0,0,169,170,170,169,1,950
11.156004906,4,-2,0,0,0,0,0,0,0,-72,-147,233,-46,-3,251,0,0,0,170,169,169,170,1,951
11.166946888,4,-2,0,0,0,0,0,0,0,-72,-147,233,-46,-3,251,0,0,0,170,169,170,169,1,952
11.185033798,4,-2,0,0,0,0,0,0,0,-3,-160,15,-45,0,1,0,0,0,170,169,170,169,1,953
11.196122885,4,-3,0,0,1,1,0,0,0,111,-8,255,-42,1,4,0,0,0,170,169,170,169,1,954
11.207476855,4,-3,0,0,-1,0,0,0,0,111,-8,255,-42,1,4,0,0,0,169,170,171,168,1,955
11.220018864,4,-3,0,0,-1,0,0,0,0,111,-8,255,-42,1,4,0,0,0,170,169,168,171,1,956
11.237375975,3,-3,0,1,5,0,0,0,0,44,0,147,-36,-3,2,0,0,0,169,170,173,166,1,957
11.248054028,3,-3,0,0,-1,0,0,0,0,9,-165,136,-27,-12,251,0,0,0,169,170,173,166,1,958
11.258975983,3,-3,0,0,-1,0,0,0,0,9,-165,136,-27,-12,251,0,0,0,169,170,169,170,1,959
11.27006197,3,-3,0,0,0,-1,0,0,0,9,-165,136,-27,-12,251,0,0,0,169,170,169,170,1,960
11.28804493,3,-3,0,0,0,-1,0,0,0,-183,-65,249,-16,-26,242,0,0,0,169,170,169,170,1,961
11.299026966,3,-3,0,0,-2,0,0,0,0,-133,-38,68,-4,-42,231,0,0,0,169,170,169,170,1,962
11.309950829,3,-3,0,0,-2,0,0,0,0,-133,-38,68,-4,-42,231,0,0,0,170,169,168,171,1,963
11.321020842,3,-3,0,0,4,0,0,0,0,-133,-38,68,-4,-42,231,0,0,0,170,169,168,171,1,964
11.339956999,3,-3,0,-1,0,-1,0,0,0,116,-33,214,5,-58,220,0,0,0,170,169,169,170,1,965
11.351146937,2,-3,0,0,3,1,0,0,0,48,-191,5,10,-71,211,0,0,0,170,169,169,170,1,966
11.36213398,2,-3,0,0,3,1,0,0,0,48,-191,5,10,-71,211,0,0,0,170,169,172,167,1,967
11.374647856,2,-3,0,0,-3,0,0,0,0,48,-191,5,10,-71,211,0,0,0,170,169,167,172,1,968
11.390975952,2,-3,0,0,-3,0,0,0,0,-21,0,61,8,-80,206,0,0,0,170,169,167,172,1,969
11.404765845,2,-3,0,0,-4,0,0,0,0,-121,115,148,1,-85,206,0,0,0,170,169,167,172,1,970
11.413075924,2,-3,0,0,3,0,0,0,0,-121,115,148,1,-85,206,0,0,0,170,169,167,172,1,971
11.423969984,2,-3,0,0,3,0,0,0,0,-121,115,148,1,-85,206,0,0,0,169,170,172,167,1,972
11.443190813,1,-3,0,0,0,-1,0,0,0,-87,22,73,-8,-85,214,0,0,0,169,170,170,169,1,973
11.454031944,1,-2,0,0,1,0,0,0,0,37,-119,99,-17,-80,227,0,0,0,169,170,170,169,1,974
11.464957953,1,-2,0,0,1,0,0,0,0,37,-119,99,-17,-80,227,0,0,0,170,169,171,168,1,975
11.476016998,1,-2,0,-1,-5,0,0,0,0,37,-119,99,-17,-80,227,0,0,0,170,169,166,173,1,976
11.494109869,0,-2,0,-1,-5,0,0,0,0,-92,-54,228,-25,-70,246,0,0,0,170,169,166,173,1,977
11.504916907,0,-3,0,0,0,0,0,0,0,-34,60,48,-32,-56,10,0,0,0,170,169,166,173,1,978
11.516037941,0,-2,0,2,2,-1,0,0,0,-34,60,48,-32,-56,10,0,0,0,169,170,170,169,1,979
11.53234601,0,-2,0,2,2,-1,0,0,0,-34,60,48,-32,-56,10,0,0,0,168,171,171,168,1,980
11.545991898,0,-3,0,0,-2,0,0,0,0,-11,137,89,-37,-41,27,0,0,0,170,169,168,171,1,981
11.557312012,0,-3,0,0,-1,0,0,0,0,31,238,157,-41,-25,38,0,0,0,170,169,168,171,1,982
11.568137884,0,-3,0,0,-1,0,0,0,0,31,238,157,-41,-25,38,0,0,0,170,169,169,170,1,983
11.579095841,0,-3,0,-1,0,0,0,0,0,31,238,157,-41,-25,38,0,0,0,170,169,169,170,1,984
11.598039866,0,-3,0,-1,0,0,0,0,0,33,20,46,-43,-11,40,0,0,0,170,169,170,169,1,985
11.60874486,0,-3,0,-1,-2,-2,0,0,0,-9,30,103,-42,3,35,0,0,0,170,169,170,169,1,986
11.620420933,0,-3,0,-1,-2,0,0,0,0,-9,30,103,-42,3,35,0,0,0,170,169,168,171,1,987
11.63001585,0,-3,0,-1,-2,0,0,0,0,-9,30,103,-42,3,35,0,0,0,170,169,168,171,1,988
11.652238846,0,-3,0,-1,0,0,0,0,0,-80,-177,3,-39,21,22,0,0,0,170,169,169,170,1,989
11.660385847,0,-3,0,0,1,0,0,0,0,-58,-1,7,-32,39,3,0,0,0,170,169,169,170,1,990
11.67105484,0,-3,0,0,1,0,0,0,0,-58,-1,7,-32,39,3,0,0,0,170,169,171,168,1,991
11.682034016,0,-3,0,0,1,-1,0,0,0,-58,-1,7,-32,39,3,0,0,0,169,170,171,168,1,992
11.701035977,0,-3,0,0,1,-1,0,0,0,20,-10,92,-24,55,234,0,0,0,169,170,171,168,1,993
11.712032795,0,-3,0,1,-1,-1,0,0,0,-11,45,235,-16,63,209,0,0,0,169,170,171,168,1,994
11.723116875,0,-3,0,1,-1,-1,0,0,0,-11,45,235,-16,63,209,0,0,0,168,171,169,170,1,995
11.734013796,0,-3,0,0,-2,0,0,0,0,-11,45,235,-16,63,209,0,0,0,170,169,168,171,1,996
11.75193882,0,-3,0,0,-2,0,0,0,0,64,39,24,-11,61,186,0,0,0,170,169,168,171,1,997
11.763036013,0,-3,0,-1,-1,0,-1,0,0,-7,175,56,-8,50,170,0,0,0,170,169,168,171,1,998
11.773216963,0,-3,0,-2,-3,-2,-1,0,0,-7,175,56,-8,50,170,0,0,0,170,169,169,170,1,999
11.784084797,0,-3,0,-2,-3,-2,-1,0,0,-7,175,56,-8,50,170,0,0,0,171,168,168,171,1,1000
11.808331967,0,-3,0,0,0,0,0,0,0,21,-23,116,-7,33,163,0,0,0,170,169,170,169,1,1001
11.814072848,0,-3,0,0,3,1,0,0,0,-33,29,118,-7,17,166,0,0,0,170,169,170,169,1,1002
11.825050831,0,-3,0,0,3,1,0,0,0,-33,29,118,-7,17,166,0,0,0,169,170,172,167,1,1003
11.835953951,0,-3,0,1,-3,-1,0,0,0,-33,29,118,-7,17,166,0,0,0,169,170,172,167,1,1004
11.853951931,1,-3,0,1,-3,-1,0,0,0,-13,-20,85,-7,6,177,0,0,0,169,170,168,171,1,1005
11.865007878,1,-3,0,0,-4,-1,0,0,0,147,176,111,-5,3,192,0,0,0,169,170,168,171,1,1006
11.876294851,1,-3,0,0,2,0,0,0,0,147,176,111,-5,3,192,0,0,0,169,170,167,172,1,1007
11.887100935,1,-3,0,0,2,0,0,0,0,147,176,111,-5,3,192,0,0,0,169,170,171,168,1,1008
11.90602088,1,-3,0,0,1,0,0,0,0,49,178,3,-1,7,209,0,0,0,170,169,170,169,1,1009
11.917273998,1,-3,0,0,1,0,0,0,0,-76,129,189,2,17,223,0,0,0,170,169,170,169,1,1010
11.928080797,1,-3,0,0,1,0,0,0,0,-76,129,189,2,17,223,0,0,0,170,169,171,168,1,1011
11.938898802,1,-3,0,-1,-4,-1,0,0,0,-76,129,189,2,17,223,0,0,0,170,169,167,172,1,1012
11.95913887,1,-3,0,-1,-4,-1,0,0,0,86,-53,148,8,32,237,0,0,0,170,169,167,172,1,1013
11.968142986,1,-3,0,0,0,0,0,0,0,-20,136,55,15,50,248,0,0,0,170,169,167,172,1,1014
11.979146004,1,-3,0,2,4,1,0,0,0,-20,136,55,15,50,248,0,0,0,170,169,169,170,1,1015
11.989997864,1,-3,0,2,4,1,0,0,0,-20,136,55,15,50,248,0,0,0,168,171,172,167,1,1016
12.008935929,1,-3,0,0,-3,0,0,0,0,-6,-24,22,21,69,3,0,0,0,169,170,167,172,1,1017
12.02007699,1,-3,0,0,-2,0,0,0,0,56,119,104,27,85,13,0,0,0,169,170,167,172,1,1018
12.03113699,1,-3,0,0,-2,0,0,0,0,56,119,104,27,85,13,0,0,0,169,170,168,171,1,1019
12.041991949,1,-2,0,-1,-1,0,0,0,0,56,119,104,27,85,13,0,0,0,170,169,169,170,1,1020
12.060025931,2,-2,0,-1,-1,0,0,0,0,59,27,236,30,96,22,0,0,0,170,169,169,170,1,1021
12.071014881,2,-2,0,-1,-2,0,0,0,0,-3,-49,26,30,99,29,0,0,0,170,169,169,170,1,1022
12.082080841,2,-2,0,-1,-2,0,0,0,0,-3,-49,26,30,99,29,0,0,0,170,169,168,171,1,1023
12.093016863,2,-2,0,0,-1,0,0,0,0,-3,-49,26,30,99,29,0,0,0,170,169,168,171,1,1024
12.1119349,2,-2,0,0,-1,0,0,0,0,5,-144,253,29,95,31,0,0,0,170,169,169,170,1,1025
12.122937918,2,-2,0,0,0,0,0,0,0,-42,-156,162,26,84,27,0,0,0,170,169,169,170,1,1026
12.134045839,2,-2,0,0,-1,0,0,0,0,-42,-156,162,26,84,27,0,0,0,170,169,169,170,1,1027
12.144932032,2,-2,0,0,-1,0,0,0,0,-42,-156,162,26,84,27,0,0,0,170,169,169,170,1,1028
12.16404295,3,-2,0,1,0,0,0,-1,0,173,39,69,23,66,18,0,0,0,169,170,169,170,1,1029
12.17502594,3,-2,0,0,0,-1,0,-1,0,62,146,153,21,42,5,0,0,0,169,170,169,170,1,1030
12.186031819,3,-2,0,0,0,-1,0,-1,0,62,146,153,21,42,5,0,0,0,169,170,170,169,1,1031
12.197168827,3,-2,0,0,-1,0,0,-1,0,62,146,153,21,42,5,0,0,0,169,170,170,169,1,1032
12.215138912,3,-2,0,0,-1,0,0,-1,0,45,23,23,19,14,245,0,0,0,170,169,169,170,1,1033
12.225986004,3,-1,0,0,0,0,0,-1,0,103,-54,138,20,-12,226,0,0,0,170,169,169,170,1,1034
12.237250805,3,-1,0,0,-1,-3,0,-1,0,103,-54,138,20,-12,226,0,0,0,170,169,169,170,1,1035
12.24808693,3,-1,0,0,-1,-3,0,-1,0,103,-54,138,20,-12,226,0,0,0,170,169,168,171,1,1036
12.267052889,3,-1,0,0,-1,0,0,-1,0,-27,8,222,25,-33,208,0,0,0,170,169,169,170,1,1037
12.278198004,3,-1,0,1,2,1,0,0,0,-65,-178,29,32,-43,194,0,0,0,170,169,169,170,1,1038
12.290122032,3,-1,0,1,2,1,0,0,0,-65,-178,29,32,-43,194,0,0,0,169,170,171,168,1,1039
12.300143004,3,-1,0,0,-3,0,0,0,0,-65,-178,29,32,-43,194,0,0,0,170,169,167,172,1,1040
12.318223,3,-1,0,0,-3,0,0,0,0,29,70,79,41,-43,188,0,0,0,170,169,167,172,1,1041
12.330416918,2,-1,0,0,-3,-2,0,0,0,-62,-182,255,48,-36,192,0,0,0,170,169,167,172,1,1042
12.339962959,2,-1,0,0,-3,-2,0,0,0,-62,-182,255,48,-36,192,0,0,0,169,170,167,172,1,1043
12.350979805,2,-1,0,0,3,2,0,0,0,-62,-182,255,48,-36,192,0,0,0,169,170,167,172,1,1044
12.368964911,2,0,0,0,3,2,0,0,0,-65,-10,239,51,-26,206,0,0,0,169,170,172,167,1,1045
12.380033016,2,0,0,0,2,0,0,0,0,-92,-113,101,47,-19,227,0,0,0,169,170,172,167,1,1046
12.391086817,2,0,0,0,-4,-1,0,0,0,-92,-113,101,47,-19,227,0,0,0,170,169,171,168,1,1047
12.402076006,2,0,0,0,-4,-1,0,0,0,-92,-113,101,47,-19,227,0,0,0,170,169,167,172,1,1048
12.421123028,2,0,0,0,2,2,0,0,0,-122,26,76,36,-17,250,0,0,0,170,169,171,168,1,1049
12.432284832,2,0,0,0,0,0,0,0,0,-43,-140,83,18,-21,14,0,0,0,170,169,171,168,1,1050
12.443033934,2,0,0,0,0,0,0,0,0,-43,-140,83,18,-21,14,0,0,0,170,169,169,170,1,1051
12.454145909,2,0,0,0,2,0,0,0,0,-43,-140,83,18,-21,14,0,0,0,169,170,171,168,1,1052
12.472934008,2,0,0,0,2,0,0,0,0,-2,-28,66,-4,-31,26,0,0,0,169,170,171,168,1,1053
12.484416008,1,0,0,0,-3,-1,0,0,0,46,37,168,-29,-44,30,0,0,0,169,170,171,168,1,1054
12.495046854,1,0,0,0,-3,-1,0,0,0,46,37,168,-29,-44,30,0,0,0,170,169,167,172,1,1055
12.505961895,1,0,0,-1,-1,0,0,0,0,46,37,168,-29,-44,30,0,0,0,170,169,169,170,1,1056
12.524261952,1,0,0,-1,-1,0,0,0,0,110,121,228,-51,-56,28,0,0,0,170,169,169,170,1,1057
12.53508687,1,0,0,-1,-1,0,0,0,0,70,-125,171,-67,-64,21,0,0,0,170,169,169,170,1,1058
12.546027899,1,0,0,0,-2,-1,0,0,0,70,-125,171,-67,-64,21,0,0,0,170,169,169,170,1,1059
12.557076931,1,0,0,0,-2,-1,0,0,0,70,-125,171,-67,-64,21,0,0,0,169,170,168,171,1,1060
12.576140881,1,0,0,-1,-3,0,0,0,0,-46,-116,16,-72,-66,13,0,0,0,170,169,168,171,1,1061
12.587154865,0,0,0,0,-2,-2,0,0,0,45,-100,179,-64,-60,5,0,0,0,170,169,168,171,1,1062
12.600133896,0,0,0,0,-2,-2,0,0,0,45,-100,179,-64,-60,5,0,0,0,169,170,168,171,1,1063
12.609076977,0,0,0,0,5,1,0,0,0,45,-100,179,-64,-60,5,0,0,0,169,170,168,171,1,1064
12.627105951,0,0,0,0,5,1,0,0,0,-60,-1,106,-45,-50,251,0,0,0,169,170,173,166,1,1065
12.638021946,0,-1,0,0,5,2,0,-1,0,-157,-190,252,-19,-39,242,0,0,0,169,170,173,166,1,1066
12.649173022,0,-1,0,0,-1,-2,0,-1,0,-157,-190,252,-19,-39,242,0,0,0,169,170,173,166,1,1067
12.660074949,0,-1,0,0,-1,-2,0,-1,0,-157,-190,252,-19,-39,242,0,0,0,169,170,169,170,1,1068
12.67898798,0,-1,0,1,4,1,0,-1,0,-152,84,247,5,-31,231,0,0,0,169,170,172,167,1,1069
12.690042973,0,-1,0,0,-4,0,0,-1,0,-67,18,243,23,-29,221,0,0,0,169,170,172,167,1,1070
12.701056957,0,-1,0,0,-4,0,0,-1,0,-67,18,243,23,-29,221,0,0,0,170,169,167,172,1,1071
12.71211195,0,-1,0,0,0,0,0,0,0,-67,18,243,23,-29,221,0,0,0,170,169,167,172,1,1072
12.731019974,0,-1,0,0,0,0,0,0,0,89,74,188,29,-33,211,0,0,0,169,170,169,170,1,1073
12.742082834,0,-1,0,0,1,1,0,0,0,100,-89,151,20,-39,203,0,0,0,169,170,169,170,1,1074
12.756062985,0,-1,0,0,1,1,0,0,0,100,-89,151,20,-39,203,0,0,0,169,170,171,168,1,1075
12.763072968,0,-1,0,-2,1,0,0,1,0,100,-89,151,20,-39,203,0,0,0,171,168,171,168,1,1076
12.782085896,0,-1,0,1,4,0,0,1,0,-12,-169,141,0,-44,199,0,0,0,169,170,172,167,1,1077
12.79318285,0,-1,0,0,0,0,0,1,0,4,-66,93,-23,-46,199,0,0,0,169,170,172,167,1,1078
12.80408001,0,0,0,1,3,0,0,1,0,4,-66,93,-23,-46,199,0,0,0,169,170,170,169,1,1079
12.815052033,0,0,0,1,3,0,0,1,0,4,-66,93,-23,-46,199,0,0,0,168,171,172,167,1,1080
12.834163904,0,-1,0,0,-1,0,0,1,0,-40,62,192,-42,-43,203,0,0,0,169,170,168,171,1,1081
12.844915867,-1,-1,0,0,-2,0,0,1,0,12,61,181,-51,-40,212,0,0,0,169,170,168,171,1,1082
12.856089831,-1,-1,0,0,-2,0,0,1,0,12,61,181,-51,-40,212,0,0,0,170,169,168,171,1,1083
12.867393971,-1,-1,0,-1,-5,0,0,1,0,12,61,181,-51,-40,212,0,0,0,170,169,168,171,1,1084
12.886106968,-1,-1,0,-1,-5,0,0,1,0,31,93,93,-49,-36,224,0,0,0,170,169,166,173,1,1085
12.897071839,-1,-1,0,-1,1,1,0,1,0,-132,170,252,-38,-33,239,0,0,0,170,169,166,173,1,1086
12.9083848,-1,-1,0,-1,2,0,0,0,0,-132,170,252,-38,-33,239,0,0,0,170,169,170,169,1,1087
12.919096947,-1,-1,0,-1,2,0,0,0,0,-132,170,252,-38,-33,239,0,0,0,170,169,171,168,1,1088
12.937978983,-1,-1,0,0,-1,0,0,0,0,-101,94,50,-22,-27,253,0,0,0,170,169,169,170,1,1089
12.949090004,-1,-1,0,0,-2,0,0,0,0,-61,103,92,-7,-16,9,0,0,0,170,169,169,170,1,1090
12.960063935,-1,-1,0,0,-2,0,0,0,0,-61,103,92,-7,-16,9,0,0,0,169,170,168,171,1,1091
12.970927954,-1,-1,0,1,0,0,0,0,0,-61,103,92,-7,-16,9,0,0,0,169,170,170,169,1,1092
12.98912096,-1,-1,0,1,0,0,0,0,0,-115,-136,196,2,0,16,0,0,0,169,170,170,169,1,1093
13.000571966,-1,-1,0,0,3,0,0,0,0,28,-82,226,3,22,19,0,0,0,169,170,170,169,1,1094
13.010969877,-1,-1,0,0,3,0,0,0,0,28,-82,226,3,22,19,0,0,0,169,170,172,167,1,1095
13.022180796,-1,-1,0,-1,-3,-1,0,-1,0,28,-82,226,3,22,19,0,0,0,170,169,168,171,1,1096
13.040160895,-1,-1,0,-1,-3,-1,0,-1,0,-27,-29,95,-5,45,15,0,0,0,170,169,168,171,1,1097
13.050987959,-1,-1,0,-2,-3,-1,0,-1,0,19,131,131,-21,62,5,0,0,0,170,169,168,171,1,1098
13.064092875,-1,-1,0,-1,-2,0,0,0,0,19,131,131,-21,62,5,0,0,0,171,168,168,171,1,1099
13.073113918,-1,-1,0,-1,-2,0,0,0,0,19,131,131,-21,62,5,0,0,0,170,169,168,171,1,1100
13.092064858,-1,-1,0,0,-1,-2,0,0,0,-10,-16,213,-39,70,246,0,0,0,169,170,169,170,1,1101
13.103084803,-1,-1,0,1,6,1,0,0,0,-43,126,25,-54,65,225,0,0,0,169,170,169,170,1,1102
13.114091873,-1,-1,0,1,6,1,0,0,0,-43,126,25,-54,65,225,0,0,0,168,171,173,166,1,1103
13.12548399,-1,-1,0,0,-2,0,0,0,0,-43,126,25,-54,65,225,0,0,0,168,171,173,166,1,1104
13.142940998,0,-1,0,0,-2,0,0,0,0,-18,165,13,-63,52,204,0,0,0,170,169,168,171,1,1105
13.154112816,0,-2,0,-1,-4,0,0,0,0,8,237,223,-63,35,185,0,0,0,170,169,168,171,1,1106
13.165349007,0,-2,0,0,4,1,0,0,0,8,237,223,-63,35,185,0,0,0,170,169,167,172,1,1107
13.176039934,0,-2,0,0,4,1,0,0,0,8,237,223,-63,35,185,0,0,0,170,169,172,167,1,1108
13.195077896,0,-2,0,-1,-4,0,0,0,0,-33,-12,29,-55,22,172,0,0,0,171,168,167,172,1,1109
13.206429959,0,-2,0,0,0,-1,0,0,0,13,-91,251,-43,19,168,0,0,0,171,168,167,172,1,1110
13.21704793,0,-2,0,0,0,-1,0,0,0,13,-91,251,-43,19,168,0,0,0,170,169,170,169,1,1111
13.228035927,0,-2,0,0,3,0,0,0,0,13,-91,251,-43,19,168,0,0,0,170,169,170,169,1,1112
13.24703598,0,-2,0,0,3,0,0,0,0,3,74,58,-29,27,172,0,0,0,170,169,172,167,1,1113
13.258033991,0,-2,0,0,2,0,0,0,0,-22,169,64,-16,43,182,0,0,0,170,169,172,167,1,1114
13.269188881,0,-2,0,0,2,0,0,0,0,-22,169,64,-16,43,182,0,0,0,169,170,171,168,1,1115
13.280241013,0,-2,0,2,2,0,0,0,0,-22,169,64,-16,43,182,0,0,0,169,170,171,168,1,1116
13.299098969,0,-3,0,0,1,0,0,0,0,27,84,148,-5,62,193,0,0,0,170,169,170,169,1,1117
13.310246945,0,-3,0,0,-3,0,0,0,0,-24,100,13,0,78,206,0,0,0,170,169,170,169,1,1118
13.32097292,0,-3,0,0,-3,0,0,0,0,-24,100,13,0,78,206,0,0,0,170,169,167,172,1,1119
13.333035946,0,-3,0,0,0,0,0,0,0,-24,100,13,0,78,206,0,0,0,170,169,169,170,1,1120
13.349915981,1,-3,0,0,0,0,0,0,0,8,30,131,3,88,218,0,0,0,170,169,169,170,1,1121
13.361121893,1,-3,0,0,1,-1,0,0,0,-58,142,120,3,93,230,0,0,0,170,169,169,170,1,1122
13.372102022,1,-3,0,0,1,-1,0,0,0,-58,142,120,3,93,230,0,0,0,169,170,171,168,1,1123
13.382943869,1,-2,0,0,0,0,0,1,0,-58,142,120,3,93,230,0,0,0,170,169,170,169,1,1124
13.401072979,1,-2,0,0,0,0,0,1,0,-173,2,121,1,93,241,0,0,0,170,169,170,169,1,1125
13.412228823,2,-2,0,0,0,0,0,1,0,-31,25,229,-2,90,253,0,0,0,170,169,170,169,1,1126
13.423080921,2,-2,0,0,0,0,0,1,0,-31,25,229,-2,90,253,0,0,0,170,169,169,170,1,1127
13.436312914,2,-2,0,0,0,0,0,1,0,-31,25,229,-2,90,253,0,0,0,169,170,170,169,1,1128
13.453048945,2,-2,0,0,0,0,0,0,0,58,110,102,-7,86,8,0,0,0,169,170,170,169,1,1129
13.463980913,2,-2,0,0,1,0,0,0,0,40,237,63,-16,80,18,0,0,0,169,170,170,169,1,1130
13.475041866,2,-2,0,0,1,0,0,0,0,40,237,63,-16,80,18,0,0,0,170,169,170,169,1,1131
13.486222029,2,-2,0,0,0,0,0,0,0,40,237,63,-16,80,18,0,0,0,170,169,170,169,1,1132
13.504120827,3,-2,0,0,0,0,0,0,0,28,102,64,-25,75,25,0,0,0,170,169,169,170,1,1133
13.515259981,3,-2,0,0,1,0,0,0,0,64,86,156,-33,71,28,0,0,0,170,169,169,170,1,1134
13.526041985,3,-2,0,0,1,0,0,0,0,64,86,156,-33,71,28,0,0,0,170,169,170,169,1,1135
13.537196875,3,-2,0,1,4,1,0,0,0,64,86,156,-33,71,28,0,0,0,169,170,172,167,1,1136
13.556012869,3,-2,0,1,4,1,0,0,0,41,-83,213,-37,72,26,0,0,0,169,170,172,167,1,1137
13.567104817,3,-2,0,0,2,0,0,0,0,19,90,31,-34,77,20,0,0,0,169,170,172,167,1,1138
13.578095913,3,-2,0,0,0,0,0,0,0,19,90,31,-34,77,20,0,0,0,169,170,171,168,1,1139
13.591320992,3,-2,0,0,0,0,0,0,0,19,90,31,-34,77,20,0,0,0,169,170,169,170,1,1140
13.607118845,3,-2,0,0,2,1,0,0,0,-51,197,103,-24,84,7,0,0,0,170,169,171,168,1,1141
13.618008852,4,-2,0,-1,-3,-1,0,1,0,21,-41,5,-9,90,246,0,0,0,170,169,171,168,1,1142
13.629110813,4,-2,0,-1,-3,-1,0,1,0,21,-41,5,-9,90,246,0,0,0,170,169,167,172,1,1143
13.640045881,4,-2,0,0,2,0,0,1,0,21,-41,5,-9,90,246,0,0,0,170,169,167,172,1,1144
13.659118891,4,-2,0,0,2,0,0,1,0,9,-89,224,7,93,228,0,0,0,170,169,171,168,1,1145
13.671368838,4,-2,0,1,2,0,0,1,0,-167,-99,86,22,91,211,0,0,0,170,169,171,168,1,1146
13.681180954,4,-2,0,0,-3,0,0,1,0,-167,-99,86,22,91,211,0,0,0,169,170,171,168,1,1147
13.692006827,4,-2,0,0,-3,0,0,1,0,-167,-99,86,22,91,211,0,0,0,169,170,168,171,1,1148
13.713636875,5,-2,0,1,3,0,0,1,0,-70,132,232,31,84,198,0,0,0,169,170,172,167,1,1149
13.721911907,5,-2,0,0,0,-1,0,1,0,126,170,248,32,71,192,0,0,0,169,170,172,167,1,1150
13.732961893,5,-2,0,0,0,-1,0,1,0,126,170,248,32,71,192,0,0,0,170,169,170,169,1,1151
13.744093895,5,-2,0,0,3,1,0,0,0,126,170,248,32,71,192,0,0,0,169,170,172,167,1,1152
13.761976958,5,-2,0,0,3,1,0,0,0,0,66,12,24,53,195,0,0,0,169,170,172,167,1,1153
13.773104906,5,-2,0,0,-3,0,0,0,0,33,-72,253,10,35,205,0,0,0,169,170,172,167,1,1154
13.784057856,5,-2,0,0,-3,0,0,0,0,33,-72,253,10,35,205,0,0,0,170,169,167,172,1,1155
13.795084953,5,-2,0,0,-3,0,0,0,0,33,-72,253,10,35,205,0,0,0,170,169,168,171,1,1156
13.813107968,6,-2,0,0,-3,0,0,0,0,-13,166,82,-5,21,220,0,0,0,170,169,168,171,1,1157
13.824127913,6,-2,0,0,3,0,0,0,0,-45,-28,111,-19,14,237,0,0,0,170,169,168,171,1,1158
13.836299896,6,-2,0,0,0,0,0,0,0,-45,-28,111,-19,14,237,0,0,0,169,170,171,168,1,1159
13.845928908,6,-2,0,0,0,0,0,0,0,-45,-28,111,-19,14,237,0,0,0,169,170,169,170,1,1160
13.865042925,6,-2,0,0,-1,0,0,0,0,3,74,138,-26,15,255,0,0,0,170,169,169,170,1,1161
13.876339913,6,-2,0,0,0,0,0,0,0,-88,-58,1,-27,22,14,0,0,0,170,169,169,170,1,1162
13.887176991,6,-2,0,0,0,0,0,0,0,-88,-58,1,-27,22,14,0,0,0,170,169,169,170,1,1163
13.898077011,5,-1,0,0,2,0,0,0,0,-88,-58,1,-27,22,14,0,0,0,170,169,169,170,1,1164
13.916208029,6,-2,0,0,2,0,0,0,0,-19,55,129,-23,33,25,0,0,0,169,170,171,168,1,1165
13.927381993,6,-2,0,0,0,0,0,0,0,53,-35,175,-16,43,32,0,0,0,169,170,171,168,1,1166
13.938030005,5,-2,0,0,-2,0,0,0,0,53,-35,175,-16,43,32,0,0,0,169,170,170,169,1,1167
13.949029923,5,-2,0,0,-2,0,0,0,0,53,-35,175,-16,43,32,0,0,0,170,169,168,171,1,1168
13.96820283,6,-2,0,0,0,-1,0,0,0,-56,-60,199,-11,50,36,0,0,0,170,169,170,169,1,1169
13.97912693,6,-2,0,0,0,0,0,0,0,-51,-168,212,-7,50,37,0,0,0,170,169,170,169,1,1170
13.990051031,6,-2,0,0,0,0,0,0,0,-51,-168,212,-7,50,37,0,0,0,170,169,170,169,1,1171
14.001020909,5,-2,0,0,3,1,0,0,0,-51,-168,212,-7,50,37,0,0,0,170,169,172,167,1,1172
14.019168854,6,-2,0,0,3,1,0,0,0,34,91,76,-7,43,37,0,0,0,170,169,172,167,1,1173
14.030035019,6,-2,0,0,3,2,0,0,0,-2,58,17,-9,29,38,0,0,0,170,169,172,167,1,1174
14.04100585,6,-2,0,0,3,2,0,0,0,-2,58,17,-9,29,38,0,0,0,169,170,172,167,1,1175
14.051986933,6,-2,0,-1,-3,-1,0,0,0,-2,58,17,-9,29,38,0,0,0,170,169,167,172,1,1176
14.070974827,6,-2,0,-1,-3,-1,0,0,0,48,148,55,-12,11,39,0,0,0,170,169,167,172,1,1177
14.082036019,6,-2,0,-1,-5,-1,0,0,0,7,83,212,-16,-7,38,0,0,0,170,169,167,172,1,1178
14.093144894,5,-2,0,0,2,2,0,0,0,7,83,212,-16,-7,38,0,0,0,170,169,166,173,1,1179
14.104033947,5,-2,0,0,2,2,0,0,0,7,83,212,-16,-7,38,0,0,0,170,169,171,168,1,1180
14.123001814,5,-2,0,0,-3,-1,0,0,0,-60,234,255,-17,-20,33,0,0,0,170,169,167,172,1,1181
14.133917809,5,-2,0,0,3,0,0,0,0,15,101,58,-16,-23,24,0,0,0,170,169,167,172,1,1182
14.144912958,5,-2,0,0,3,0,0,0,0,15,101,58,-16,-23,24,0,0,0,169,170,172,167,1,1183
14.155982018,5,-2,0,0,3,1,0,0,0,15,101,58,-16,-23,24,0,0,0,169,170,172,167,1,1184
14.174077988,5,-2,0,0,3,1,0,0,0,27,166,207,-12,-12,10,0,0,0,169,170,171,168,1,1185
14.185123921,5,-2,0,0,0,1,0,0,0,132,5,183,-7,11,249,0,0,0,169,170,171,168,1,1186
14.196015835,5,-2,0,0,3,0,0,0,0,132,5,183,-7,11,249,0,0,0,170,169,169,170,1,1187
14.207355023,5,-2,0,0,3,0,0,0,0,132,5,183,-7,11,249,0,0,0,169,170,171,168,1,1188
14.226001024,5,-2,0,0,-5,-2,0,0,0,-42,35,187,-1,45,233,0,0,0,170,169,166,173,1,1189
14.237025976,5,-2,0,0,-4,-1,0,0,0,-69,54,244,4,81,221,0,0,0,170,169,166,173,1,1190
14.24800396,5,-2,0,0,-4,-1,0,0,0,-69,54,244,4,81,221,0,0,0,170,169,167,172,1,1191
14.260123968,5,-2,0,0,-1,0,0,0,0,-69,54,244,4,81,221,0,0,0,170,169,167,172,1,1192
14.277383805,5,-2,0,0,-1,0,0,0,0,-57,43,71,10,112,213,0,0,0,170,169,169,170,1,1193
14.288100958,5,-1,0,1,7,2,0,0,0,106,1,25,15,132,210,0,0,0,170,169,169,170,1,1194
14.299038887,5,-1,0,1,7,2,0,0,0,106,1,25,15,132,210,0,0,0,168,171,174,165,1,1195
14.310094834,5,-1,0,0,-2,-1,0,0,0,106,1,25,15,132,210,0,0,0,169,170,168,171,1,1196
14.328197003,6,-1,0,0,-2,-1,0,0,0,-10,-156,162,17,137,211,0,0,0,169,170,168,171,1,1197
14.338922024,6,-1,0,-1,-3,1,0,0,0,61,-85,193,16,126,217,0,0,0,169,170,168,171,1,1198
14.350104809,6,-1,0,0,5,1,0,0,0,61,-85,193,16,126,217,0,0,0,170,169,167,172,1,1199
14.361099005,6,-1,0,0,5,1,0,0,0,61,-85,193,16,126,217,0,0,0,169,170,173,166,1,1200
14.379966021,6,-1,0,0,-2,-2,0,0,0,92,-37,93,13,103,225,0,0,0,169,170,168,171,1,1201
14.392144919,7,-1,0,0,5,-2,0,0,0,-38,-86,118,9,69,234,0,0,0,169,170,168,171,1,1202
14.402115822,7,-1,0,0,5,-2,0,0,0,-38,-86,118,9,69,234,0,0,0,170,169,173,166,1,1203
14.413154841,7,-1,0,-1,-3,0,0,0,0,-38,-86,118,9,69,234,0,0,0,170,169,173,166,1,1204
14.43114996,7,-1,0,-1,-3,0,0,0,0,-138,-183,191,8,29,242,0,0,0,171,168,167,172,1,1205
14.442286015,7,-1,0,-1,-4,0,0,0,0,-148,-47,213,8,-10,250,0,0,0,171,168,167,172,1,1206
14.453339815,7,-1,0,0,2,1,0,0,0,-148,-47,213,8,-10,250,0,0,0,170,169,167,172,1,1207
14.46429801,7,-1,0,0,2,1,0,0,0,-148,-47,213,8,-10,250,0,0,0,169,170,171,168,1,1208
14.484117985,7,-1,0,-1,-3,0,0,0,0,-84,-71,73,9,-47,1,0,0,0,170,169,167,172,1,1209
14.495164871,7,-1,0,1,1,0,0,0,0,81,25,93,8,-77,7,0,0,0,170,169,167,172,1,1210
14.506627798,7,-1,0,1,1,0,0,0,0,81,25,93,8,-77,7,0,0,0,169,170,170,169,1,1211
14.517189026,6,-1,0,0,0,0,0,0,0,81,25,93,8,-77,7,0,0,0,169,170,170,169,1,1212
14.535070896,6,-1,0,0,0,0,0,0,0,-94,-95,118,1,-98,12,0,0,0,170,169,170,169,1,1213
14.546221972,6,-1,0,0,1,0,0,0,0,-34,-63,119,-11,-109,16,0,0,0,170,169,170,169,1,1214
14.557092905,6,-1,0,0,1,0,0,0,0,-34,-63,119,-11,-109,16,0,0,0,169,170,170,169,1,1215
14.56799388,6,-1,0,0,0,0,0,0,0,-34,-63,119,-11,-109,16,0,0,0,170,169,169,170,1,1216
14.587193012,5,-1,0,0,-1,0,0,0,0,44,-40,10,-26,-109,17,0,0,0,170,169,169,170,1,1217
14.598089934,5,-1,0,0,-1,-1,0,0,0,-46,17,114,-42,-101,15,0,0,0,170,169,169,170,1,1218
14.608896017,5,-1,0,0,-1,-1,0,0,0,-46,17,114,-42,-101,15,0,0,0,170,169,169,170,1,1219
14.620100975,5,-1,0,1,0,0,0,0,0,-46,17,114,-42,-101,15,0,0,0,169,170,170,169,1,1220
14.63803196,4,-1,0,1,0,0,0,0,0,113,24,172,-53,-87,9,0,0,0,169,170,170,169,1,1221
14.648974896,4,-1,0,0,0,0,0,0,0,158,150,152,-58,-70,0,0,0,0,169,170,170,169,1,1222
14.660069943,4,-1,0,0,0,0,0,0,0,158,150,152,-58,-70,0,0,0,0,170,169,170,169,1,1223
14.67215085,4,-1,0,-1,1,0,0,0,0,158,150,152,-58,-70,0,0,0,0,170,169,170,169,1,1224
14.689082861,3,-1,0,-1,1,0,0,0,0,141,-1,242,-54,-52,245,0,0,0,170,169,170,169,1,1225
14.700224877,3,-1,0,0,-2,0,0,0,0,40,91,65,-40,-33,235,0,0,0,170,169,170,169,1,1226
14.71100092,3,-1,0,0,-2,0,0,0,0,40,91,65,-40,-33,235,0,0,0,170,169,168,171,1,1227
14.727650881,3,-1,0,0,0,-1,0,0,0,40,91,65,-40,-33,235,0,0,0,169,170,169,170,1,1228
14.740917921,3,-1,0,0,0,-1,0,0,0,-6,99,215,-17,-15,227,0,0,0,169,170,169,170,1,1229
14.750957966,3,-1,0,1,5,0,0,0,0,4,0,141,11,4,222,0,0,0,169,170,169,170,1,1230
14.76212287,3,-1,0,0,-1,-1,0,0,0,4,0,141,11,4,222,0,0,0,169,170,173,166,1,1231
14.773125887,3,-1,0,0,-1,-1,0,0,0,4,0,141,11,4,222,0,0,0,170,169,169,170,1,1232
14.793012858,2,-1,0,0,-1,0,0,0,0,6,-151,166,41,23,220,0,0,0,170,169,169,170,1,1233
14.803011894,2,-1,0,-1,-4,-1,0,0,0,-127,-77,245,67,40,221,0,0,0,170,169,169,170,1,1234
14.814059019,2,-1,0,-1,-4,-1,0,0,0,-127,-77,245,67,40,221,0,0,0,170,169,167,172,1,1235
14.825022936,2,-1,0,0,4,1,0,0,0,-127,-77,245,67,40,221,0,0,0,169,170,172,167,1,1236
14.843985796,2,-1,0,0,0,-1,0,0,0,-66,-159,250,83,51,222,0,0,0,170,169,169,170,1,1237
14.855016947,2,-1,0,0,-1,-1,0,0,0,65,-78,83,85,53,222,0,0,0,170,169,169,170,1,1238
14.866094828,2,-1,0,0,-1,-1,0,0,0,65,-78,83,85,53,222,0,0,0,169,170,169,170,1,1239
14.878407002,2,-1,0,0,-3,1,0,0,0,65,-78,83,85,53,222,0,0,0,170,169,168,171,1,1240
14.896018028,3,0,0,0,-3,1,0,0,0,77,-210,19,72,43,220,0,0,0,170,169,168,171,1,1241
14.907367945,3,0,0,0,-4,0,0,0,0,39,-53,130,49,20,217,0,0,0,170,169,168,171,1,1242
14.918121815,3,0,0,0,-4,0,0,0,0,39,-53,130,49,20,217,0,0,0,170,169,167,172,1,1243
14.929211855,3,0,0,0,1,0,0,0,0,39,-53,130,49,20,217,0,0,0,169,170,170,169,1,1244
14.947225809,3,0,0,0,1,0,0,0,0,121,101,91,21,-11,212,0,0,0,169,170,170,169,1,1245
14.958021879,3,0,0,1,2,-1,0,0,0,15,19,250,-2,-48,210,0,0,0,169,170,170,169,1,1246
14.972190857,3,0,0,1,2,-1,0,0,0,15,19,250,-2,-48,210,0,0,0,169,170,171,168,1,1247
14.980024815,3,0,0,0,1,0,0,0,0,15,19,250,-2,-48,210,0,0,0,170,169,170,169,1,1248
15.000141859,2,0,0,0,1,0,0,0,0,144,-75,74,-17,-81,212,0,0,0,170,169,170,169,1,1249
15.008993864,2,0,0,0,0,0,0,-1,0,45,24,98,-20,-104,220,0,0,0,170,169,170,169,1,1250
15.020074845,2,0,0,1,1,0,0,-1,0,45,24,98,-20,-104,220,0,0,0,169,170,169,170,1,1251
15.030995846,2,0,0,1,1,0,0,-1,0,45,24,98,-20,-104,220,0,0,0,168,171,171,168,1,1252
15.050226927,2,0,0,0,0,0,0,-1,0,-50,-47,70,-9,-112,231,0,0,0,170,169,169,170,1,1253
15.061095953,1,0,0,-1,-1,0,0,0,0,-54,-20,68,10,-104,243,0,0,0,170,169,169,170,1,1254
15.072026968,1,0,0,-1,-1,0,0,0,0,-54,-20,68,10,-104,243,0,0,0,170,169,169,170,1,1255
15.083030939,1,0,0,-1,3,0,0,0,0,-54,-20,68,10,-104,243,0,0,0,170,169,172,167,1,1256
15.102174998,1,0,0,0,0,0,0,0,0,-115,42,174,34,-84,249,0,0,0,170,169,169,170,1,1257
15.113282919,0,0,0,0,0,0,0,0,0,9,134,2,53,-57,250,0,0,0,170,169,169,170,1,1258
15.124068976,0,0,0,0,0,0,0,0,0,9,134,2,53,-57,250,0,0,0,169,170,170,169,1,1259
15.134958983,0,0,0,0,0,0,0,0,0,9,134,2,53,-57,250,0,0,0,170,169,169,170,1,1260
15.153044939,0,0,0,0,0,0,0,0,0,6,222,47,62,-29,247,0,0,0,170,169,169,170,1,1261
15.164074898,0,0,0,0,0,0,0,1,0,-41,167,102,59,-3,241,0,0,0,170,169,169,170,1,1262
15.175169945,0,0,0,0,0,0,0,1,0,-41,167,102,59,-3,241,0,0,0,170,169,170,169,1,1263
15.186048031,0,0,0,0,0,-2,0,0,0,-41,167,102,59,-3,241,0,0,0,170,169,170,169,1,1264
15.205070973,0,0,0,0,0,-2,0,0,0,-21,4,195,43,20,236,0,0,0,170,169,169,170,1,1265
15.216302872,0,0,0,0,3,2,0,0,0,-22,-54,189,20,42,235,0,0,0,170,169,169,170,1,1266
15.227129936,0,0,0,0,3,2,0,0,0,-22,-54,189,20,42,235,0,0,0,170,169,171,168,1,1267
15.238025904,0,0,0,0,-1,0,0,0,0,-22,-54,189,20,42,235,0,0,0,170,169,169,170,1,1268
15.255985975,0,0,0,0,-1,0,0,0,0,2,-181,249,-5,63,238,0,0,0,170,169,169,170,1,1269
15.267117977,0,1,0,-1,-5,-1,0,0,0,-88,-92,58,-27,80,245,0,0,0,170,169,169,170,1,1270
15.278174877,0,0,0,0,3,1,0,0,0,-88,-92,58,-27,80,245,0,0,0,170,169,166,173,1,1271
15.289124012,0,0,0,0,3,1,0,0,0,-88,-92,58,-27,80,245,0,0,0,170,169,172,167,1,1272
15.308151007,0,0,0,0,3,0,0,0,0,-27,-45,65,-42,88,252,0,0,0,169,170,171,168,1,1273
15.318949938,0,0,0,0,4,1,0,0,0,122,91,200,-50,83,2,0,0,0,169,170,171,168,1,1274
15.330097914,0,0,0,0,4,1,0,0,0,122,91,200,-50,83,2,0,0,0,170,169,172,167,1,1275
15.341152907,0,0,0,0,-4,-2,0,0,0,122,91,200,-50,83,2,0,0,0,170,169,172,167,1,1276
15.3601439,1,0,0,0,2,0,0,0,0,175,18,190,-50,64,3,0,0,0,169,170,171,168,1,1277
15.375118971,1,0,0,0,-5,-2,0,0,0,-23,148,241,-43,34,255,0,0,0,169,170,171,168,1,1278
15.38193202,1,0,0,0,0,0,0,0,0,-23,148,241,-43,34,255,0,0,0,170,169,166,173,1,1279
15.39299798,1,0,0,0,0,0,0,0,0,-137,26,134,-30,2,246,0,0,0,170,169,169,170,1,1280
15.412206888,1,0,0,0,-4,-2,0,0,0,-137,26,134,-30,2,246,0,0,0,170,169,167,172,1,1281
15.424152851,1,0,0,0,5,1,0,0,0,-24,46,109,-13,-23,231,0,0,0,170,169,167,172,1,1282
15.433982849,1,0,0,0,5,1,0,0,0,-24,46,109,-13,-23,231,0,0,0,169,170,173,166,1,1283
15.44502902,1,0,0,-1,-1,0,0,0,0,-24,46,109,-13,-23,231,0,0,0,169,170,173,166,1,1284
15.463037014,1,0,0,-1,-1,0,0,0,0,-113,-49,17,5,-36,215,0,0,0,171,168,169,170,1,1285
15.473963976,1,0,0,0,-2,0,0,0,0,-22,142,2,20,-35,199,0,0,0,171,168,169,170,1,1286
15.485131025,1,0,0,0,-2,0,0,0,0,-22,142,2,20,-35,199,0,0,0,170,169,168,171,1,1287
15.496085882,1,0,0,0,-3,-1,0,0,0,-22,142,2,20,-35,199,0,0,0,169,170,167,172,1,1288
15.515020848,1,0,0,0,-3,-1,0,0,0,-23,-71,1,26,-21,185,0,0,0,169,170,167,172,1,1289
15.525069952,1,0,0,0,-2,-1,0,-1,0,-45,-105,155,23,0,176,0,0,0,169,170,167,172,1,1290
15.536221028,1,0,0,-1,-1,0,0,-1,0,-45,-105,155,23,0,176,0,0,0,170,169,168,171,1,1291
15.546980858,1,0,0,-1,-1,0,0,-1,0,-45,-105,155,23,0,176,0,0,0,171,168,168,171,1,1292
15.566988945,1,0,0,0,0,-1,0,-1,0,-51,-196,220,10,22,174,0,0,0,170,169,170,169,1,1293
15.57797885,1,0,0,0,4,0,0,-1,0,-144,-91,71,-8,38,178,0,0,0,170,169,170,169,1,1294
15.588953018,1,0,0,0,4,0,0,-1,0,-144,-91,71,-8,38,178,0,0,0,169,170,172,167,1,1295
15.600100994,1,0,0,2,1,-2,0,-1,0,-144,-91,71,-8,38,178,0,0,0,169,170,172,167,1,1296
15.618129969,1,0,0,2,2,0,0,-1,0,12,-199,97,-29,43,188,0,0,0,168,171,171,168,1,1297
15.629194021,1,0,0,0,-2,0,0,-1,0,80,-61,248,-47,32,202,0,0,0,168,171,171,168,1,1298
15.644166947,1,0,0,0,0,0,0,0,0,80,-61,248,-47,32,202,0,0,0,169,170,168,171,1,1299
15.6510849,1,0,0,0,0,0,0,0,0,-77,-73,247,-61,6,218,0,0,0,170,169,169,170,1,1300
15.671016932,1,0,0,-2,-2,0,0,0,0,-77,-73,247,-61,6,218,0,0,0,171,168,168,171,1,1301
15.682078839,1,0,0,-1,3,1,0,0,-1,143,131,29,-68,-29,235,0,0,0,171,168,168,171,1,1302
15.693030834,1,0,0,-1,3,1,0,0,-1,143,131,29,-68,-29,235,0,0,0,170,169,172,167,1,1303
15.704210997,1,0,0,-2,0,0,0,0,-1,143,131,29,-68,-29,235,0,0,0,170,169,172,167,1,1304
15.722023964,1,0,0,-2,0,0,0,0,-1,214,-6,104,-67,-68,252,0,0,0,171,168,169,170,1,1305
15.733942986,1,0,0,0,-3,-1,0,0,-1,40,-3,238,-57,-100,12,0,0,0,171,168,169,170,1,1306
15.744035959,1,0,0,0,-3,-1,0,0,-1,40,-3,238,-57,-100,12,0,0,0,169,170,167,172,1,1307
15.754992008,1,0,0,1,3,1,0,0,0,40,-3,238,-57,-100,12,0,0,0,169,170,167,172,1,1308
15.773039818,0,0,0,1,3,1,0,0,0,-25,-140,214,-37,-118,24,0,0,0,169,170,172,167,1,1309
15.784044981,0,-1,0,0,2,0,0,0,0,9,93,83,-11,-118,32,0,0,0,169,170,172,167,1,1310
15.800357819,0,-1,0,0,-3,-1,0,0,0,9,93,83,-11,-118,32,0,0,0,169,170,171,168,1,1311
15.806509018,0,-1,0,0,-3,-1,0,0,0,9,93,83,-11,-118,32,0,0,0,170,169,167,172,1,1312
15.82711792,0,-1,0,0,2,0,0,0,0,-90,-145,99,18,-103,37,0,0,0,170,169,171,168,1,1313
15.836125851,0,-1,0,-1,0,1,0,0,0,-133,100,191,46,-77,37,0,0,0,170,169,171,168,1,1314
15.847141981,0,-1,0,-1,0,1,0,0,0,-133,100,191,46,-77,37,0,0,0,170,169,170,169,1,1315
15.85796094,0,-1,0,0,4,0,0,0,0,-133,100,191,46,-77,37,0,0,0,170,169,170,169,1,1316
15.877103806,0,-1,0,0,-4,-2,0,0,0,-71,-36,144,65,-47,35,0,0,0,170,169,167,172,1,1317
15.888051987,0,0,0,1,4,2,0,0,0,34,24,6,70,-21,32,0,0,0,170,169,167,172,1,1318
15.898998976,0,0,0,0,-1,0,0,0,0,34,24,6,70,-21,32,0,0,0,168,171,172,167,1,1319
15.910066843,0,0,0,0,-1,0,0,0,0,-12,-175,45,59,-1,27,0,0,0,170,169,168,171,1,1320
15.929062844,0,0,0,1,5,1,0,0,0,-12,-175,45,59,-1,27,0,0,0,169,170,173,166,1,1321
15.940174818,0,0,0,-1,-2,0,0,1,0,-48,-134,155,35,9,20,0,0,0,169,170,173,166,1,1322
15.952134848,0,0,0,-1,-2,0,0,1,0,-48,-134,155,35,9,20,0,0,0,171,168,168,171,1,1323
15.962054968,0,0,0,0,-1,-2,0,1,0,-48,-134,155,35,9,20,0,0,0,171,168,168,171,1,1324
15.980996847,-1,0,0,0,-1,-2,0,1,0,-31,17,149,5,10,10,0,0,0,170,169,168,171,1,1325
15.991956949,-1,0,0,0,-2,-1,0,1,0,-36,215,7,-25,3,0,0,0,0,170,169,168,171,1,1326
16.002938986,-1,0,0,0,-2,-1,0,1,0,-36,215,7,-25,3,0,0,0,0,170,169,168,171,1,1327
16.013897896,0,0,0,1,3,1,0,1,0,-36,215,7,-25,3,0,0,0,0,169,170,172,167,1,1328
16.032559872,-1,0,0,1,3,1,0,1,0,29,127,28,-49,-10,244,0,0,0,169,170,172,167,1,1329
16.042966843,-1,0,0,0,4,1,0,0,0,61,160,173,-63,-24,233,0,0,0,169,170,172,167,1,1330
16.053958893,-1,0,0,0,0,-1,0,0,0,61,160,173,-63,-24,233,0,0,0,169,170,172,167,1,1331
16.06504488,-1,0,0,0,0,-1,0,0,0,61,160,173,-63,-24,233,0,0,0,169,170,170,169,1,1332
16.083979845,-1,0,0,0,4,0,0,0,0,6,-39,144,-66,-33,223,0,0,0,169,170,172,167,1,1333
16.094981909,-1,0,0,-1,-3,0,0,0,0,-57,-15,193,-59,-29,215,0,0,0,169,170,172,167,1,1334
16.10609889,-1,0,0,-1,-3,0,0,0,0,-57,-15,193,-59,-29,215,0,0,0,171,168,168,171,1,1335
16.1172719,-1,0,0,1,2,0,0,0,0,-57,-15,193,-59,-29,215,0,0,0,169,170,171,168,1,1336
16.136183024,-1,0,0,-1,-2,0,0,0,0,2,-58,253,-45,-14,210,0,0,0,170,169,168,171,1,1337
16.147169829,-1,-1,0,1,1,0,0,0,0,-41,47,164,-26,9,207,0,0,0,170,169,168,171,1,1338
16.157984019,-1,-1,0,1,1,0,0,0,0,-41,47,164,-26,9,207,0,0,0,169,170,170,169,1,1339
16.169847012,-1,0,0,-1,-2,0,0,1,0,-41,47,164,-26,9,207,0,0,0,170,169,168,171,1,1340
16.187072993,-1,-1,0,-1,-2,0,0,1,0,-7,-61,200,-8,35,205,0,0,0,170,169,168,171,1,1341
16.198316813,-1,-1,0,0,0,0,0,1,0,-90,58,147,5,54,203,0,0,0,170,169,168,171,1,1342
16.209306002,-1,-1,0,0,0,0,0,1,0,-90,58,147,5,54,203,0,0,0,170,169,169,170,1,1343
16.220095873,-1,-1,0,1,1,0,0,1,0,-90,58,147,5,54,203,0,0,0,170,169,169,170,1,1344
16.238080025,0,-1,0,1,1,0,0,1,0,-109,-61,200,13,63,201,0,0,0,169,170,170,169,1,1345
16.249019861,0,-1,0,0,0,0,0,0,0,45,-6,142,12,59,199,0,0,0,169,170,170,169,1,1346
16.260022879,0,-1,0,0,0,0,0,0,0,45,-6,142,12,59,199,0,0,0,170,169,170,169,1,1347
16.270958901,0,-1,0,0,-1,0,0,0,0,45,-6,142,12,59,199,0,0,0,169,170,169,170,1,1348
16.289174795,0,-1,0,0,-1,0,0,0,0,-29,-111,228,4,46,196,0,0,0,169,170,169,170,1,1349
16.300067902,0,-1,0,0,-1,-1,0,0,0,-133,-127,101,-9,27,193,0,0,0,169,170,169,170,1,1350
16.311028004,0,-1,0,0,3,2,0,0,0,-133,-127,101,-9,27,193,0,0,0,169,170,168,171,1,1351
16.324388981,0,-1,0,0,3,2,0,0,0,-133,-127,101,-9,27,193,0,0,0,169,170,172,167,1,1352
16.343366862,0,-1,0,0,-2,0,0,0,0,-123,-123,45,-25,4,189,0,0,0,170,169,168,171,1,1353
16.352906943,0,-1,0,0,3,-1,0,0,0,-188,30,81,-40,-18,188,0,0,0,170,169,168,171,1,1354
16.363960028,0,-1,0,0,3,-1,0,0,0,-188,30,81,-40,-18,188,0,0,0,169,170,172,167,1,1355
16.375029803,0,-1,0,0,-2,0,0,0,0,-188,30,81,-40,-18,188,0,0,0,169,170,172,167,1,1356
16.393016815,0,-1,0,0,3,0,0,0,0,31,-43,162,-53,-39,192,0,0,0,169,170,172,167,1,1357
16.404278994,0,-1,0,0,-4,0,0,0,0,85,-56,210,-65,-58,202,0,0,0,169,170,172,167,1,1358
16.415424824,0,-1,0,0,0,0,0,0,0,85,-56,210,-65,-58,202,0,0,0,170,169,167,172,1,1359
16.425953865,0,-1,0,0,0,0,0,0,0,4,-20,59,-74,-71,218,0,0,0,169,170,169,170,1,1360
16.445922852,0,-1,0,0,-3,-1,0,0,0,4,-20,59,-74,-71,218,0,0,0,170,169,167,172,1,1361
16.457000971,0,-2,0,0,0,0,0,0,0,-40,23,145,-80,-78,237,0,0,0,170,169,167,172,1,1362
16.467057944,0,-2,0,0,0,0,0,0,0,-40,23,145,-80,-78,237,0,0,0,170,169,170,169,1,1363
16.478149891,0,-2,0,0,3,0,0,0,0,-40,23,145,-80,-78,237,0,0,0,169,170,171,168,1,1364
16.497027874,0,-2,0,0,3,0,0,0,0,-23,94,149,-80,-78,255,0,0,0,169,170,171,168,1,1365
16.508339882,-1,-2,0,0,2,0,0,0,0,-101,-105,208,-73,-71,14,0,0,0,169,170,171,168,1,1366
16.51896286,-1,-2,0,0,2,0,0,0,0,-101,-105,208,-73,-71,14,0,0,0,169,170,171,168,1,1367
16.52995491,-1,-2,0,0,-3,0,0,0,0,-101,-105,208,-73,-71,14,0,0,0,170,169,167,172,1,1368
16.548492909,-1,-2,0,0,-3,0,0,0,0,71,-159,224,-59,-59,24,0,0,0,170,169,167,172,1,1369
16.559106827,-1,-3,0,-1,-5,0,0,0,0,70,-8,15,-43,-43,28,0,0,0,170,169,167,172,1,1370
16.570079804,-1,-2,0,-1,0,0,0,0,0,70,-8,15,-43,-43,28,0,0,0,170,169,166,173,1,1371
16.582579851,-1,-2,0,-1,0,0,0,0,0,70,-8,15,-43,-43,28,0,0,0,170,169,169,170,1,1372
16.600046873,-1,-3,0,-1,-2,0,0,0,0,41,16,236,-27,-27,26,0,0,0,170,169,168,171,1,1373
16.611059904,-1,-3,0,0,4,0,0,0,0,23,61,146,-12,-16,19,0,0,0,170,169,168,171,1,1374
16.622045994,-1,-3,0,0,4,0,0,0,0,23,61,146,-12,-16,19,0,0,0,169,170,172,167,1,1375
16.632957936,-1,-3,0,0,0,0,0,0,0,23,61,146,-12,-16,19,0,0,0,170,169,170,169,1,1376
16.652098894,-1,-3,0,1,4,0,0,0,0,22,78,240,0,-11,7,0,0,0,169,170,172,167,1,1377
16.663076878,-1,-3,0,0,-1,0,0,-1,0,25,114,129,9,-11,250,0,0,0,169,170,172,167,1,1378
16.673933983,-1,-3,0,0,-1,0,0,-1,0,25,114,129,9,-11,250,0,0,0,169,170,169,170,1,1379
16.685096979,-1,-3,0,1,1,-1,0,0,0,25,114,129,9,-11,250,0,0,0,169,170,170,169,1,1380
16.704278946,-1,-3,0,1,1,-1,0,0,0,99,78,252,17,-11,238,0,0,0,169,170,170,169,1,1381
16.714237929,-1,-3,0,-1,0,1,0,0,0,-52,-14,118,24,-10,228,0,0,0,169,170,170,169,1,1382
16.724977017,-1,-3,0,-1,0,1,0,0,0,-52,-14,118,24,-10,228,0,0,0,170,169,169,170,1,1383
16.736057997,-1,-3,0,-1,-1,0,0,0,0,-52,-14,118,24,-10,228,0,0,0,171,168,169,170,1,1384
16.754921913,-2,-3,0,-1,-1,0,0,0,0,126,-66,74,30,-3,223,0,0,0,171,168,169,170,1,1385
16.765072823,-1,-2,0,0,-2,-2,0,0,0,93,101,43,34,9,224,0,0,0,171,168,169,170,1,1386
16.776155949,-1,-2,0,0,-2,-2,0,0,0,93,101,43,34,9,224,0,0,0,170,169,168,171,1,1387
16.787094832,-1,-2,0,1,3,2,0,1,0,93,101,43,34,9,224,0,0,0,168,171,171,168,1,1388
16.805985928,-1,-2,0,1,3,2,0,1,0,-17,-14,32,37,23,229,0,0,0,168,171,171,168,1,1389
16.817358971,-1,-2,0,0,1,0,0,1,0,14,61,122,40,37,237,0,0,0,168,171,171,168,1,1390
16.828019858,-1,-2,0,0,-3,-2,0,0,0,14,61,122,40,37,237,0,0,0,170,169,170,169,1,1391
16.839195967,-1,-2,0,0,-3,-2,0,0,0,14,61,122,40,37,237,0,0,0,169,170,167,172,1,1392
16.85807991,-1,-2,0,0,3,1,0,0,0,53,-54,12,43,46,247,0,0,0,169,170,172,167,1,1393
16.869100809,-1,-2,0,0,-5,-2,0,0,0,54,79,73,45,49,255,0,0,0,169,170,172,167,1,1394
16.880023956,-1,-2,0,0,-5,-2,0,0,0,54,79,73,45,49,255,0,0,0,170,169,166,173,1,1395
16.891120911,-1,-1,0,0,1,0,0,0,0,54,79,73,45,49,255,0,0,0,170,169,166,173,1,1396
16.909117937,-1,-1,0,-1,-5,-2,0,0,0,131,77,83,47,47,5,0,0,0,171,168,166,173,1,1397
16.920146942,-1,-1,0,0,4,0,0,0,0,-121,235,125,47,41,8,0,0,0,171,168,166,173,1,1398
16.931011915,-1,-1,0,0,4,0,0,0,0,-121,235,125,47,41,8,0,0,0,170,169,172,167,1,1399
16.941949845,-1,-1,0,0,1,2,0,0,0,-121,235,125,47,41,8,0,0,0,169,170,170,169,1,1400
16.961040974,0,-1,0,0,1,2,0,0,0,19,9,228,46,34,8,0,0,0,169,170,170,169,1,1401
16.973912955,0,-1,0,0,0,0,0,0,0,104,112,206,45,29,7,0,0,0,169,170,170,169,1,1402
16.983034849,0,-1,0,0,0,0,0,0,0,104,112,206,45,29,7,0,0,0,169,170,170,169,1,1403
16.993978977,0,-1,0,0,-3,-2,0,0,0,104,112,206,45,29,7,0,0,0,169,170,167,172,1,1404
17.011987925,0,0,0,0,-3,-2,0,0,0,-12,47,254,42,31,4,0,0,0,169,170,167,172,1,1405
17.023015976,0,0,0,-1,-4,-2,0,0,0,-85,22,81,38,39,0,0,0,0,169,170,167,172,1,1406
17.034022808,0,0,0,-1,-4,-2,0,0,0,-85,22,81,38,39,0,0,0,0,170,169,167,172,1,1407
17.045001984,0,0,0,0,5,0,0,0,0,-85,22,81,38,39,0,0,0,0,170,169,173,166,1,1408
17.063016892,0,0,0,0,5,0,0,0,0,-10,-116,95,33,52,249,0,0,0,170,169,173,166,1,1409
17.073987007,0,0,0,0,6,1,0,0,0,-87,-78,185,27,66,240,0,0,0,170,169,173,166,1,1410
17.084990978,0,0,0,0,-1,-2,0,0,0,-87,-78,185,27,66,240,0,0,0,169,170,173,166,1,1411
17.096028805,0,0,0,0,-1,-2,0,0,0,-87,-78,185,27,66,240,0,0,0,170,169,168,171,1,1412
17.116029024,0,0,0,-1,-3,1,0,0,0,-37,7,145,19,75,227,0,0,0,170,169,167,172,1,1413
17.126083851,0,0,0,0,-5,0,0,0,0,-90,36,94,9,75,211,0,0,0,170,169,167,172,1,1414
17.137012959,0,0,0,0,-5,0,0,0,0,-90,36,94,9,75,211,0,0,0,170,169,166,173,1,1415
17.148145914,0,0,0,0,3,1,0,0,0,-90,36,94,9,75,211,0,0,0,169,170,172,167,1,1416
17.167089939,0,0,0,0,0,-1,0,0,0,-105,-65,83,-2,65,192,0,0,0,169,170,169,170,1,1417
17.178113938,1,0,0,0,2,0,0,0,0,-39,-167,223,-16,45,173,0,0,0,169,170,169,170,1,1418
17.189145804,1,0,0,0,2,0,0,0,0,-39,-167,223,-16,45,173,0,0,0,169,170,171,168,1,1419
17.200090885,1,0,0,-1,-2,0,0,0,0,-39,-167,223,-16,45,173,0,0,0,170,169,168,171,1,1420
17.220103026,1,0,0,-1,-2,0,0,0,0,-172,100,250,-31,19,154,0,0,0,170,169,168,171,1,1421
17.229112864,1,0,0,0,0,0,0,0,0,-159,41,140,-46,-6,139,0,0,0,170,169,168,171,1,1422
17.240217924,1,0,0,0,0,0,0,0,0,-159,41,140,-46,-6,139,0,0,0,170,169,170,169,1,1423
17.252389908,1,0,0,2,1,-1,0,0,0,-159,41,140,-46,-6,139,0,0,0,168,171,170,169,1,1424
17.270059824,1,0,0,2,1,-1,0,0,0,0,-40,-10,-61,-30,129,0,0,0,168,171,170,169,1,1425
17.281092882,1,0,0,-2,-1,0,0,0,0,-53,-200,43,-76,-46,126,0,0,0,168,171,170,169,1,1426
17.291993857,1,0,0,-2,-1,0,0,0,0,-53,-200,43,-76,-46,126,0,0,0,171,168,169,170,1,1427
17.303164005,1,0,0,-1,0,0,0,0,0,-53,-200,43,-76,-46,126,0,0,0,170,169,170,169,1,1428
17.321204901,1,-1,0,-1,0,0,0,0,0,-42,-246,138,-88,-54,129,0,0,0,170,169,170,169,1,1429
17.332118988,1,-1,0,0,0,0,0,0,0,21,-92,62,-97,-54,138,0,0,0,170,169,170,169,1,1430
17.343062878,1,-1,0,1,1,-1,0,0,0,21,-92,62,-97,-54,138,0,0,0,170,169,169,170,1,1431
17.354000807,1,-1,0,1,1,-1,0,0,0,21,-92,62,-97,-54,138,0,0,0,168,171,170,169,1,1432
17.372998953,0,-2,0,0,-1,0,0,0,0,-68,-23,92,-100,-53,150,0,0,0,169,170,169,170,1,1433
17.38410902,0,-2,0,0,1,0,0,0,0,-69,-126,161,-97,-55,167,0,0,0,169,170,169,170,1,1434
17.395036936,0,-2,0,0,1,0,0,0,0,-69,-126,161,-97,-55,167,0,0,0,169,170,170,169,1,1435
17.405982018,0,-2,0,0,0,-1,0,0,0,-69,-126,161,-97,-55,167,0,0,0,169,170,169,170,1,1436
17.425110817,0,-2,0,0,2,1,0,0,0,-3,-108,60,-88,-62,188,0,0,0,170,169,171,168,1,1437
17.44034195,0,-3,0,0,-2,-1,0,0,0,-42,-147,109,-75,-73,209,0,0,0,170,169,171,168,1,1438
17.446978808,0,-3,0,0,-2,-1,0,0,0,-42,-147,109,-75,-73,209,0,0,0,170,169,168,171,1,1439
17.458089829,0,-3,0,0,-1,1,0,0,0,-42,-147,109,-75,-73,209,0,0,0,170,169,169,170,1,1440
17.476145029,0,-3,0,0,-1,1,0,0,0,-60,-228,132,-60,-88,228,0,0,0,170,169,169,170,1,1441
17.487044811,0,-3,0,0,0,0,0,0,0,7,6,221,-45,-102,242,0,0,0,170,169,169,170,1,1442
17.50018692,0,-3,0,0,0,0,0,0,0,7,6,221,-45,-102,242,0,0,0,170,169,170,169,1,1443
17.508893967,0,-3,0,0,3,1,0,0,0,7,6,221,-45,-102,242,0,0,0,170,169,171,168,1,1444
17.526186943,-1,-4,0,0,3,1,0,0,0,-9,-90,85,-34,-116,251,0,0,0,170,169,171,168,1,1445
17.537086964,-1,-4,0,0,3,1,0,0,0,119,-219,64,-26,-126,0,0,0,0,170,169,171,168,1,1446
17.548414946,-1,-4,0,0,3,0,0,0,0,119,-219,64,-26,-126,0,0,0,0,169,170,171,168,1,1447
17.55922699,-1,-4,0,0,3,0,0,0,0,119,-219,64,-26,-126,0,0,0,0,169,170,171,168,1,1448
17.578116894,-2,-4,0,0,-4,-1,0,0,0,-31,-174,183,-22,-132,1,0,0,0,169,170,167,172,1,1449
17.5891428,-2,-4,0,0,-3,0,0,0,0,-104,-174,57,-19,-134,0,0,0,0,169,170,167,172,1,1450
17.600049019,-2,-4,0,0,-3,0,0,0,0,-104,-174,57,-19,-134,0,0,0,0,170,169,167,172,1,1451
17.611996889,-2,-4,0,0,0,0,0,0,0,-104,-174,57,-19,-134,0,0,0,0,170,169,169,170,1,1452
17.628973961,-3,-4,0,0,0,0,0,0,0,-111,-6,81,-16,-133,0,0,0,0,170,169,169,170,1,1453
17.640111923,-3,-4,0,1,4,1,0,0,0,-21,-71,82,-13,-132,1,0,0,0,170,169,169,170,1,1454
17.656533957,-3,-4,0,1,4,1,0,0,0,-21,-71,82,-13,-132,1,0,0,0,169,170,172,167,1,1455
17.662125826,-3,-4,0,0,-2,-1,0,0,0,-21,-71,82,-13,-132,1,0,0,0,169,170,168,171,1,1456
17.681337834,-3,-4,0,-1,-1,-1,0,0,0,-47,-104,198,-11,-131,4,0,0,0,170,169,169,170,1,1457
17.692154885,-4,-4,0,0,-2,0,0,0,0,52,-172,0,-12,-130,10,0,0,0,170,169,169,170,1,1458
17.703109026,-4,-4,0,0,-2,0,0,0,0,52,-172,0,-12,-130,10,0,0,0,170,169,168,171,1,1459
17.713982821,-4,-4,0,1,4,0,0,0,0,52,-172,0,-12,-130,10,0,0,0,169,170,172,167,1,1460
17.73216486,-4,-4,0,1,4,0,0,0,0,-7,88,96,-16,-127,17,0,0,0,169,170,172,167,1,1461
17.74414587,-5,-4,0,0,4,-1,0,0,0,51,119,66,-23,-122,25,0,0,0,169,170,172,167,1,1462
17.753954888,-5,-4,0,-1,-3,0,0,0,0,51,119,66,-23,-122,25,0,0,0,169,170,172,167,1,1463
17.765033961,-5,-4,0,-1,-3,0,0,0,0,-101,196,251,-29,-114,31,0,0,0,170,169,168,171,1,1464
17.784011841,-5,-4,0,0,2,1,0,0,0,-101,196,251,-29,-114,31,0,0,0,170,169,171,168,1,1465
17.795712948,-5,-4,0,-2,-3,0,0,0,0,-76,21,89,-33,-100,36,0,0,0,170,169,171,168,1,1466
17.805993796,-5,-4,0,-2,-3,0,0,0,0,-76,21,89,-33,-100,36,0,0,0,171,168,167,172,1,1467
17.817082882,-5,-4,0,0,1,0,0,0,0,-76,21,89,-33,-100,36,0,0,0,171,168,167,172,1,1468
17.835367918,-6,-4,0,0,1,0,0,0,0,103,109,145,-33,-78,39,0,0,0,169,170,170,169,1,1469
17.84601903,-6,-4,0,1,3,0,0,0,0,-15,53,6,-29,-48,41,0,0,0,169,170,170,169,1,1470
17.85696888,-6,-4,0,1,3,0,0,0,0,-15,53,6,-29,-48,41,0,0,0,169,170,171,168,1,1471
17.868206978,-6,-4,0,0,0,0,0,0,0,-15,53,6,-29,-48,41,0,0,0,169,170,170,169,1,1472
17.887166023,-6,-4,0,0,0,0,0,0,0,-210,35,118,-24,-12,43,0,0,0,169,170,170,169,1,1473
17.897972822,-6,-4,0,0,-1,-1,0,0,0,-44,-13,212,-19,26,46,0,0,0,169,170,170,169,1,1474
17.909111977,-6,-4,0,1,3,0,0,0,0,-44,-13,212,-19,26,46,0,0,0,170,169,169,170,1,1475
17.920156002,-6,-4,0,1,3,0,0,0,0,-44,-13,212,-19,26,46,0,0,0,169,170,172,167,1,1476
17.938941956,-6,-4,0,-1,-2,0,0,0,0,36,47,240,-16,60,47,0,0,0,171,168,168,171,1,1477
17.949987889,-6,-4,0,-1,0,0,0,0,0,41,-68,187,-15,85,46,0,0,0,171,168,168,171,1,1478
17.961004019,-5,-4,0,-2,-4,0,0,0,0,41,-68,187,-15,85,46,0,0,0,170,169,169,170,1,1479
17.971936941,-5,-4,0,-2,-4,0,0,0,0,-37,-111,27,-19,97,38,0,0,0,171,168,167,172,1,1480
17.99008584,-5,-4,0,0,0,0,0,0,0,-37,-111,27,-19,97,38,0,0,0,170,169,170,169,1,1481
18.0011549,-5,-4,0,0,0,0,0,0,0,14,11,114,-25,95,24,0,0,0,170,169,170,169,1,1482
18.012400866,-5,-4,0,0,0,0,0,0,0,14,11,114,-25,95,24,0,0,0,169,170,169,170,1,1483
18.023023844,-5,-3,0,0,2,0,0,0,0,14,11,114,-25,95,24,0,0,0,169,170,169,170,1,1484
18.042037964,-4,-4,0,0,2,0,0,0,0,14,62,95,-31,79,3,0,0,0,169,170,171,168,1,1485
18.052924872,-4,-4,0,0,0,0,0,0,0,82,137,4,-33,53,233,0,0,0,169,170,171,168,1,1486
18.063951969,-4,-4,0,0,0,0,0,0,0,82,137,4,-33,53,233,0,0,0,169,170,169,170,1,1487
18.075031996,-4,-4,0,0,0,0,0,0,0,82,137,4,-33,53,233,0,0,0,169,170,169,170,1,1488
18.093004942,-4,-4,0,0,0,0,0,0,0,-8,75,148,-31,24,206,0,0,0,169,170,169,170,1,1489
18.104089976,-3,-4,0,0,3,1,0,0,0,39,-134,166,-24,-1,183,0,0,0,169,170,169,170,1,1490
18.115074873,-3,-4,0,-1,-3,-1,0,0,0,39,-134,166,-24,-1,183,0,0,0,169,170,171,168,1,1491
18.12617898,-3,-4,0,-1,-3,-1,0,0,0,39,-134,166,-24,-1,183,0,0,0,170,169,168,171,1,1492
18.144994974,-3,-4,0,-1,-4,0,0,0,0,120,24,229,-14,-18,167,0,0,0,170,169,167,172,1,1493
18.15612793,-3,-4,0,-1,-4,0,0,0,0,-3,113,254,0,-22,161,0,0,0,170,169,167,172,1,1494
18.167009831,-3,-4,0,-1,-4,0,0,0,0,-3,113,254,0,-22,161,0,0,0,170,169,167,172,1,1495
18.178098917,-3,-4,0,0,3,0,0,0,0,-3,113,254,0,-22,161,0,0,0,170,169,167,172,1,1496
18.19698596,-3,-4,0,0,0,0,0,0,0,32,9,98,14,-17,165,0,0,0,170,169,170,169,1,1497
18.208163023,-3,-4,0,0,1,0,0,0,0,101,-16,184,28,-4,174,0,0,0,170,169,170,169,1,1498
18.219002009,-3,-4,0,0,1,0,0,0,0,101,-16,184,28,-4,174,0,0,0,169,170,170,169,1,1499
18.230010987,-3,-3,0,0,-2,0,0,0,0,101,-16,184,28,-4,174,0,0,0,169,170,168,171,1,1500
18.248225928,-3,-3,0,0,-2,0,0,0,0,-1,-16,160,40,10,187,0,0,0,169,170,168,171,1,1501
18.260324001,-3,-3,0,0,-4,0,0,0,0,-44,-15,65,48,24,198,0,0,0,169,170,168,171,1,1502
18.269996882,-3,-3,0,0,-4,0,0,0,0,-44,-15,65,48,24,198,0,0,0,169,170,167,172,1,1503
18.280980826,-3,-3,0,1,3,0,0,-1,0,-44,-15,65,48,24,198,0,0,0,169,170,172,167,1,1504
18.298986912,-3,-3,0,1,3,0,0,-1,0,9,183,124,53,33,205,0,0,0,169,170,172,167,1,1505
18.309989929,-2,-3,0,0,4,0,0,-1,0,-13,58,134,53,37,208,0,0,0,169,170,172,167,1,1506
18.321034908,-2,-3,0,0,-3,0,0,0,0,-13,58,134,53,37,208,0,0,0,169,170,172,167,1,1507
18.332188845,-2,-3,0,0,-3,0,0,0,0,-13,58,134,53,37,208,0,0,0,170,169,168,171,1,1508
18.350992918,-2,-2,0,0,5,0,0,0,0,-84,-78,243,49,36,206,0,0,0,169,170,173,166,1,1509
18.362046004,-2,-2,0,-1,-1,0,0,0,0,-76,-31,5,40,33,202,0,0,0,169,170,173,166,1,1510
18.37318492,-2,-2,0,-1,-1,0,0,0,0,-76,-31,5,40,33,202,0,0,0,170,169,169,170,1,1511
18.384038925,-2,-2,0,0,-1,0,0,0,0,-76,-31,5,40,33,202,0,0,0,169,170,169,170,1,1512
18.401985884,-2,-2,0,0,-1,0,0,0,0,20,64,167,27,29,196,0,0,0,169,170,169,170,1,1513
18.413082838,-1,-2,0,0,0,0,0,0,0,24,94,164,11,26,191,0,0,0,169,170,169,170,1,1514
18.424046993,-1,-2,0,0,0,0,0,0,0,24,94,164,11,26,191,0,0,0,169,170,169,170,1,1515
18.435020924,-1,-1,0,0,2,1,0,0,0,24,94,164,11,26,191,0,0,0,169,170,171,168,1,1516
18.454027891,-1,-1,0,0,2,1,0,0,0,-27,-50,15,-5,24,189,0,0,0,169,170,171,168,1,1517
18.464241028,-1,-1,0,0,0,-1,0,1,0,-143,-11,48,-20,22,189,0,0,0,169,170,171,168,1,1518
18.475025892,-1,-1,0,0,2,0,0,0,0,-143,-11,48,-20,22,189,0,0,0,170,169,170,169,1,1519
18.485991001,-1,-1,0,0,2,0,0,0,0,-57,4,194,-32,20,192,0,0,0,169,170,171,168,1,1520
18.506133795,-1,-1,0,-1,0,-1,0,0,0,-57,4,194,-32,20,192,0,0,0,170,169,169,170,1,1521
18.516107798,-1,-1,0,0,-2,-1,0,0,0,-7,39,137,-39,19,197,0,0,0,170,169,169,170,1,1522
18.527040959,-1,-1,0,0,-2,-1,0,0,0,-7,39,137,-39,19,197,0,0,0,170,169,168,171,1,1523
18.539497853,-1,-1,0,0,-2,-1,0,0,0,-7,39,137,-39,19,197,0,0,0,170,169,168,171,1,1524
18.55702281,-1,-1,0,0,-2,-1,0,0,0,-125,-44,195,-43,18,205,0,0,0,170,169,168,171,1,1525
18.568159819,0,-1,0,0,3,1,0,0,0,-71,57,204,-45,16,213,0,0,0,170,169,168,171,1,1526
18.579008818,0,-1,0,0,1,0,0,0,0,-71,57,204,-45,16,213,0,0,0,169,170,172,167,1,1527
18.591409922,0,-1,0,0,1,0,0,0,0,-71,57,204,-45,16,213,0,0,0,169,170,170,169,1,1528
18.609061957,0,-2,0,0,-1,0,0,0,0,-149,-23,234,-47,13,220,0,0,0,170,169,169,170,1,1529
18.620117903,0,-2,0,0,-3,0,0,0,0,-92,-30,122,-50,10,223,0,0,0,170,169,169,170,1,1530
18.630921841,0,-2,0,0,-3,0,0,0,0,-92,-30,122,-50,10,223,0,0,0,170,169,167,172,1,1531
18.642184019,0,-2,0,0,0,0,0,0,0,-92,-30,122,-50,10,223,0,0,0,170,169,167,172,1,1532
18.660112858,0,-2,0,0,0,0,0,0,0,40,-128,74,-55,7,222,0,0,0,169,170,170,169,1,1533
18.671080828,0,-2,0,0,0,0,0,0,0,0,89,80,-62,4,218,0,0,0,169,170,170,169,1,1534
18.681957007,0,-2,0,0,0,0,0,0,0,0,89,80,-62,4,218,0,0,0,170,169,169,170,1,1535
18.692932844,0,-2,0,-1,-2,-1,0,0,0,0,89,80,-62,4,218,0,0,0,170,169,168,171,1,1536
18.711165905,0,-2,0,-1,-2,-1,0,0,0,12,-107,52,-70,0,212,0,0,0,170,169,168,171,1,1537
18.721958876,0,-3,0,0,-2,-1,0,0,0,111,87,126,-76,-5,209,0,0,0,170,169,168,171,1,1538
18.733259916,0,-3,0,0,-1,-1,0,0,0,111,87,126,-76,-5,209,0,0,0,170,169,168,171,1,1539
18.744174004,0,-3,0,0,-1,-1,0,0,0,107,43,220,-75,-11,210,0,0,0,170,169,169,170,1,1540
18.7630198,0,-3,0,0,-2,-1,0,0,0,107,43,220,-75,-11,210,0,0,0,170,169,168,171,1,1541
18.774134875,0,-3,0,1,3,0,0,-1,0,-26,3,71,-67,-16,217,0,0,0,170,169,168,171,1,1542
18.784981966,0,-3,0,1,3,0,0,-1,0,-26,3,71,-67,-16,217,0,0,0,169,170,172,167,1,1543
18.796304941,0,-3,0,0,-4,0,0,-1,0,-26,3,71,-67,-16,217,0,0,0,170,169,167,172,1,1544
18.813997984,0,-3,0,0,-4,0,0,-1,0,131,-150,48,-50,-19,228,0,0,0,170,169,167,172,1,1545
18.825026989,0,-4,0,-1,-3,0,0,-1,0,-31,-117,244,-26,-19,240,0,0,0,170,169,167,172,1,1546
18.836899996,0,-4,0,-1,-3,0,0,-1,0,-31,-117,244,-26,-19,240,0,0,0,170,169,167,172,1,1547
18.848455906,0,-4,0,0,0,-1,0,-1,0,-31,-117,244,-26,-19,240,0,0,0,169,170,170,169,1,1548
18.866375923,0,-4,0,0,0,-1,0,-1,0,34,-125,241,1,-17,251,0,0,0,169,170,170,169,1,1549
18.877180815,0,-4,0,0,0,-1,0,-1,0,50,96,122,29,-15,4,0,0,0,169,170,170,169,1,1550
18.888166905,0,-4,0,0,-3,0,0,-1,0,50,96,122,29,-15,4,0,0,0,169,170,170,169,1,1551
18.898949862,0,-4,0,0,-3,0,0,-1,0,50,96,122,29,-15,4,0,0,0,169,170,167,172,1,1552
18.918152809,0,-4,0,0,2,0,0,-1,0,45,18,74,52,-17,11,0,0,0,169,170,171,168,1,1553
18.929013014,0,-3,0,0,0,-1,0,-1,0,50,-41,205,66,-23,16,0,0,0,169,170,171,168,1,1554
18.942448855,0,-3,0,0,0,-1,0,-1,0,50,-41,205,66,-23,16,0,0,0,170,169,170,169,1,1555
18.950958014,0,-3,0,0,3,0,0,0,0,50,-41,205,66,-23,16,0,0,0,170,169,171,168,1,1556
18.970042944,0,-3,0,-2,-3,0,0,0,0,97,-53,18,71,-31,21,0,0,0,171,168,167,172,1,1557
18.980962992,-1,-3,0,-1,-1,0,0,0,0,12,36,104,69,-39,25,0,0,0,171,168,167,172,1,1558
18.991117001,-1,-3,0,-1,-1,0,0,0,0,12,36,104,69,-39,25,0,0,0,170,169,169,170,1,1559
19.00819993,-1,-3,0,0,-1,0,0,0,0,12,36,104,69,-39,25,0,0,0,170,169,169,170,1,1560
19.021250963,-1,-3,0,0,-1,0,0,0,0,33,-100,194,62,-43,29,0,0,0,170,169,169,170,1,1561
19.032080889,-1,-2,0,0,2,1,0,0,0,-120,-23,122,54,-43,31,0,0,0,170,169,169,170,1,1562
19.043178797,-1,-2,0,0,2,1,0,0,0,-120,-23,122,54,-43,31,0,0,0,169,170,171,168,1,1563
19.054063797,-1,-2,0,0,0,0,0,0,0,-120,-23,122,54,-43,31,0,0,0,169,170,169,170,1,1564
19.072057963,-1,-2,0,0,0,0,0,0,0,-75,-52,212,45,-40,32,0,0,0,169,170,169,170,1,1565
19.083088875,-1,-2,0,0,0,0,0,0,0,-38,-122,71,37,-35,30,0,0,0,169,170,169,170,1,1566
19.094129801,-1,-2,0,0,0,0,0,0,0,-38,-122,71,37,-35,30,0,0,0,170,169,169,170,1,1567
19.104983807,-1,-2,0,0,0,-2,0,0,0,-38,-122,71,37,-35,30,0,0,0,170,169,169,170,1,1568
19.123014927,-1,-2,0,0,0,-2,0,0,0,-38,-40,251,28,-30,23,0,0,0,170,169,169,170,1,1569
19.134094954,-1,-1,0,-1,-3,-2,0,0,0,-37,-27,131,16,-28,12,0,0,0,170,169,169,170,1,1570
19.145042896,-1,-1,0,0,-1,-1,0,0,0,-37,-27,131,16,-28,12,0,0,0,170,169,168,171,1,1571
19.156025887,-1,-1,0,0,-1,-1,0,0,0,-37,-27,131,16,-28,12,0,0,0,169,170,169,170,1,1572
19.175100804,-1,-1,0,-1,-3,-2,0,0,0,100,86,93,2,-30,254,0,0,0,170,169,167,172,1,1573
19.186209917,-1,-1,0,0,1,0,0,0,0,93,-24,76,-13,-34,241,0,0,0,170,169,167,172,1,1574
19.197340965,-1,-1,0,0,1,0,0,0,0,93,-24,76,-13,-34,241,0,0,0,170,169,170,169,1,1575
19.20812583,-1,-1,0,1,3,1,0,0,0,93,-24,76,-13,-34,241,0,0,0,169,170,172,167,1,1576
19.227077961,-2,-1,0,1,2,0,0,-1,0,29,17,125,-26,-40,228,0,0,0,169,170,171,168,1,1577
19.238210917,-2,-1,0,0,1,2,0,-1,-1,45,130,120,-33,-43,217,0,0,0,169,170,171,168,1,1578
19.249001026,-2,-1,0,0,1,0,0,-1,-1,45,130,120,-33,-43,217,0,0,0,169,170,171,168,1,1579
19.260128975,-2,-1,0,0,1,0,0,-1,-1,45,130,120,-33,-43,217,0,0,0,169,170,171,168,1,1580
19.281716824,-2,-1,0,0,0,2,0,0,-1,37,169,121,-32,-41,210,0,0,0,170,169,170,169,1,1581
19.290035963,-2,-1,0,-2,-4,-2,0,0,0,144,32,66,-22,-33,207,0,0,0,170,169,170,169,1,1582
19.300997973,-2,-1,0,-1,1,0,0,0,0,144,32,66,-22,-33,207,0,0,0,171,168,167,172,1,1583
19.312102795,-2,-1,0,-1,1,0,0,0,0,144,32,66,-22,-33,207,0,0,0,170,169,170,169,1,1584
19.331172943,-2,-1,0,0,-3,-2,0,1,0,45,69,87,-4,-17,209,0,0,0,170,169,167,172,1,1585
19.341982842,-2,-1,0,1,5,0,0,1,1,7,78,146,16,4,214,0,0,0,170,169,167,172,1,1586
19.352949858,-2,-1,0,1,5,0,0,1,1,7,78,146,16,4,214,0,0,0,169,170,173,166,1,1587
19.364171982,-2,-1,0,0,-2,0,0,1,1,7,78,146,16,4,214,0,0,0,169,170,173,166,1,1588
19.382020951,-2,-1,0,0,-2,0,0,1,1,27,99,166,39,30,221,0,0,0,170,169,168,171,1,1589
19.39316082,-2,-1,0,0,-2,0,0,0,1,-5,-28,35,58,56,228,0,0,0,170,169,168,171,1,1590
19.404178858,-2,-1,0,0,-2,0,0,0,1,-5,-28,35,58,56,228,0,0,0,170,169,168,171,1,1591
19.41543603,-2,-1,0,0,-2,-1,0,0,0,-5,-28,35,58,56,228,0,0,0,170,169,168,171,1,1592
19.43637681,-2,-1,0,0,-2,-1,0,0,0,-28,75,39,71,78,234,0,0,0,170,169,168,171,1,1593
19.444924832,-1,0,0,0,0,-1,0,0,0,38,70,146,75,92,239,0,0,0,170,169,168,171,1,1594
19.456101895,-1,0,0,-2,-4,1,0,0,0,38,70,146,75,92,239,0,0,0,170,169,169,170,1,1595
19.467132807,-1,0,0,-2,-4,1,0,0,0,38,70,146,75,92,239,0,0,0,171,168,167,172,1,1596
19.484967947,-1,0,0,0,5,1,0,-1,0,-50,165,139,71,98,240,0,0,0,169,170,173,166,1,1597
19.499037981,-1,0,0,0,4,0,0,-1,0,-58,-93,189,59,95,240,0,0,0,169,170,173,166,1,1598
19.507007837,-1,0,0,0,4,0,0,-1,0,-58,-93,189,59,95,240,0,0,0,169,170,172,167,1,1599
19.518124819,-1,0,0,1,0,-2,0,-1,0,-58,-93,189,59,95,240,0,0,0,169,170,170,169,1,1600
19.53748703,0,0,0,1,0,-2,0,-1,0,-5,18,155,42,87,237,0,0,0,169,170,170,169,1,1601
19.547983885,0,0,0,-1,-3,0,0,-1,0,-13,61,248,22,75,230,0,0,0,169,170,170,169,1,1602
19.560168982,0,0,0,0,0,0,0,-1,0,-13,61,248,22,75,230,0,0,0,170,169,167,172,1,1603
19.569985867,0,0,0,0,0,0,0,-1,0,-13,61,248,22,75,230,0,0,0,170,169,170,169,1,1604
19.592132807,0,0,0,0,1,0,0,0,0,-33,36,244,3,63,221,0,0,0,169,170,170,169,1,1605
19.6000669,0,0,0,0,1,0,0,0,0,-52,-64,244,-13,51,210,0,0,0,169,170,170,169,1,1606
19.611339808,0,0,0,0,1,0,0,0,0,-52,-64,244,-13,51,210,0,0,0,170,169,171,168,1,1607
19.622475863,0,0,0,-1,-2,0,0,0,0,-52,-64,244,-13,51,210,0,0,0,170,169,171,168,1,1608
19.640477896,0,0,0,-1,-2,0,0,0,0,-78,-45,222,-26,41,200,0,0,0,170,169,168,171,1,1609
19.651008845,0,0,0,0,-1,0,0,1,0,31,-95,160,-35,31,193,0,0,0,170,169,168,171,1,1610
19.662027836,0,0,0,0,-1,0,0,1,0,31,-95,160,-35,31,193,0,0,0,170,169,169,170,1,1611
19.673164845,0,0,0,1,1,0,0,1,0,31,-95,160,-35,31,193,0,0,0,169,170,170,169,1,1612
19.691013813,1,0,0,1,1,0,0,1,0,11,13,132,-39,22,191,0,0,0,169,170,170,169,1,1613
19.70201087,1,0,0,0,0,0,0,0,0,-18,42,152,-39,13,193,0,0,0,169,170,170,169,1,1614
19.713126898,1,0,0,0,0,0,0,0,0,-18,42,152,-39,13,193,0,0,0,169,170,170,169,1,1615
19.724218846,1,0,0,0,0,0,0,0,0,-18,42,152,-39,13,193,0,0,0,170,169,169,170,1,1616
19.743003845,1,0,0,0,0,0,0,0,0,-84,128,97,-38,2,198,0,0,0,170,169,169,170,1,1617
19.753974915,1,0,0,0,-1,0,0,0,0,102,100,116,-34,-7,201,0,0,0,170,169,169,170,1,1618
19.764915943,1,0,0,0,-3,-3,0,0,0,102,100,116,-34,-7,201,0,0,0,170,169,168,171,1,1619
19.775975943,1,0,0,0,-3,-3,0,0,0,54,-83,135,-28,-15,201,0,0,0,170,169,168,171,1,1620
19.795009852,1,0,0,0,0,0,0,0,0,54,-83,135,-28,-15,201,0,0,0,170,169,169,170,1,1621
19.806035996,1,0,0,0,3,0,0,0,0,69,100,40,-22,-16,194,0,0,0,170,169,169,170,1,1622
19.817145825,1,0,0,0,3,0,0,0,0,69,100,40,-22,-16,194,0,0,0,169,170,172,167,1,1623
19.828092814,1,0,0,0,-4,-1,0,0,0,69,100,40,-22,-16,194,0,0,0,170,169,167,172,1,1624
19.845912934,1,0,0,0,-4,-1,0,0,0,-55,112,19,-15,-10,183,0,0,0,170,169,167,172,1,1625
19.857017994,1,0,0,0,-4,-2,0,0,0,67,83,242,-6,1,169,0,0,0,170,169,167,172,1,1626
19.868113995,1,0,0,0,-4,-2,0,0,0,67,83,242,-6,1,169,0,0,0,169,170,167,172,1,1627
19.879287005,1,0,0,0,3,0,0,0,0,67,83,242,-6,1,169,0,0,0,169,170,172,167,1,1628
19.897394896,1,0,0,0,3,0,0,0,0,143,-5,106,3,18,158,0,0,0,169,170,172,167,1,1629
19.908033848,1,0,0,0,4,0,0,0,0,46,72,202,14,35,154,0,0,0,169,170,172,167,1,1630
19.919032812,1,0,0,-1,-4,-1,0,0,0,46,72,202,14,35,154,0,0,0,169,170,172,167,1,1631
19.930069924,1,0,0,-1,-4,-1,0,0,0,46,72,202,14,35,154,0,0,0,170,169,167,172,1,1632
19.949057818,1,0,0,-1,0,0,0,0,0,-47,-38,44,25,52,158,0,0,0,170,169,170,169,1,1633
19.960000992,1,0,0,-2,-2,0,0,0,0,0,4,163,35,64,169,0,0,0,170,169,170,169,1,1634
19.97102499,1,0,0,-2,-2,0,0,0,0,0,4,163,35,64,169,0,0,0,171,168,168,171,1,1635
19.982044935,1,0,0,0,3,1,0,0,0,0,4,163,35,64,169,0,0,0,169,170,172,167,1,1636
20.001021862,1,0,0,0,-4,-2,0,0,0,69,-62,65,44,71,184,0,0,0,170,169,167,172,1,1637
20.012028933,2,0,0,0,-2,-1,0,0,0,24,-138,88,49,69,199,0,0,0,170,169,167,172,1,1638
20.024295807,2,0,0,0,-2,-1,0,0,0,24,-138,88,49,69,199,0,0,0,170,169,168,171,1,1639
20.03439188,2,0,0,-1,-1,0,0,0,0,24,-138,88,49,69,199,0,0,0,171,168,169,170,1,1640
20.052189827,2,0,0,-1,-1,0,0,0,0,78,-30,103,51,60,211,0,0,0,171,168,169,170,1,1641
20.062942982,2,0,0,1,5,1,0,0,0,-47,79,152,49,43,219,0,0,0,171,168,169,170,1,1642
20.074020863,2,0,0,1,5,1,0,0,0,-47,79,152,49,43,219,0,0,0,169,170,173,166,1,1643
20.085173845,2,0,0,0,0,-1,0,0,0,-47,79,152,49,43,219,0,0,0,169,170,173,166,1,1644
20.104113817,2,0,0,0,0,-1,0,0,0,9,-192,143,44,20,223,0,0,0,169,170,169,170,1,1645
20.115000963,2,0,0,0,0,-1,0,0,0,3,26,18,37,-4,224,0,0,0,169,170,169,170,1,1646
20.126031876,2,0,0,0,0,-1,0,0,0,3,26,18,37,-4,224,0,0,0,169,170,169,170,1,1647
20.137005806,2,0,0,-1,3,0,0,0,0,3,26,18,37,-4,224,0,0,0,170,169,171,168,1,1648
20.154974938,2,0,0,-1,3,0,0,0,0,19,96,89,31,-28,224,0,0,0,170,169,171,168,1,1649
20.166015864,2,0,0,-1,0,0,0,0,0,111,77,26,24,-46,225,0,0,0,170,169,171,168,1,1650
20.17690301,2,0,0,0,1,0,0,0,0,111,77,26,24,-46,225,0,0,0,170,169,170,169,1,1651
20.188033819,2,0,0,0,1,0,0,0,0,111,77,26,24,-46,225,0,0,0,169,170,170,169,1,1652
20.206992865,2,0,0,0,0,0,0,0,0,81,-89,169,18,-57,226,0,0,0,170,169,169,170,1,1653
20.218732834,2,0,0,0,0,0,0,0,0,-57,63,255,15,-57,230,0,0,0,170,169,169,170,1,1654
20.229064942,2,0,0,0,0,0,0,0,0,-57,63,255,15,-57,230,0,0,0,170,169,169,170,1,1655
20.240092993,2,0,0,1,3,0,0,0,0,-57,63,255,15,-57,230,0,0,0,168,171,171,168,1,1656
20.25898099,2,1,0,0,0,0,0,1,0,54,-27,124,14,-48,235,0,0,0,169,170,170,169,1,1657
20.270057917,1,1,0,2,2,0,0,1,0,0,-147,129,17,-32,242,0,0,0,169,170,170,169,1,1658
20.280990839,1,1,0,2,2,0,0,1,0,0,-147,129,17,-32,242,0,0,0,168,171,171,168,1,1659
20.292157889,1,1,0,-1,-2,0,0,1,0,0,-147,129,17,-32,242,0,0,0,170,169,168,171,1,1660
20.309937954,1,1,0,-1,-2,0,0,1,0,-142,-186,44,22,-13,251,0,0,0,170,169,168,171,1,1661
20.321017981,1,1,0,0,-2,0,0,1,0,-92,-79,248,27,1,5,0,0,0,170,169,168,171,1,1662
20.332006931,1,1,0,0,-2,0,0,1,0,-92,-79,248,27,1,5,0,0,0,170,169,168,171,1,1663
20.342959881,1,1,0,0,-1,0,0,0,0,-92,-79,248,27,1,5,0,0,0,170,169,168,171,1,1664
20.361001969,1,1,0,0,-1,0,0,0,0,-39,34,98,28,8,16,0,0,0,170,169,168,171,1,1665
20.372088909,1,1,0,0,4,1,0,0,0,-35,-81,180,24,3,29,0,0,0,170,169,168,171,1,1666
20.383070946,1,1,0,0,4,1,0,0,0,-35,-81,180,24,3,29,0,0,0,169,170,172,167,1,1667
20.394053936,1,1,0,0,0,0,0,0,0,-35,-81,180,24,3,29,0,0,0,169,170,169,170,1,1668
20.412228823,1,1,0,0,0,0,0,0,0,94,-26,216,13,-11,41,0,0,0,169,170,169,170,1,1669
20.422990799,1,1,0,0,-3,-1,0,0,0,-12,97,3,-3,-33,51,0,0,0,169,170,169,170,1,1670
20.433945894,1,1,0,0,3,0,0,0,0,-12,97,3,-3,-33,51,0,0,0,169,170,167,172,1,1671
20.445036888,1,1,0,0,3,0,0,0,0,-12,97,3,-3,-33,51,0,0,0,169,170,172,167,1,1672
20.46398902,1,1,0,0,0,0,0,0,0,-1,114,71,-21,-54,54,0,0,0,170,169,170,169,1,1673
20.475018978,0,1,0,0,2,0,0,0,0,17,-52,229,-35,-69,51,0,0,0,170,169,170,169,1,1674
20.486109019,0,1,0,0,2,0,0,0,0,17,-52,229,-35,-69,51,0,0,0,170,169,171,168,1,1675
20.497012854,0,1,0,0,-3,-1,0,0,0,17,-52,229,-35,-69,51,0,0,0,170,169,167,172,1,1676
20.516016007,0,1,0,0,-3,-1,0,0,0,-170,-15,245,-43,-73,41,0,0,0,170,169,167,172,1,1677
20.526938915,0,1,0,0,-6,-1,0,0,0,-145,-212,13,-43,-64,28,0,0,0,170,169,167,172,1,1678
20.538038969,0,1,0,0,4,0,0,0,0,-145,-212,13,-43,-64,28,0,0,0,170,169,166,173,1,1679
20.55199194,0,1,0,0,4,0,0,0,0,0,17,73,-38,-45,15,0,0,0,169,170,172,167,1,1680
20.56802702,0,1,0,0,-3,-1,0,0,0,0,17,73,-38,-45,15,0,0,0,169,170,168,171,1,1681
20.579082012,0,0,0,1,5,0,0,0,0,-15,-48,201,-31,-24,3,0,0,0,169,170,168,171,1,1682
20.590029955,0,0,0,1,5,0,0,0,0,-15,-48,201,-31,-24,3,0,0,0,169,170,173,166,1,1683
20.601078987,0,0,0,0,0,0,0,0,0,-15,-48,201,-31,-24,3,0,0,0,169,170,173,166,1,1684
20.618984938,0,0,0,0,0,0,0,0,0,-140,-19,233,-28,-6,251,0,0,0,170,169,169,170,1,1685
20.629951954,0,0,0,-1,-4,0,0,0,0,38,26,220,-29,2,248,0,0,0,170,169,169,170,1,1686
20.640988827,0,0,0,-1,-4,0,0,0,0,38,26,220,-29,2,248,0,0,0,171,168,167,172,1,1687
20.652129889,0,0,0,0,-2,0,0,0,0,38,26,220,-29,2,248,0,0,0,170,169,168,171,1,1688
20.670033932,0,0,0,0,-2,0,0,0,0,11,37,18,-35,2,248,0,0,0,170,169,168,171,1,1689
20.681226015,0,0,0,0,0,0,0,0,0,59,72,180,-43,-5,251,0,0,0,170,169,168,171,1,1690
20.692083836,0,0,0,0,-2,0,0,0,0,59,72,180,-43,-5,251,0,0,0,170,169,170,169,1,1691
20.70301795,0,0,0,0,-2,0,0,0,0,59,72,180,-43,-5,251,0,0,0,170,169,168,171,1,1692
20.721978903,0,0,0,1,2,-1,0,0,0,44,45,106,-50,-15,253,0,0,0,169,170,171,168,1,1693
20.733009815,0,0,0,1,3,0,0,0,0,29,-55,105,-53,-22,253,0,0,0,169,170,171,168,1,1694
20.744140864,0,0,0,1,3,0,0,0,0,29,-55,105,-53,-22,253,0,0,0,168,171,171,168,1,1695
20.755074024,0,0,0,0,-2,0,0,0,0,29,-55,105,-53,-22,253,0,0,0,168,171,171,168,1,1696
20.774149895,0,0,0,0,0,0,0,0,0,17,115,124,-49,-24,249,0,0,0,169,170,169,170,1,1697
20.785133839,0,0,0,-1,-2,0,0,0,0,-73,117,67,-37,-18,244,0,0,0,169,170,169,170,1,1698
20.796485901,0,0,0,-1,0,0,0,0,0,-73,117,67,-37,-18,244,0,0,0,170,169,168,171,1,1699
20.806939841,0,0,0,-1,0,0,0,0,0,-202,-106,156,-21,-7,238,0,0,0,171,168,169,170,1,1700
20.826112986,0,0,0,-1,0,0,0,0,0,-202,-106,156,-21,-7,238,0,0,0,170,169,169,170,1,1701
20.837243796,0,0,0,0,3,1,0,0,0,12,3,87,-3,8,236,0,0,0,170,169,169,170,1,1702
20.852217913,0,0,0,0,3,1,0,0,0,12,3,87,-3,8,236,0,0,0,169,170,172,167,1,1703
20.859036923,0,0,0,0,0,0,0,0,0,12,3,87,-3,8,236,0,0,0,170,169,169,170,1,1704
20.877337933,0,0,0,0,0,0,0,0,0,-109,7,75,10,24,239,0,0,0,170,169,169,170,1,1705
20.887992859,0,0,0,0,-4,-1,0,0,0,-82,110,104,14,37,247,0,0,0,170,169,169,170,1,1706
20.899012804,0,0,0,0,-4,-1,0,0,0,-82,110,104,14,37,247,0,0,0,170,169,167,172,1,1707
20.910018921,0,0,0,0,0,0,0,0,0,-82,110,104,14,37,247,0,0,0,169,170,170,169,1,1708
20.929122925,0,0,0,0,0,0,0,0,0,43,51,165,8,45,4,0,0,0,169,170,170,169,1,1709
20.940104008,0,0,0,0,3,0,0,0,0,-40,28,30,-7,46,18,0,0,0,169,170,170,169,1,1710
20.951121807,0,0,0,0,-2,-1,0,0,0,-40,28,30,-7,46,18,0,0,0,170,169,171,168,1,1711
20.962040901,0,0,0,0,-2,-1,0,0,0,-40,28,30,-7,46,18,0,0,0,170,169,168,171,1,1712
20.981006861,0,0,0,0,-1,0,0,0,0,-37,-162,56,-28,43,32,0,0,0,170,169,169,170,1,1713
20.992100954,0,0,0,0,-2,0,0,0,0,-54,-12,56,-48,37,43,0,0,0,170,169,169,170,1,1714
21.003197909,0,0,0,0,-2,0,0,0,0,-54,-12,56,-48,37,43,0,0,0,170,169,168,171,1,1715
21.013972998,0,0,0,1,5,1,0,0,0,-54,-12,56,-48,37,43,0,0,0,168,171,173,166,1,1716
21.033021927,0,-1,0,0,-1,0,0,0,0,-56,-96,29,-63,29,48,0,0,0,170,169,168,171,1,1717
21.043962956,0,-1,0,1,5,-1,0,0,0,-41,-23,95,-71,20,49,0,0,0,170,169,168,171,1,1718
21.054953814,0,-1,0,1,5,-1,0,0,0,-41,-23,95,-71,20,49,0,0,0,169,170,173,166,1,1719
21.065951824,0,-1,0,-1,-3,0,0,0,0,-41,-23,95,-71,20,49,0,0,0,169,170,173,166,1,1720
21.084129811,0,-1,0,-1,-3,0,0,0,0,-18,-116,44,-71,9,46,0,0,0,170,169,167,172,1,1721
21.09513402,0,-1,0,-1,-4,-1,0,0,0,46,-48,126,-65,-4,42,0,0,0,170,169,167,172,1,1722
21.105947018,0,-1,0,-1,-4,-1,0,0,0,46,-48,126,-65,-4,42,0,0,0,170,169,167,172,1,1723
21.117297888,0,-1,0,0,0,-1,0,0,0,46,-48,126,-65,-4,42,0,0,0,170,169,167,172,1,1724
21.134959936,0,-1,0,0,0,-1,0,0,0,79,-170,160,-55,-20,38,0,0,0,170,169,170,169,1,1725
21.146149874,0,-1,0,0,1,0,0,0,0,39,-37,65,-44,-37,34,0,0,0,170,169,170,169,1,1726
21.157339812,0,-1,0,0,1,0,0,0,0,39,-37,65,-44,-37,34,0,0,0,169,170,170,169,1,1727
21.169135809,0,-1,0,0,1,0,0,0,0,39,-37,65,-44,-37,34,0,0,0,169,170,171,168,1,1728
21.185966015,0,-2,0,0,1,0,0,0,0,-76,-47,94,-31,-54,29,0,0,0,169,170,171,168,1,1729
21.197055817,0,-2,0,0,1,0,0,0,0,-140,-90,143,-18,-69,22,0,0,0,169,170,171,168,1,1730
21.208117008,0,-2,0,1,3,0,0,0,0,-140,-90,143,-18,-69,22,0,0,0,169,170,170,169,1,1731
21.219033003,0,-2,0,1,3,0,0,0,0,-140,-90,143,-18,-69,22,0,0,0,169,170,171,168,1,1732
21.238247872,0,-2,0,0,0,0,0,0,0,-114,-32,216,-5,-80,13,0,0,0,170,169,169,170,1,1733
21.249077797,0,-2,0,0,-2,0,0,0,0,-30,-170,77,3,-88,3,0,0,0,170,169,169,170,1,1734
21.260211945,0,-2,0,0,-2,0,0,0,0,-30,-170,77,3,-88,3,0,0,0,170,169,168,171,1,1735
21.270990849,0,-2,0,-1,-1,-1,0,0,0,-30,-170,77,3,-88,3,0,0,0,170,169,168,171,1,1736
21.29012084,0,-2,0,0,0,0,0,0,0,-5,-68,77,5,-91,251,0,0,0,170,169,169,170,1,1737
21.301040888,0,-2,0,1,1,-1,0,0,0,-204,-66,110,0,-90,244,0,0,0,170,169,169,170,1,1738
21.312052012,0,-2,0,1,1,-1,0,0,0,-204,-66,110,0,-90,244,0,0,0,169,170,171,168,1,1739
21.323020935,0,-2,0,0,0,0,0,0,0,-204,-66,110,0,-90,244,0,0,0,169,170,171,168,1,1740
21.343111992,-1,-2,0,0,0,0,0,0,0,-140,-88,161,-13,-87,241,0,0,0,169,170,170,169,1,1741
21.352916956,-1,-2,0,0,0,0,0,0,0,10,-148,247,-32,-84,241,0,0,0,169,170,170,169,1,1742
21.36420393,-1,-2,0,0,0,0,0,0,0,10,-148,247,-32,-84,241,0,0,0,169,170,170,169,1,1743
21.374996901,-1,-2,0,0,-1,-2,0,0,0,10,-148,247,-32,-84,241,0,0,0,169,170,170,169,1,1744
21.393085957,-1,-2,0,0,-1,-2,0,0,0,-99,-18,6,-53,-81,242,0,0,0,169,170,169,170,1,1745
21.404096842,-2,-2,0,0,1,1,0,0,0,-41,-91,93,-73,-80,242,0,0,0,169,170,169,170,1,1746
21.414954901,-2,-2,0,0,1,1,0,0,0,-41,-91,93,-73,-80,242,0,0,0,169,170,170,169,1,1747
21.426362992,-2,-2,0,0,0,0,0,0,0,-41,-91,93,-73,-80,242,0,0,0,170,169,169,170,1,1748
21.443967819,-2,-2,0,0,0,0,0,0,0,-124,13,123,-90,-81,239,0,0,0,170,169,169,170,1,1749
21.455039025,-2,-2,0,0,-3,-3,0,0,0,-87,-52,82,-101,-82,234,0,0,0,170,169,169,170,1,1750
21.468302965,-2,-2,0,0,3,1,0,0,0,-87,-52,82,-101,-82,234,0,0,0,170,169,167,172,1,1751
21.477207899,-2,-2,0,0,3,1,0,0,0,-87,-52,82,-101,-82,234,0,0,0,169,170,172,167,1,1752
21.496024847,-3,-3,0,0,2,0,0,0,0,-24,110,95,-104,-83,225,0,0,0,169,170,171,168,1,1753
21.507229805,-3,-3,0,1,2,1,0,0,0,-68,105,153,-102,-80,214,0,0,0,169,170,171,168,1,1754
21.518004894,-3,-3,0,1,2,1,0,0,0,-68,105,153,-102,-80,214,0,0,0,169,170,171,168,1,1755
21.529165983,-3,-3,0,0,-4,-1,0,0,0,-68,105,153,-102,-80,214,0,0,0,170,169,167,172,1,1756
21.548085928,-3,-3,0,0,0,0,0,0,0,-91,102,117,-96,-73,206,0,0,0,169,170,169,170,1,1757
21.559293986,-3,-4,0,0,-5,-2,0,0,0,-36,-103,43,-87,-59,201,0,0,0,169,170,169,170,1,1758
21.570042849,-3,-4,0,0,-5,-2,0,0,0,-36,-103,43,-87,-59,201,0,0,0,170,169,166,173,1,1759
21.584229946,-3,-3,0,0,4,1,0,0,0,-36,-103,43,-87,-59,201,0,0,0,170,169,166,173,1,1760
21.59997201,-4,-4,0,0,4,1,0,0,0,-63,67,25,-78,-38,201,0,0,0,169,170,172,167,1,1761
21.609948874,-4,-4,0,0,7,1,0,0,0,-48,-81,121,-70,-13,206,0,0,0,169,170,172,167,1,1762
21.621030808,-4,-4,0,0,7,1,0,0,0,-48,-81,121,-70,-13,206,0,0,0,169,170,174,165,1,1763
21.632141829,-4,-4,0,-1,-1,0,0,0,0,-48,-81,121,-70,-13,206,0,0,0,170,169,169,170,1,1764
21.650143862,-4,-4,0,-1,-1,0,0,0,0,36,94,252,-63,12,212,0,0,0,170,169,169,170,1,1765
21.661050797,-4,-5,0,0,-5,0,0,0,0,-35,-47,241,-59,32,219,0,0,0,170,169,169,170,1,1766
21.67215395,-4,-5,0,0,-5,0,0,0,0,-35,-47,241,-59,32,219,0,0,0,169,170,166,173,1,1767
21.683095932,-4,-5,0,1,-1,-2,0,0,0,-35,-47,241,-59,32,219,0,0,0,169,170,168,171,1,1768
21.704020024,-4,-5,0,1,-1,-2,0,0,0,8,0,28,-55,45,225,0,0,0,169,170,168,171,1,1769
21.71299696,-4,-5,0,0,0,-2,0,0,0,70,108,144,-51,48,229,0,0,0,169,170,168,171,1,1770
21.724120856,-3,-5,0,-2,-2,0,0,0,0,70,108,144,-51,48,229,0,0,0,170,169,169,170,1,1771
21.734956026,-3,-5,0,-2,-2,0,0,0,0,70,108,144,-51,48,229,0,0,0,171,168,168,171,1,1772
21.754596949,-3,-5,0,0,4,1,0,0,0,-53,28,192,-45,44,231,0,0,0,170,169,172,167,1,1773
21.764069796,-3,-5,0,0,3,0,0,0,0,-38,-24,9,-37,34,231,0,0,0,170,169,172,167,1,1774
21.774993897,-3,-5,0,0,3,0,0,0,0,-38,-24,9,-37,34,231,0,0,0,170,169,172,167,1,1775
21.785948992,-3,-5,0,0,0,0,0,0,0,-38,-24,9,-37,34,231,0,0,0,169,170,170,169,1,1776
21.805086851,-3,-5,0,0,0,0,0,0,0,10,-42,228,-27,23,229,0,0,0,169,170,170,169,1,1777
21.816070795,-3,-6,0,0,-3,0,0,0,0,3,157,125,-16,14,227,0,0,0,169,170,170,169,1,1778
21.826993942,-3,-5,0,0,0,0,0,0,0,3,157,125,-16,14,227,0,0,0,170,169,167,172,1,1779
21.843206883,-3,-5,0,0,0,0,0,0,0,3,157,125,-16,14,227,0,0,0,169,170,170,169,1,1780
21.857015848,-2,-5,0,1,2,0,0,0,0,74,-7,183,-7,8,223,0,0,0,168,171,171,168,1,1781
21.867964983,-2,-5,0,0,3,0,0,0,0,-10,73,217,0,6,219,0,0,0,168,171,171,168,1,1782
21.879096985,-2,-5,0,0,3,0,0,0,0,-10,73,217,0,6,219,0,0,0,169,170,171,168,1,1783
21.889181853,-2,-5,0,-1,0,0,0,0,0,-10,73,217,0,6,219,0,0,0,170,169,170,169,1,1784
21.90819788,-2,-5,0,-1,0,0,0,0,0,-56,-32,11,4,9,214,0,0,0,170,169,170,169,1,1785
21.91911602,-2,-5,0,0,0,0,0,0,0,37,3,181,7,14,209,0,0,0,170,169,170,169,1,1786
21.930016995,-2,-5,0,0,0,0,0,0,0,37,3,181,7,14,209,0,0,0,170,169,169,170,1,1787
21.940982819,-2,-5,0,0,0,0,0,0,0,37,3,181,7,14,209,0,0,0,169,170,169,170,1,1788
21.960109949,-2,-5,0,0,0,0,0,1,0,96,37,175,8,22,204,0,0,0,170,169,169,170,1,1789
21.971101999,-2,-5,0,0,-1,-2,0,1,0,-38,45,165,8,29,201,0,0,0,170,169,169,170,1,1790
21.981945992,-2,-5,0,0,-1,-2,0,1,0,-38,45,165,8,29,201,0,0,0,169,170,169,170,1,1791
21.992980957,-2,-5,0,0,0,0,0,0,0,-38,45,165,8,29,201,0,0,0,169,170,169,170,1,1792
22.012085915,-1,-5,0,0,-2,-2,0,0,0,31,19,148,8,33,199,0,0,0,170,169,168,171,1,1793
22.02301693,-1,-5,0,0,0,0,0,0,0,62,133,122,9,35,198,0,0,0,170,169,168,171,1,1794
22.034288883,-1,-5,0,0,0,0,0,0,0,62,133,122,9,35,198,0,0,0,170,169,170,169,1,1795
22.044957876,-1,-4,0,0,3,1,0,0,0,62,133,122,9,35,198,0,0,0,169,170,172,167,1,1796
22.063025952,-1,-4,0,0,0,0,0,0,0,31,-83,120,10,34,196,0,0,0,169,170,170,169,1,1797
22.076749802,-1,-4,0,0,2,2,0,0,0,7,16,46,13,32,193,0,0,0,169,170,170,169,1,1798
22.085013867,-1,-4,0,0,2,2,0,0,0,7,16,46,13,32,193,0,0,0,169,170,171,168,1,1799
22.096036911,-1,-4,0,-1,-5,-2,0,0,0,7,16,46,13,32,193,0,0,0,169,170,171,168,1,1800
22.115039826,-1,-4,0,0,1,1,0,0,0,-110,-85,32,17,30,187,0,0,0,170,169,170,169,1,1801
22.126063824,0,-4,0,-1,-4,-2,0,0,0,-53,86,173,21,28,180,0,0,0,170,169,170,169,1,1802
22.137130022,0,-4,0,-1,-4,-2,0,0,0,-53,86,173,21,28,180,0,0,0,170,169,167,172,1,1803
22.148342848,0,-4,0,0,3,0,0,0,0,-53,86,173,21,28,180,0,0,0,169,170,172,167,1,1804
22.168112993,0,-4,0,0,3,0,0,0,0,53,-117,47,23,25,175,0,0,0,169,170,172,167,1,1805
22.177067995,0,-3,0,0,5,0,0,0,0,65,92,45,22,20,173,0,0,0,169,170,172,167,1,1806
22.188095808,0,-3,0,0,-3,-2,0,0,0,65,92,45,22,20,173,0,0,0,169,170,173,166,1,1807
22.199048996,0,-3,0,0,-3,-2,0,0,0,65,92,45,22,20,173,0,0,0,169,170,167,172,1,1808
22.218989849,0,-3,0,1,5,1,0,0,0,-29,-8,16,17,14,175,0,0,0,168,171,173,166,1,1809
22.22892499,0,-3,0,-1,-3,0,0,0,0,183,120,134,9,6,180,0,0,0,168,171,173,166,1,1810
22.23997283,0,-3,0,-1,-3,0,0,0,0,183,120,134,9,6,180,0,0,0,170,169,168,171,1,1811
22.251017809,0,-3,0,1,6,1,0,0,0,183,120,134,9,6,180,0,0,0,169,170,173,166,1,1812
22.270047903,0,-3,0,0,-2,0,0,0,0,77,135,89,2,0,187,0,0,0,169,170,168,171,1,1813
22.280994892,0,-3,0,0,-1,-2,0,0,0,-159,-24,102,-1,-3,195,0,0,0,169,170,168,171,1,1814
22.292105913,0,-3,0,-1,-4,0,0,1,0,-159,-24,102,-1,-3,195,0,0,0,169,170,169,170,1,1815
22.303149939,0,-3,0,-1,-4,0,0,1,0,-159,-24,102,-1,-3,195,0,0,0,171,168,167,172,1,1816
22.322130919,0,-2,0,0,5,1,0,1,0,12,64,247,0,0,201,0,0,0,169,170,173,166,1,1817
22.333681822,0,-2,0,0,4,1,0,1,0,-44,-63,18,6,7,206,0,0,0,169,170,173,166,1,1818
22.344062805,0,-2,0,0,4,1,0,1,0,-44,-63,18,6,7,206,0,0,0,169,170,172,167,1,1819
22.354970932,0,-2,0,0,0,-1,0,0,0,-44,-63,18,6,7,206,0,0,0,169,170,172,167,1,1820
22.373065949,0,-2,0,0,0,-1,0,0,0,-76,-85,42,15,19,209,0,0,0,169,170,169,170,1,1821
22.384310007,0,-2,0,0,-3,0,0,0,0,-95,-81,74,22,32,212,0,0,0,169,170,169,170,1,1822
22.395259857,0,-2,0,0,2,0,0,0,0,-95,-81,74,22,32,212,0,0,0,170,169,168,171,1,1823
22.406052828,0,-2,0,0,2,0,0,0,0,-95,-81,74,22,32,212,0,0,0,170,169,171,168,1,1824
22.425127983,0,-2,0,1,2,0,0,0,0,-58,76,254,22,41,218,0,0,0,169,170,171,168,1,1825
22.436231852,0,-2,0,1,1,0,0,0,0,-96,-157,220,15,42,228,0,0,0,169,170,171,168,1,1826
22.447037935,0,-2,0,1,1,0,0,0,0,-96,-157,220,15,42,228,0,0,0,169,170,170,169,1,1827
22.458069802,0,-2,0,-1,-3,0,0,0,0,-96,-157,220,15,42,228,0,0,0,170,169,168,171,1,1828
22.477205992,0,-2,0,-1,-3,0,0,0,0,-14,56,251,1,34,241,0,0,0,170,169,168,171,1,1829
22.488158941,0,-2,0,-1,0,0,0,0,0,-102,43,109,-18,19,255,0,0,0,170,169,168,171,1,1830
22.499060869,0,-2,0,1,2,0,0,0,0,-102,43,109,-18,19,255,0,0,0,170,169,169,170,1,1831
22.509977818,0,-2,0,1,2,0,0,0,0,-102,43,109,-18,19,255,0,0,0,169,170,171,168,1,1832
22.528993845,0,-2,0,0,1,0,0,0,0,-91,18,144,-39,0,13,0,0,0,170,169,170,169,1,1833
22.540091992,0,-2,0,1,1,0,0,0,0,-30,-88,40,-59,-19,23,0,0,0,170,169,170,169,1,1834
22.551116944,0,-2,0,1,1,0,0,0,0,-30,-88,40,-59,-19,23,0,0,0,169,170,170,169,1,1835
22.562037945,0,-2,0,0,-1,0,0,0,0,-30,-88,40,-59,-19,23,0,0,0,169,170,169,170,1,1836
22.580022812,0,-2,0,0,-1,0,0,0,0,-114,-53,206,-75,-33,31,0,0,0,169,170,169,170,1,1837
22.591117859,0,-2,0,0,-1,0,0,0,0,-29,-102,63,-85,-39,34,0,0,0,169,170,169,170,1,1838
22.601982832,0,-2,0,0,-1,0,0,0,0,-29,-102,63,-85,-39,34,0,0,0,170,169,168,171,1,1839
22.613197804,0,-2,0,0,1,1,0,0,0,-29,-102,63,-85,-39,34,0,0,0,170,169,168,171,1,1840
22.63099885,0,-2,0,0,1,1,0,0,0,67,163,113,-89,-39,33,0,0,0,170,169,171,168,1,1841
22.642040014,0,-2,0,0,3,1,0,0,0,66,-99,60,-87,-35,27,0,0,0,170,169,171,168,1,1842
22.652983904,0,-2,0,0,2,0,0,0,0,66,-99,60,-87,-35,27,0,0,0,169,170,172,167,1,1843
22.664086819,0,-2,0,0,2,0,0,0,0,66,-99,60,-87,-35,27,0,0,0,170,169,171,168,1,1844
22.684171915,0,-2,0,0,3,2,0,0,0,64,-137,126,-80,-29,18,0,0,0,169,170,172,167,1,1845
22.694181919,0,-3,0,0,-3,-1,0,0,0,18,-122,54,-67,-24,6,0,0,0,169,170,172,167,1,1846
22.70525384,0,-3,0,0,-3,-1,0,0,0,18,-122,54,-67,-24,6,0,0,0,169,170,167,172,1,1847
22.715996981,0,-3,0,0,2,0,0,0,0,18,-122,54,-67,-24,6,0,0,0,169,170,167,172,1,1848
22.73406291,0,-3,0,0,2,0,0,0,0,0,-19,99,-50,-20,250,0,0,0,169,170,171,168,1,1849
22.744973898,0,-3,0,0,2,0,0,1,0,20,-95,116,-28,-21,238,0,0,0,169,170,171,168,1,1850
22.756160975,0,-3,0,-1,-4,-1,0,1,0,20,-95,116,-28,-21,238,0,0,0,170,169,171,168,1,1851
22.766968012,0,-3,0,-1,-4,-1,0,1,0,20,-95,116,-28,-21,238,0,0,0,170,169,167,172,1,1852
22.786136866,0,-3,0,0,0,1,0,1,0,-36,-88,174,-5,-27,227,0,0,0,170,169,170,169,1,1853
22.796993017,0,-3,0,0,0,0,0,1,0,-25,8,8,15,-38,220,0,0,0,170,169,170,169,1,1854
22.808117867,0,-3,0,0,0,0,0,1,0,-25,8,8,15,-38,220,0,0,0,170,169,169,170,1,1855
22.819010019,0,-3,0,1,6,2,0,1,0,-25,8,8,15,-38,220,0,0,0,169,170,173,166,1,1856
22.844344855,0,-3,0,1,6,2,0,1,0,-19,27,0,30,-51,216,0,0,0,169,170,173,166,1,1857
22.849589825,0,-3,0,0,-3,-1,0,0,0,-4,103,105,38,-63,215,0,0,0,169,170,173,166,1,1858
22.860157967,0,-3,0,0,-3,-1,0,0,0,-4,103,105,38,-63,215,0,0,0,169,170,168,171,1,1859
22.872659922,0,-3,0,-1,-3,0,0,0,0,-4,103,105,38,-63,215,0,0,0,169,170,168,171,1,1860
22.888959885,0,-3,0,-1,-3,0,0,0,0,-151,-157,160,37,-71,215,0,0,0,170,169,167,172,1,1861
22.90012002,-1,-3,0,0,5,1,0,0,0,-5,-84,248,28,-72,216,0,0,0,170,169,167,172,1,1862
22.911089897,-1,-3,0,0,0,-2,0,0,0,-5,-84,248,28,-72,216,0,0,0,170,169,173,166,1,1863
22.922004938,-1,-3,0,0,0,-2,0,0,0,-5,-84,248,28,-72,216,0,0,0,170,169,169,170,1,1864
22.941164017,-1,-2,0,-1,-3,0,0,0,0,44,3,34,13,-65,216,0,0,0,170,169,167,172,1,1865
22.952294827,-1,-2,0,0,0,-2,0,0,0,-98,-65,153,-4,-53,214,0,0,0,170,169,167,172,1,1866
22.967940808,-1,-2,0,0,0,-2,0,0,0,-98,-65,153,-4,-53,214,0,0,0,169,170,170,169,1,1867
22.974018812,-1,-2,0,1,4,0,0,0,0,-98,-65,153,-4,-53,214,0,0,0,169,170,172,167,1,1868
22.992025852,-1,-2,0,1,4,0,0,0,0,12,-180,111,-22,-40,210,0,0,0,169,170,172,167,1,1869
23.003024817,-2,-2,0,1,2,0,0,0,0,11,137,58,-37,-29,207,0,0,0,169,170,172,167,1,1870
23.014089823,-2,-2,0,1,2,0,0,0,0,11,137,58,-37,-29,207,0,0,0,169,170,171,168,1,1871
23.024966955,-2,-2,0,0,-4,0,0,0,0,11,137,58,-37,-29,207,0,0,0,170,169,167,172,1,1872
23.043087959,-2,-2,0,0,-4,0,0,0,0,-14,-21,53,-46,-24,203,0,0,0,170,169,167,172,1,1873
23.056234837,-2,-2,0,-1,-4,0,0,0,0,16,47,214,-49,-24,201,0,0,0,170,169,167,172,1,1874
23.06503892,-2,-2,0,-1,0,0,0,0,0,16,47,214,-49,-24,201,0,0,0,171,168,167,172,1,1875
23.076025009,-2,-2,0,-1,0,0,0,0,0,16,47,214,-49,-24,201,0,0,0,171,168,169,170,1,1876
23.094940901,-2,-2,0,-1,-2,0,0,0,0,5,52,238,-46,-28,202,0,0,0,170,169,168,171,1,1877
23.106015921,-2,-3,0,1,3,0,0,0,0,69,79,121,-38,-31,205,0,0,0,170,169,168,171,1,1878
23.117180824,-2,-3,0,1,3,0,0,0,0,69,79,121,-38,-31,205,0,0,0,168,171,171,168,1,1879
23.128306866,-2,-3,0,0,0,0,0,0,0,69,79,121,-38,-31,205,0,0,0,168,171,171,168,1,1880
23.146028996,-2,-3,0,0,0,0,0,0,0,-60,-120,132,-26,-31,213,0,0,0,169,170,169,170,1,1881
23.157024861,-2,-3,0,0,-1,0,0,0,0,-22,100,62,-13,-25,225,0,0,0,169,170,169,170,1,1882
23.168327809,-2,-3,0,0,0,-1,0,0,0,-22,100,62,-13,-25,225,0,0,0,169,170,169,170,1,1883
23.179051876,-2,-3,0,0,0,-1,0,0,0,-22,100,62,-13,-25,225,0,0,0,169,170,170,169,1,1884
23.198174954,-2,-3,0,0,0,0,0,-1,0,37,-23,120,0,-14,241,0,0,0,169,170,169,170,1,1885
23.211972952,-2,-3,0,-1,0,1,0,-1,0,109,128,212,8,-1,3,0,0,0,169,170,169,170,1,1886
23.21997881,-2,-3,0,-1,0,1,0,-1,0,109,128,212,8,-1,3,0,0,0,170,169,170,169,1,1887
23.230014801,-2,-3,0,-1,-1,0,0,0,0,109,128,212,8,-1,3,0,0,0,171,168,168,171,1,1888
23.249143839,-2,-3,0,-1,-1,0,0,0,0,49,25,24,14,12,22,0,0,0,171,168,168,171,1,1889
23.260998964,-2,-3,0,0,-1,-2,0,0,0,35,-68,3,17,24,36,0,0,0,171,168,168,171,1,1890
23.271095991,-2,-3,0,1,5,2,0,0,0,35,-68,3,17,24,36,0,0,0,170,169,168,171,1,1891
23.281986952,-2,-3,0,1,5,2,0,0,0,35,-68,3,17,24,36,0,0,0,169,170,173,166,1,1892
23.301369906,-2,-3,0,1,1,0,0,0,0,70,-85,200,19,33,43,0,0,0,169,170,170,169,1,1893
23.31205082,-2,-2,0,1,1,0,0,0,0,0,89,9,22,37,41,0,0,0,169,170,170,169,1,1894
23.323037863,-2,-2,0,1,1,0,0,0,0,0,89,9,22,37,41,0,0,0,168,171,170,169,1,1895
23.333983898,-2,-2,0,0,-5,-2,0,0,0,0,89,9,22,37,41,0,0,0,170,169,166,173,1,1896
23.352015972,-2,-2,0,0,-5,-2,0,0,0,-39,-25,233,26,37,31,0,0,0,170,169,166,173,1,1897
23.363004923,-2,-2,0,-2,0,2,0,0,0,-34,156,65,31,32,17,0,0,0,170,169,166,173,1,1898
23.374136925,-2,-2,0,-2,0,2,0,0,0,-34,156,65,31,32,17,0,0,0,171,168,170,169,1,1899
23.385111809,-2,-2,0,0,4,0,0,0,0,-34,156,65,31,32,17,0,0,0,171,168,170,169,1,1900
23.40298295,-2,-2,0,0,4,0,0,0,0,-25,14,194,35,24,0,0,0,0,170,169,172,167,1,1901
23.413978815,-1,-2,0,1,6,1,0,0,0,-30,-11,222,37,15,239,0,0,0,170,169,172,167,1,1902
23.424986839,-1,-2,0,0,-2,1,0,0,0,-30,-11,222,37,15,239,0,0,0,169,170,173,166,1,1903
23.436127901,-1,-2,0,0,-2,1,0,0,0,-30,-11,222,37,15,239,0,0,0,169,170,168,171,1,1904
23.454896927,-1,-2,0,3,4,1,0,0,0,4,-2,198,34,9,223,0,0,0,167,172,172,167,1,1905
23.465952873,-1,-1,0,0,-2,0,0,0,0,-78,100,123,26,7,208,0,0,0,167,172,172,167,1,1906
23.477010966,-1,-1,0,0,-2,0,0,0,0,-78,100,123,26,7,208,0,0,0,170,169,168,171,1,1907
23.488025904,-1,-1,0,-1,-2,-2,0,0,0,-78,100,123,26,7,208,0,0,0,170,169,168,171,1,1908
23.506072998,-1,-1,0,-1,-2,-2,0,0,0,32,-87,189,14,10,196,0,0,0,170,169,168,171,1,1909
23.519178868,-1,-1,0,-1,0,-2,0,1,0,195,-31,201,0,15,187,0,0,0,170,169,168,171,1,1910
23.527981997,-1,-1,0,-1,-2,0,0,1,0,195,-31,201,0,15,187,0,0,0,171,168,169,170,1,1911
23.539001942,-1,-1,0,-1,-2,0,0,1,0,195,-31,201,0,15,187,0,0,0,171,168,168,171,1,1912
23.558075905,-1,-1,0,0,1,-2,0,1,0,-72,13,249,-12,21,181,0,0,0,169,170,170,169,1,1913
23.569012881,-1,-1,0,2,4,0,0,0,0,7,77,137,-21,24,177,0,0,0,169,170,170,169,1,1914
23.580099821,-1,-1,0,2,4,0,0,0,0,7,77,137,-21,24,177,0,0,0,168,171,172,167,1,1915
23.590929032,-1,-1,0,0,-4,0,0,0,0,7,77,137,-21,24,177,0,0,0,169,170,167,172,1,1916
23.608981848,-1,-1,0,0,-4,0,0,0,0,128,141,100,-23,24,176,0,0,0,169,170,167,172,1,1917
23.62015295,0,-1,0,0,-3,0,0,0,0,143,32,157,-17,22,177,0,0,0,169,170,167,172,1,1918
23.631206989,0,-1,0,0,-3,0,0,0,0,143,32,157,-17,22,177,0,0,0,170,169,167,172,1,1919
23.641929865,0,-1,0,-1,1,0,0,0,0,143,32,157,-17,22,177,0,0,0,170,169,167,172,1,1920
23.661041975,0,-1,0,-1,1,0,0,0,0,19,-87,120,-5,18,179,0,0,0,170,169,170,169,1,1921
23.672005892,0,-1,0,0,3,0,0,-1,-1,72,88,248,11,17,180,0,0,0,170,169,170,169,1,1922
23.682942867,0,-1,0,-1,-2,0,0,-1,-1,72,88,248,11,17,180,0,0,0,169,170,172,167,1,1923
23.693962813,0,-1,0,-1,-2,0,0,-1,-1,72,88,248,11,17,180,0,0,0,170,169,168,171,1,1924
23.713078976,0,-1,0,0,-1,0,0,-1,0,1,164,219,31,18,182,0,0,0,170,169,169,170,1,1925
23.72397995,0,-1,0,0,-2,0,0,0,0,-89,-47,12,50,22,185,0,0,0,170,169,169,170,1,1926
23.735014916,0,-1,0,0,-2,0,0,0,0,-89,-47,12,50,22,185,0,0,0,169,170,168,171,1,1927
23.7460289,0,-1,0,1,2,0,0,0,0,-89,-47,12,50,22,185,0,0,0,169,170,168,171,1,1928
23.764019013,0,-1,0,1,2,0,0,0,0,23,-62,81,65,28,192,0,0,0,169,170,171,168,1,1929
23.774960995,0,0,0,0,0,0,0,0,0,-38,47,5,73,35,202,0,0,0,169,170,171,168,1,1930
23.786077023,0,0,0,0,0,0,0,0,0,-38,47,5,73,35,202,0,0,0,170,169,170,169,1,1931
23.797377825,0,0,0,-1,0,0,0,0,0,-38,47,5,73,35,202,0,0,0,170,169,170,169,1,1932
23.816069842,0,0,0,0,3,0,0,0,0,-21,149,193,71,41,215,0,0,0,169,170,172,167,1,1933
23.82818985,0,0,0,0,0,0,0,0,0,-1,-54,230,60,44,232,0,0,0,169,170,172,167,1,1934
23.837992907,0,0,0,0,0,0,0,0,0,-1,-54,230,60,44,232,0,0,0,169,170,170,169,1,1935
23.849028826,0,0,0,1,0,0,0,0,0,-1,-54,230,60,44,232,0,0,0,169,170,169,170,1,1936
23.866919995,0,0,0,1,0,0,0,0,0,-57,90,107,42,44,248,0,0,0,169,170,169,170,1,1937
23.878026962,0,0,0,0,1,1,0,0,0,-43,40,166,20,41,6,0,0,0,169,170,169,170,1,1938
23.888955832,0,0,0,0,1,1,0,0,0,-43,40,166,20,41,6,0,0,0,169,170,170,169,1,1939
23.899981022,0,0,0,-1,-1,-1,0,0,0,-43,40,166,20,41,6,0,0,0,171,168,168,171,1,1940
23.918917895,0,0,0,-1,-1,-1,0,0,0,4,10,121,-1,38,16,0,0,0,171,168,168,171,1,1941
23.930012942,0,0,0,0,-2,-1,0,0,0,-66,-16,250,-20,35,23,0,0,0,171,168,168,171,1,1942
23.941038847,0,0,0,0,-2,-1,0,0,0,-66,-16,250,-20,35,23,0,0,0,170,169,168,171,1,1943
23.95626092,0,0,0,0,1,0,0,0,0,-66,-16,250,-20,35,23,0,0,0,169,170,170,169,1,1944
23.970034838,1,0,0,0,1,0,0,0,0,-131,5,121,-34,33,27,0,0,0,169,170,170,169,1,1945
23.983608008,1,0,0,0,1,0,0,0,0,51,71,14,-43,32,29,0,0,0,169,170,170,169,1,1946
23.992009878,1,0,0,0,-3,0,0,0,0,51,71,14,-43,32,29,0,0,0,169,170,170,169,1,1947
24.00313592,1,0,0,0,-3,0,0,0,0,51,71,14,-43,32,29,0,0,0,169,170,167,172,1,1948
24.022074938,1,0,0,0,2,0,0,0,0,-12,15,125,-47,31,29,0,0,0,170,169,171,168,1,1949
24.033062935,1,0,0,0,0,0,0,0,0,-8,-169,53,-47,29,28,0,0,0,170,169,171,168,1,1950
24.043973923,1,0,0,0,0,0,0,0,0,-8,-169,53,-47,29,28,0,0,0,169,170,170,169,1,1951
24.055158854,1,0,0,0,-1,0,0,0,0,-8,-169,53,-47,29,28,0,0,0,170,169,168,171,1,1952
24.072945833,1,0,0,0,-1,0,0,0,0,41,-5,93,-45,26,25,0,0,0,170,169,168,171,1,1953
24.084177971,1,0,0,0,-1,-1,0,0,0,-51,-148,18,-41,22,21,0,0,0,170,169,168,171,1,1954
24.094946861,1,0,0,0,-2,-1,0,0,0,-51,-148,18,-41,22,21,0,0,0,169,170,169,170,1,1955
24.105978012,1,0,0,0,-2,-1,0,0,0,-51,-148,18,-41,22,21,0,0,0,170,169,168,171,1,1956
24.125054836,1,0,0,0,5,1,0,0,0,64,0,87,-35,14,17,0,0,0,169,170,173,166,1,1957
24.136175871,1,0,0,0,4,0,0,0,0,14,-90,254,-27,3,12,0,0,0,169,170,173,166,1,1958
24.146963835,1,0,0,0,4,0,0,0,0,14,-90,254,-27,3,12,0,0,0,169,170,172,167,1,1959
24.158061981,1,0,0,0,0,0,0,0,0,14,-90,254,-27,3,12,0,0,0,169,170,172,167,1,1960
24.176118851,1,0,0,0,0,0,0,0,0,-60,52,49,-18,-12,8,0,0,0,169,170,170,169,1,1961
24.186937809,1,0,0,0,-5,0,0,0,0,116,-129,161,-9,-28,4,0,0,0,169,170,170,169,1,1962
24.198086977,1,0,0,0,1,1,0,0,0,116,-129,161,-9,-28,4,0,0,0,169,170,166,173,1,1963
24.209065914,1,0,0,0,1,1,0,0,0,116,-129,161,-9,-28,4,0,0,0,170,169,170,169,1,1964
24.228013992,1,0,0,0,1,0,0,0,0,43,-27,56,0,-44,254,0,0,0,170,169,171,168,1,1965
24.239139795,1,0,0,0,4,0,0,0,0,-12,-91,9,7,-57,247,0,0,0,170,169,171,168,1,1966
24.24997592,1,0,0,0,4,0,0,0,0,-12,-91,9,7,-57,247,0,0,0,169,170,172,167,1,1967
24.260973931,1,0,0,0,-3,0,0,0,0,-12,-91,9,7,-57,247,0,0,0,169,170,172,167,1,1968
24.279364824,1,0,0,0,-3,0,0,0,0,12,133,138,13,-64,239,0,0,0,170,169,168,171,1,1969
24.290165901,0,0,0,0,0,0,0,0,0,27,83,42,19,-67,228,0,0,0,170,169,168,171,1,1970
24.302344799,0,0,0,0,0,0,0,0,0,27,83,42,19,-67,228,0,0,0,169,170,169,170,1,1971
24.312098026,0,0,0,2,3,0,0,0,0,27,83,42,19,-67,228,0,0,0,168,171,172,167,1,1972
24.331014872,0,0,0,2,3,0,0,0,0,62,-147,80,23,-63,219,0,0,0,168,171,172,167,1,1973
24.341943026,0,0,0,0,3,0,0,0,0,-22,-171,213,26,-54,212,0,0,0,168,171,172,167,1,1974
24.352916956,0,0,0,0,-1,0,0,0,0,-22,-171,213,26,-54,212,0,0,0,170,169,171,168,1,1975
24.363973856,0,0,0,0,-1,0,0,0,0,-22,-171,213,26,-54,212,0,0,0,170,169,168,171,1,1976
24.38416481,0,0,0,0,4,1,0,0,0,-53,-33,137,28,-41,211,0,0,0,170,169,172,167,1,1977
24.393046856,0,0,0,-1,-2,0,0,0,0,-135,-40,228,27,-28,215,0,0,0,170,169,172,167,1,1978
24.403985024,0,0,0,-1,-2,0,0,0,0,-135,-40,228,27,-28,215,0,0,0,171,168,168,171,1,1979
24.415087938,0,0,0,1,0,0,0,0,0,-135,-40,228,27,-28,215,0,0,0,171,168,168,171,1,1980
24.43400383,0,0,0,1,0,0,0,0,0,37,-53,-24,25,-19,222,0,0,0,169,170,170,169,1,1981
24.444968939,0,0,0,1,1,0,0,0,0,-35,-54,50,19,-17,230,0,0,0,169,170,170,169,1,1982
24.455962897,0,0,0,0,-1,0,0,1,0,-35,-54,50,19,-17,230,0,0,0,169,170,171,168,1,1983
24.467165947,0,0,0,0,-1,0,0,1,0,-35,-54,50,19,-17,230,0,0,0,169,170,169,170,1,1984
24.486083031,0,0,0,1,5,0,0,1,0,44,-22,136,10,-22,237,0,0,0,168,171,173,166,1,1985
24.497040987,0,0,0,-1,-1,0,0,1,0,85,-80,141,-1,-32,240,0,0,0,168,171,173,166,1,1986
24.509049893,0,0,0,-1,-1,0,0,1,0,85,-80,141,-1,-32,240,0,0,0,170,169,169,170,1,1987
24.518937826,0,0,0,0,0,0,0,0,0,85,-80,141,-1,-32,240,0,0,0,170,169,169,170,1,1988
24.53706789,0,0,0,0,0,0,0,0,0,-23,42,166,-13,-44,241,0,0,0,170,169,169,170,1,1989
24.548019886,-1,0,0,-1,0,0,0,0,0,-70,-35,4,-22,-54,241,0,0,0,170,169,169,170,1,1990
24.55900383,-1,0,0,-1,0,0,0,0,0,-70,-35,4,-22,-54,241,0,0,0,170,169,170,169,1,1991
24.570086956,-1,0,0,-1,-3,0,0,0,0,-70,-35,4,-22,-54,241,0,0,0,171,168,167,172,1,1992
24.589037895,-1,0,0,0,0,-1,0,0,0,73,70,69,-25,-61,243,0,0,0,170,169,170,169,1,1993
24.600041866,-1,0,0,0,1,0,0,0,0,-72,19,57,-22,-62,249,0,0,0,170,169,170,169,1,1994
24.610948801,-1,0,0,0,1,0,0,0,0,-72,19,57,-22,-62,249,0,0,0,169,170,170,169,1,1995
24.622081995,-1,0,0,0,3,0,0,0,0,-72,19,57,-22,-62,249,0,0,0,169,170,172,167,1,1996
24.639931917,-1,0,0,0,3,0,0,0,0,-34,-42,171,-16,-56,1,0,0,0,169,170,172,167,1,1997
24.651052952,-1,0,0,0,-1,0,0,0,0,-55,23,248,-8,-44,11,0,0,0,169,170,172,167,1,1998
24.662108898,-1,0,0,0,-1,0,0,0,0,-55,23,248,-8,-44,11,0,0,0,169,170,169,170,1,1999
24.673009873,-1,0,0,0,-2,0,0,0,0,-55,23,248,-8,-44,11,0,0,0,170,169,168,171,1,2000
24.691133976,-2,0,0,0,-2,0,0,0,0,-66,79,15,-1,-29,20,0,0,0,170,169,168,171,1,2001
24.70202303,-2,0,0,0,3,1,0,0,0,41,52,2,1,-12,26,0,0,0,170,169,168,171,1,2002
24.713116884,-2,0,0,0,3,1,0,0,0,41,52,2,1,-12,26,0,0,0,170,169,171,168,1,2003
24.724115849,-2,0,0,-1,0,0,0,0,0,41,52,2,1,-12,26,0,0,0,170,169,170,169,1,2004
24.742990971,-2,0,0,-1,0,0,0,0,0,-80,-37,219,0,3,28,0,0,0,170,169,170,169,1,2005
24.754140854,-2,0,0,0,0,-1,0,0,0,-119,-207,63,-7,17,24,0,0,0,170,169,170,169,1,2006
24.764909983,-2,0,0,1,2,0,0,0,0,-119,-207,63,-7,17,24,0,0,0,169,170,170,169,1,2007
24.779991865,-2,0,0,1,2,0,0,0,0,-119,-207,63,-7,17,24,0,0,0,169,170,171,168,1,2008
24.795131922,-2,0,0,1,2,-1,0,0,0,5,62,69,-16,26,18,0,0,0,169,170,171,168,1,2009
24.80594182,-2,0,0,0,1,0,0,0,0,70,150,15,-27,29,9,0,0,0,169,170,171,168,1,2010
24.817241907,-2,0,0,0,1,0,0,0,0,70,150,15,-27,29,9,0,0,0,169,170,171,168,1,2011
24.828141928,-1,0,0,0,-2,0,0,0,0,70,150,15,-27,29,9,0,0,0,169,170,171,168,1,2012
24.846992016,-1,0,0,-1,0,-1,0,1,0,-27,-77,246,-37,25,2,0,0,0,170,169,169,170,1,2013
24.857988835,-1,0,0,-1,-4,0,0,1,0,-36,34,55,-45,17,255,0,0,0,170,169,169,170,1,2014
24.869035006,-1,0,0,-2,-2,0,0,1,0,-36,34,55,-45,17,255,0,0,0,170,169,167,172,1,2015
24.880105019,-1,0,0,-2,-2,0,0,1,0,-36,34,55,-45,17,255,0,0,0,171,168,168,171,1,2016
24.898969889,-1,0,0,0,-2,0,0,1,0,-24,57,227,-48,6,0,0,0,0,170,169,168,171,1,2017
24.91008997,-1,0,0,0,4,1,0,0,0,35,47,123,-45,-1,5,0,0,0,170,169,168,171,1,2018
24.922753811,-1,0,0,0,4,1,0,0,0,35,47,123,-45,-1,5,0,0,0,169,170,172,167,1,2019
24.932106972,-1,0,0,0,-1,0,0,0,0,35,47,123,-45,-1,5,0,0,0,169,170,172,167,1,2020
24.950290919,-1,0,0,0,-1,0,0,0,0,-50,-66,37,-38,-6,11,0,0,0,170,169,168,171,1,2021
24.961448908,-1,0,0,0,-1,0,0,0,0,-54,-53,22,-29,-5,15,0,0,0,170,169,168,171,1,2022
24.972075939,-1,0,0,0,3,0,0,-1,0,-54,-53,22,-29,-5,15,0,0,0,169,170,168,171,1,2023
24.982985974,-1,0,0,0,3,0,0,-1,0,-54,-53,22,-29,-5,15,0,0,0,169,170,172,167,1,2024
25.002014876,-1,0,0,0,-3,1,0,-1,0,28,-113,139,-19,-1,16,0,0,0,170,169,168,171,1,2025
25.01304698,-1,-1,0,0,1,0,0,-1,0,61,135,41,-11,4,12,0,0,0,170,169,168,171,1,2026
25.024089813,-1,-1,0,0,1,0,0,-1,0,61,135,41,-11,4,12,0,0,0,169,170,170,169,1,2027
25.035007954,-1,-1,0,-1,0,-1,0,-1,0,61,135,41,-11,4,12,0,0,0,169,170,170,169,1,2028
25.053048849,-1,-1,0,-1,0,-1,0,-1,0,16,131,198,-6,8,3,0,0,0,170,169,169,170,1,2029
25.064199925,-1,-1,0,-1,0,-1,0,0,0,-50,-64,65,-3,8,246,0,0,0,170,169,169,170,1,2030
25.075016022,-1,-1,0,-1,0,-1,0,0,0,-50,-64,65,-3,8,246,0,0,0,170,169,169,170,1,2031
25.087205887,-1,-1,0,1,2,0,0,0,0,-50,-64,65,-3,8,246,0,0,0,170,169,169,170,1,2032
25.104982853,-1,-1,0,0,0,0,0,0,0,151,39,152,-2,7,229,0,0,0,170,169,170,169,1,2033
25.115993023,-1,-1,0,0,0,0,0,0,0,103,-73,110,0,5,211,0,0,0,170,169,170,169,1,2034
25.127043009,-1,-1,0,0,0,0,0,0,0,103,-73,110,0,5,211,0,0,0,169,170,170,169,1,2035
25.137928009,-1,-1,0,0,-3,0,0,0,0,103,-73,110,0,5,211,0,0,0,170,169,168,171,1,2036
25.156008005,-1,-1,0,0,-3,0,0,0,0,-42,10,223,2,5,193,0,0,0,170,169,168,171,1,2037
25.167114973,-1,-1,0,0,0,0,0,0,0,-84,55,91,7,6,180,0,0,0,170,169,168,171,1,2038
25.178059817,-1,-1,0,0,0,0,0,0,0,-84,55,91,7,6,180,0,0,0,170,169,169,170,1,2039
25.192582846,-1,-1,0,-1,2,0,0,0,0,-84,55,91,7,6,180,0,0,0,170,169,171,168,1,2040
25.208034992,-1,-1,0,-1,2,0,0,0,0,-25,182,33,15,8,172,0,0,0,170,169,171,168,1,2041
25.218977928,0,-1,0,0,0,0,0,0,0,-2,-45,88,24,10,167,0,0,0,170,169,171,168,1,2042
25.229910851,0,-1,0,0,-2,-1,0,0,0,-2,-45,88,24,10,167,0,0,0,169,170,170,169,1,2043
25.241027832,0,-1,0,0,-2,-1,0,0,0,-2,-45,88,24,10,167,0,0,0,169,170,168,171,1,2044
25.260087967,0,0,0,1,3,2,0,0,0,92,-69,134,29,13,163,0,0,0,169,170,172,167,1,2045
25.272224903,0,0,0,0,-5,0,0,0,0,-29,12,121,30,17,158,0,0,0,169,170,172,167,1,2046
25.282089949,0,0,0,0,-5,0,0,0,0,-29,12,121,30,17,158,0,0,0,170,169,166,173,1,2047
25.292990923,0,0,-1,-1,0,-1,0,0,0,-29,12,121,30,17,158,0,0,0,170,169,166,173,1,2048
25.311113835,0,0,-1,-1,0,-1,0,0,0,74,0,130,26,21,149,0,0,0,170,169,170,169,1,2049
25.321981907,0,0,-1,0,4,-1,0,0,0,33,141,140,18,25,138,0,0,0,170,169,170,169,1,2050
25.332937956,0,0,-1,0,4,-1,0,0,0,33,141,140,18,25,138,0,0,0,170,169,172,167,1,2051
25.343978882,0,0,-1,0,2,0,0,0,0,33,141,140,18,25,138,0,0,0,169,170,171,168,1,2052
25.366999865,0,0,0,0,4,0,0,0,0,-99,63,8,11,26,125,0,0,0,169,170,172,167,1,2053
25.374027968,0,0,0,0,0,0,0,0,0,31,85,161,5,26,115,0,0,0,169,170,172,167,1,2054
25.385046005,0,0,0,0,0,0,0,0,0,31,85,161,5,26,115,0,0,0,169,170,169,170,1,2055
25.396004915,0,0,0,0,-4,0,0,0,0,31,85,161,5,26,115,0,0,0,169,170,167,172,1,2056
25.414084912,0,0,0,0,-4,0,0,0,0,67,-11,145,3,25,110,0,0,0,169,170,167,172,1,2057
25.425033808,0,0,0,0,-3,0,0,0,0,-110,135,172,3,26,111,0,0,0,169,170,167,172,1,2058
25.435963869,0,0,0,0,-3,0,0,0,0,-110,135,172,3,26,111,0,0,0,170,169,168,171,1,2059
25.44706893,0,0,0,0,6,1,0,0,0,-110,135,172,3,26,111,0,0,0,170,169,174,165,1,2060
25.465026856,0,0,0,0,6,1,0,0,0,-54,-130,46,4,30,120,0,0,0,170,169,174,165,1,2061
25.476115942,0,0,-1,0,5,2,0,1,0,42,90,102,5,37,134,0,0,0,170,169,174,165,1,2062
25.488304854,0,0,-1,0,5,2,0,1,0,42,90,102,5,37,134,0,0,0,169,170,173,166,1,2063
25.498010874,0,0,-1,0,-4,-1,0,1,0,42,90,102,5,37,134,0,0,0,169,170,167,172,1,2064
25.51718688,1,0,-1,0,-4,-1,0,1,0,37,-96,147,4,43,151,0,0,0,169,170,167,172,1,2065
25.528072834,1,0,-1,0,-4,0,0,0,0,179,-174,247,2,47,169,0,0,0,169,170,167,172,1,2066
25.538970947,1,0,-1,0,1,0,0,0,0,179,-174,247,2,47,169,0,0,0,170,169,167,172,1,2067
25.549973011,1,0,-1,0,1,0,0,0,0,179,-174,247,2,47,169,0,0,0,170,169,171,168,1,2068
25.568969965,1,0,-1,0,1,0,0,0,0,9,-35,47,-1,46,184,0,0,0,169,170,170,169,1,2069
25.580312967,1,0,-1,1,3,0,0,0,0,-113,133,115,-3,38,195,0,0,0,169,170,170,169,1,2070
25.590947867,1,0,-1,1,3,0,0,0,0,-113,133,115,-3,38,195,0,0,0,169,170,172,167,1,2071
25.601995945,1,0,-1,0,-1,0,0,0,0,-113,133,115,-3,38,195,0,0,0,169,170,172,167,1,2072
25.620245934,1,0,0,0,0,0,0,0,0,-111,127,145,-1,23,201,0,0,0,169,170,170,169,1,2073
25.631042957,2,0,0,0,-1,0,0,0,0,42,-89,41,4,3,204,0,0,0,169,170,170,169,1,2074
25.641996861,2,0,0,0,-1,0,0,0,0,42,-89,41,4,3,204,0,0,0,169,170,168,171,1,2075
25.652966976,2,0,0,1,0,0,0,0,0,42,-89,41,4,3,204,0,0,0,168,171,170,169,1,2076
25.672077894,2,0,0,1,0,0,0,0,0,15,63,107,10,-14,205,0,0,0,168,171,170,169,1,2077
25.683081865,2,0,0,-2,1,0,0,0,0,78,-124,196,13,-27,204,0,0,0,168,171,170,169,1,2078
25.694019795,2,0,0,-2,1,0,0,0,0,78,-124,196,13,-27,204,0,0,0,171,168,170,169,1,2079
25.705132961,2,0,0,-1,-1,0,0,0,0,78,-124,196,13,-27,204,0,0,0,171,168,169,170,1,2080
25.723831892,1,0,0,-1,-1,0,0,0,0,-6,24,36,12,-30,205,0,0,0,171,168,169,170,1,2081
25.733938933,1,0,0,0,0,0,0,0,0,-102,-102,37,9,-25,209,0,0,0,171,168,169,170,1,2082
25.744957924,1,0,0,0,3,0,0,0,0,-102,-102,37,9,-25,209,0,0,0,170,169,170,169,1,2083
25.756002903,1,0,0,0,3,0,0,0,0,-102,-102,37,9,-25,209,0,0,0,169,170,172,167,1,2084
25.775058031,1,0,0,2,0,0,0,0,0,-31,-52,20,4,-17,217,0,0,0,168,171,169,170,1,2085
25.785923958,1,0,0,1,3,0,0,0,0,20,-19,154,0,-9,229,0,0,0,168,171,169,170,1,2086
25.797110796,1,0,0,1,3,0,0,0,0,20,-19,154,0,-9,229,0,0,0,169,170,172,167,1,2087
25.808003903,1,0,0,-1,-3,-2,0,0,0,20,-19,154,0,-9,229,0,0,0,169,170,172,167,1,2088
25.826007843,1,0,0,-1,-3,-2,0,0,0,31,36,85,-4,-4,243,0,0,0,170,169,168,171,1,2089
25.837173939,1,0,0,-1,-4,-1,0,0,0,99,86,62,-8,-5,1,0,0,0,170,169,168,171,1,2090
25.849095822,1,0,0,-1,-4,-1,0,0,0,99,86,62,-8,-5,1,0,0,0,170,169,167,172,1,2091
25.859290838,1,0,0,0,2,0,0,0,0,99,86,62,-8,-5,1,0,0,0,170,169,167,172,1,2092
25.878147841,1,0,0,0,-5,0,0,0,0,-54,-110,48,-11,-10,12,0,0,0,170,169,166,173,1,2093
25.892146826,1,0,0,0,3,0,0,0,0,-206,-2,178,-12,-16,20,0,0,0,170,169,166,173,1,2094
25.899927855,1,0,0,0,3,0,0,0,0,-206,-2,178,-12,-16,20,0,0,0,169,170,172,167,1,2095
25.910969019,1,0,0,0,1,0,0,0,0,-206,-2,178,-12,-16,20,0,0,0,170,169,170,169,1,2096
25.928959847,1,0,0,0,1,0,0,0,0,99,-20,140,-10,-21,24,0,0,0,170,169,170,169,1,2097
25.939975977,1,0,0,0,0,-1,0,0,0,12,73,54,-7,-24,26,0,0,0,170,169,170,169,1,2098
25.951048851,1,0,0,0,0,-1,0,0,0,12,73,54,-7,-24,26,0,0,0,169,170,169,170,1,2099
25.96209383,1,0,0,2,7,2,0,0,0,12,73,54,-7,-24,26,0,0,0,168,171,174,165,1,2100
25.981078863,0,0,0,2,7,2,0,0,0,-9,26,38,-5,-23,27,0,0,0,168,171,174,165,1,2101
25.992116928,0,0,0,0,-3,-2,0,0,0,-17,120,132,-5,-20,27,0,0,0,168,171,174,165,1,2102
26.003026962,0,0,0,0,-3,-2,0,0,0,-17,120,132,-5,-20,27,0,0,0,169,170,168,171,1,2103
26.013953924,0,0,0,-2,-5,0,0,0,0,-17,120,132,-5,-20,27,0,0,0,171,168,166,173,1,2104
26.032127857,0,0,0,-2,-5,0,0,0,0,-43,20,39,-6,-13,28,0,0,0,171,168,166,173,1,2105
26.043308973,0,0,-1,0,3,2,0,0,0,-49,-112,55,-8,-4,30,0,0,0,171,168,166,173,1,2106
26.054000855,0,0,-1,0,-1,-2,0,0,0,-49,-112,55,-8,-4,30,0,0,0,170,169,171,168,1,2107
26.065027952,0,0,-1,0,-1,-2,0,0,0,-49,-112,55,-8,-4,30,0,0,0,169,170,169,170,1,2108
26.084164858,0,0,-1,-1,-3,0,0,0,0,-53,35,113,-11,7,30,0,0,0,170,169,167,172,1,2109
26.094965935,0,0,0,0,-1,0,0,0,0,33,82,245,-13,18,28,0,0,0,170,169,167,172,1,2110
26.106165886,0,0,0,0,-1,0,0,0,0,33,82,245,-13,18,28,0,0,0,170,169,168,171,1,2111
26.117156983,0,0,0,1,4,0,0,0,0,33,82,245,-13,18,28,0,0,0,170,169,168,171,1,2112
26.140062809,0,0,0,3,3,0,0,0,0,-38,-8,50,-17,27,26,0,0,0,167,172,171,168,1,2113
26.147063017,0,0,0,1,2,-1,0,0,0,-74,-150,58,-20,32,24,0,0,0,167,172,171,168,1,2114
26.157917977,0,0,0,0,-2,-1,0,0,0,-74,-150,58,-20,32,24,0,0,0,169,170,171,168,1,2115
26.176311016,0,0,0,0,0,0,0,0,0,-54,23,18,-23,32,24,0,0,0,170,169,168,171,1,2116
26.188308954,0,0,0,0,0,0,0,0,0,-54,23,18,-23,32,24,0,0,0,170,169,169,170,1,2117
26.198975802,0,0,0,-2,-1,0,0,0,0,13,-34,6,-27,28,26,0,0,0,170,169,169,170,1,2118
26.210403919,0,0,0,-2,-1,0,0,0,0,13,-34,6,-27,28,26,0,0,0,171,168,169,170,1,2119
26.221337795,0,0,0,0,0,0,0,0,0,13,-34,6,-27,28,26,0,0,0,169,170,170,169,1,2120
26.239027977,0,0,0,0,0,0,0,0,0,54,157,40,-29,19,29,0,0,0,169,170,170,169,1,2121
26.250042916,0,0,0,0,1,0,0,0,0,65,62,31,-31,7,33,0,0,0,169,170,170,169,1,2122
26.261044026,0,0,-1,0,0,0,0,0,0,65,62,31,-31,7,33,0,0,0,169,170,170,169,1,2123
26.272143841,0,0,-1,0,0,0,0,0,0,65,62,31,-31,7,33,0,0,0,170,169,170,169,1,2124
26.291955948,0,0,-1,1,0,0,0,0,0,-7,79,17,-32,-3,36,0,0,0,169,170,170,169,1,2125
26.302107811,0,0,-1,0,0,0,0,0,0,-24,-5,45,-29,-9,38,0,0,0,169,170,170,169,1,2126
26.31298995,0,0,-1,0,0,0,0,0,0,-24,-5,45,-29,-9,38,0,0,0,169,170,170,169,1,2127
26.324265003,0,0,-1,0,2,2,0,0,0,-24,-5,45,-29,-9,38,0,0,0,169,170,170,169,1,2128
26.343254805,0,0,-1,0,2,2,0,0,0,-32,45,145,-23,-9,38,0,0,0,169,170,171,168,1,2129
26.353459835,0,0,-1,0,2,1,0,0,0,-42,-107,232,-13,-1,37,0,0,0,169,170,171,168,1,2130
26.364089966,0,0,-1,0,2,1,0,0,0,-42,-107,232,-13,-1,37,0,0,0,169,170,171,168,1,2131
26.37518692,0,0,-1,-1,-4,-3,0,0,0,-42,-107,232,-13,-1,37,0,0,0,171,168,167,172,1,2132
26.394019842,0,0,-1,0,2,0,0,0,0,-100,-47,59,-3,12,35,0,0,0,170,169,171,168,1,2133
26.405009985,0,0,-1,0,-4,-2,0,0,0,90,109,173,4,25,34,0,0,0,170,169,171,168,1,2134
26.41629386,0,0,-1,0,-4,-2,0,0,0,90,109,173,4,25,34,0,0,0,170,169,167,172,1,2135
26.427428007,0,0,-1,0,3,0,0,0,0,90,109,173,4,25,34,0,0,0,169,170,171,168,1,2136
26.446128845,0,0,-1,0,3,0,0,0,0,-32,27,79,7,35,32,0,0,0,169,170,171,168,1,2137
26.457047939,1,0,-1,1,3,0,0,0,0,35,102,4,5,38,26,0,0,0,169,170,171,168,1,2138
26.468194008,1,0,-1,1,3,0,0,0,0,35,102,4,5,38,26,0,0,0,169,170,172,167,1,2139
26.478946924,1,0,-1,1,-4,-2,0,0,0,35,102,4,5,38,26,0,0,0,169,170,167,172,1,2140
26.497481823,1,0,-1,1,-4,-2,0,0,0,-147,-144,191,0,35,17,0,0,0,169,170,167,172,1,2141
26.508076906,1,0,-1,-1,-1,0,0,0,0,-112,19,8,-8,29,4,0,0,0,169,170,167,172,1,2142
26.5191288,1,0,-1,-1,-1,0,0,0,0,-112,19,8,-8,29,4,0,0,0,171,168,168,171,1,2143
26.530023813,1,0,-1,0,5,1,0,0,0,-112,19,8,-8,29,4,0,0,0,169,170,173,166,1,2144
26.548092842,1,0,-1,0,5,1,0,0,0,82,-168,138,-16,21,246,0,0,0,169,170,173,166,1,2145
26.558971882,1,0,-1,0,-2,-2,0,0,0,-77,-78,221,-23,12,234,0,0,0,169,170,173,166,1,2146
26.57010603,1,0,-1,-1,-4,0,0,0,0,-77,-78,221,-23,12,234,0,0,0,169,170,168,171,1,2147
26.581148863,1,0,-1,-1,-4,0,0,0,0,-77,-78,221,-23,12,234,0,0,0,170,169,167,172,1,2148
26.600003004,1,0,-1,0,5,1,0,0,0,-24,-174,46,-30,3,228,0,0,0,169,170,173,166,1,2149
26.611055851,1,0,-1,1,4,1,0,0,0,20,-119,52,-36,-8,228,0,0,0,169,170,173,166,1,2150
26.621999979,1,0,-1,1,4,1,0,0,0,20,-119,52,-36,-8,228,0,0,0,169,170,172,167,1,2151
26.633041859,1,0,-1,0,0,-2,0,0,0,20,-119,52,-36,-8,228,0,0,0,169,170,170,169,1,2152
26.651992798,1,0,-1,0,-2,0,0,0,0,107,-37,47,-40,-23,236,0,0,0,170,169,168,171,1,2153
26.663074017,1,-1,-1,-1,-2,0,0,0,0,79,-105,160,-41,-42,249,0,0,0,170,169,168,171,1,2154
26.673954964,1,-1,-1,0,1,0,0,0,0,79,-105,160,-41,-42,249,0,0,0,171,168,168,171,1,2155
26.685096979,1,-1,-1,0,1,0,0,0,0,79,-105,160,-41,-42,249,0,0,0,170,169,170,169,1,2156
26.704073906,1,-1,-1,1,1,0,0,0,0,-12,-12,168,-37,-64,8,0,0,0,169,170,170,169,1,2157
26.715212822,0,-1,-1,-1,0,0,0,0,0,13,9,138,-28,-84,22,0,0,0,169,170,170,169,1,2158
26.726029873,0,-1,-1,0,-2,0,0,0,0,13,9,138,-28,-84,22,0,0,0,170,169,169,170,1,2159
26.737007857,0,-1,-1,0,-2,0,0,0,0,-46,43,0,-15,-100,31,0,0,0,170,169,168,171,1,2160
26.756028891,0,-1,-1,0,-1,0,0,0,0,-46,43,0,-15,-100,31,0,0,0,170,169,169,170,1,2161
26.767335892,0,-1,-1,0,0,0,0,0,0,-4,-75,58,1,-107,33,0,0,0,170,169,169,170,1,2162
26.777987957,0,-1,-1,0,0,0,0,0,0,-4,-75,58,1,-107,33,0,0,0,170,169,170,169,1,2163
26.788965941,0,-1,-1,1,1,0,0,0,0,-4,-75,58,1,-107,33,0,0,0,170,169,170,169,1,2164
26.807042837,0,-1,-1,1,1,0,0,0,0,-121,-68,3,17,-104,29,0,0,0,169,170,170,169,1,2165
26.818221808,0,-1,-1,0,0,-1,0,0,0,3,-110,27,28,-91,19,0,0,0,169,170,170,169,1,2166
26.82898593,0,-1,-1,0,0,-1,0,0,0,3,-110,27,28,-91,19,0,0,0,169,170,170,169,1,2167
26.840125799,0,-1,-1,0,-1,0,0,0,0,3,-110,27,28,-91,19,0,0,0,169,170,169,170,1,2168
26.859674931,0,-1,-1,0,-1,0,0,0,0,26,-9,47,31,-72,5,0,0,0,169,170,169,170,1,2169
26.872009993,-1,-1,-1,0,-1,0,0,0,0,-34,29,100,26,-51,247,0,0,0,169,170,169,170,1,2170
26.881104946,-1,-1,-1,-1,-3,-2,0,0,0,-34,29,100,26,-51,247,0,0,0,170,169,169,170,1,2171
26.892063856,-1,-1,-1,-1,-3,-2,0,0,0,-111,-141,8,14,-35,233,0,0,0,170,169,167,172,1,2172
26.9111619,-1,-1,-1,0,1,0,0,0,0,-111,-141,8,14,-35,233,0,0,0,170,169,170,169,1,2173
26.921991825,-1,-1,-1,0,3,1,0,0,0,73,159,48,-1,-24,224,0,0,0,170,169,170,169,1,2174
26.935771942,-1,-1,-1,0,3,1,0,0,0,73,159,48,-1,-24,224,0,0,0,169,170,171,168,1,2175
26.943990946,-1,-1,-1,0,-3,-3,0,0,0,73,159,48,-1,-24,224,0,0,0,169,170,167,172,1,2176
