TiempoEjecucion,AnguloPitch,AnguloRoll,AnguloYaw,G_Pitch,G_Roll,G_Yaw,G_Pitch_filtrada,G_Roll_filtrada,G_Yaw_filtrada,Ax,Ay,Az,Ax_filtrada,Ay_filtrada,Az_filtrada,posZ,posZ_filtrada,velZ,motorDelantero,motorTrasero,motorDerecho,motorIzquierdo,EstadoEncendido,MensajesRecibidos
8.249643088,2,-4,-14,2,-4,-14,1,4,-2,-29,10,227,-29,10,227,35,34,0,0,0,0,0,0,752
8.261450052,2,-3,-14,2,-3,-14,1,3,-1,-29,10,227,-29,10,227,35,34,0,0,0,0,0,0,753
8.279078961,2,-3,-14,2,-3,-14,1,3,-1,-29,10,227,-29,10,227,35,34,0,0,0,0,0,0,754
8.283662081,2,-4,-14,2,-3,-14,2,2,0,-27,9,225,-27,9,225,35,34,0,0,0,0,0,0,755
8.293663025,2,-3,-14,2,-3,-14,2,2,0,-27,9,225,-27,9,225,35,34,0,0,0,0,0,0,756
8.304737091,2,-4,-14,2,-4,-14,2,2,0,-26,10,226,-26,10,226,35,34,0,0,0,0,0,0,757
8.315703869,2,-3,-14,2,-3,-14,2,1,1,-26,10,226,-26,10,226,35,34,0,0,0,0,0,0,758
8.327044964,2,-4,-14,2,-4,-14,3,0,1,-23,10,228,-23,10,228,35,34,0,0,0,0,0,0,759
8.337934971,2,-3,-14,2,-3,-14,4,0,0,-23,10,228,-23,10,228,35,34,0,0,0,0,0,0,760
8.348567963,2,-4,-14,2,-4,-14,4,0,0,-20,12,228,-20,12,228,35,34,0,0,0,0,0,0,761
8.359682083,2,-3,-14,2,-3,-14,5,0,0,-20,12,228,-20,12,228,35,34,0,0,0,0,0,0,762
8.370493889,2,-4,-14,2,-4,-14,5,0,0,-20,14,230,-20,14,230,35,34,0,0,0,0,0,0,763
8.381710053,2,-3,-14,2,-3,-14,5,0,-1,-20,14,230,-20,14,230,35,34,0,0,0,0,0,0,764
8.395009041,2,-3,-15,2,-4,-15,5,1,-3,-22,16,230,-22,16,230,35,34,0,0,0,0,0,0,765
8.403841973,2,-3,-15,2,-4,-15,5,1,-3,-22,16,230,-22,16,230,35,34,0,0,0,0,0,0,766
8.41482687,2,-4,-15,2,-4,-15,4,4,-5,-28,20,230,-28,20,230,35,34,0,0,0,0,0,0,767
8.427295923,2,-3,-15,2,-3,-15,1,6,-7,-28,20,230,-28,20,230,35,34,0,0,0,0,0,0,768
8.436630964,2,-4,-15,2,-4,-15,1,6,-7,-26,19,230,-26,19,230,35,34,0,0,0,0,0,0,769
8.44765997,2,-3,-15,2,-3,-15,-1,8,-8,-26,19,230,-26,19,230,35,34,0,0,0,0,0,0,770
8.459100962,2,-4,-15,2,-4,-15,-1,8,-8,-25,20,230,-25,20,230,35,34,0,0,0,0,0,0,771
8.471140862,2,-3,-15,2,-3,-15,-3,9,-8,-25,20,230,-25,20,230,35,34,0,0,0,0,0,0,772
8.480860949,2,-4,-15,2,-4,-15,-3,9,-8,-26,18,230,-26,18,230,35,34,0,0,0,0,0,0,773
8.491443873,2,-3,-15,2,-3,-15,-6,10,-9,-26,18,230,-26,18,230,35,34,0,0,0,0,0,0,774
8.502508879,2,-4,-15,2,-4,-15,-6,10,-9,-26,16,229,-26,16,229,35,34,0,0,0,0,0,0,775
8.513614893,2,-4,-15,2,-3,-15,-9,11,-11,-26,16,229,-26,16,229,35,34,0,0,0,0,0,0,776
8.524776936,2,-4,-15,2,-4,-15,-9,11,-11,-27,13,229,-27,13,229,35,34,0,0,0,0,0,0,777
8.535733938,2,-4,-15,2,-4,-15,-13,14,-13,-27,13,229,-27,13,229,35,34,0,0,0,0,0,0,778
8.546993017,2,-4,-15,2,-4,-15,-13,14,-13,-27,9,229,-27,9,229,35,34,0,0,0,0,0,0,779
8.557619095,2,-4,-15,2,-4,-15,-17,16,-14,-27,9,229,-27,9,229,35,34,0,0,0,0,0,0,780
8.568693876,2,-4,-15,2,-4,-15,-17,16,-14,-27,8,228,-27,8,228,35,34,0,0,0,0,0,0,781
8.579732895,2,-4,-15,2,-4,-15,-20,19,-15,-27,8,228,-27,8,228,35,34,0,0,0,0,0,0,782
8.590576887,2,-4,-15,2,-4,-15,-20,19,-15,-27,6,227,-27,6,227,34,34,0,0,0,0,0,0,783
8.601829052,1,-4,-15,2,-4,-15,-23,20,-14,-27,6,227,-27,6,227,34,34,0,0,0,0,0,0,784
8.612612963,2,-4,-15,2,-4,-15,-23,20,-14,-27,7,227,-27,7,227,34,34,0,0,0,0,0,0,785
8.62373209,1,-4,-15,1,-3,-15,-26,22,-13,-27,7,227,-27,7,227,34,34,0,0,0,0,0,0,786
8.63470006,1,-4,-15,1,-4,-15,-26,22,-13,-29,7,227,-29,7,227,34,34,0,0,0,0,0,0,787
8.645588875,1,-4,-16,1,-3,-16,-29,24,-12,-29,7,227,-29,7,227,34,34,0,0,0,0,0,0,788
8.656581879,1,-4,-16,1,-4,-16,-29,24,-12,-31,9,227,-31,9,227,34,34,0,0,0,0,0,0,789
8.671169996,1,-4,-16,1,-3,-16,-32,27,-12,-31,9,227,-31,9,227,34,34,0,0,0,0,0,0,790
8.679140091,0,-4,-16,1,-3,-16,-37,30,-13,-33,6,224,-33,6,224,35,34,0,0,0,0,0,0,791
8.689650059,0,-4,-16,1,-3,-16,-37,30,-13,-33,6,224,-33,6,224,35,34,0,0,0,0,0,0,792
8.700753927,0,-4,-16,0,-3,-16,-43,32,-15,-37,5,222,-37,5,222,35,34,0,0,0,0,0,0,793
8.711797953,0,-4,-16,0,-3,-16,-43,32,-15,-37,5,222,-37,5,222,35,34,0,0,0,0,0,0,794
8.722435951,0,-4,-16,0,-3,-16,-50,35,-17,-39,5,219,-39,5,219,35,34,0,0,0,0,0,0,795
8.732806921,0,-4,-16,0,-3,-16,-50,35,-17,-39,5,219,-39,5,219,35,34,0,0,0,0,0,0,796
8.743697882,0,-4,-16,0,-4,-16,-56,37,-20,-48,-2,212,-48,-2,212,35,34,0,0,0,0,0,0,797
8.754858017,0,-4,-16,0,-4,-16,-56,37,-20,-48,-2,212,-48,-2,212,35,34,0,0,0,0,0,0,798
8.767198086,-1,-4,-17,0,-4,-17,-63,39,-25,-50,-12,207,-50,-12,207,15,32,-1,0,0,0,0,0,799
8.776664972,-1,-4,-17,0,-4,-17,-63,39,-25,-50,-12,207,-50,-12,207,15,32,-1,0,0,0,0,0,800
8.787584067,-2,-5,-17,-1,-4,-17,-72,42,-31,-52,-30,203,-52,-30,203,15,32,-1,0,0,0,0,0,801
8.798593044,-2,-5,-17,-1,-4,-17,-72,42,-31,-52,-30,203,-52,-30,203,15,32,-1,0,0,0,0,0,802
8.810541868,-4,-5,-18,-2,-4,-18,-84,45,-38,-55,-54,193,-55,-54,193,15,32,-1,0,0,0,0,0,803
8.823564053,-5,-4,-18,-3,-3,-18,-95,49,-46,-55,-54,193,-55,-54,193,15,32,-1,0,0,0,0,0,804
8.831923962,-6,-5,-18,-4,-4,-18,-95,49,-46,-57,-76,192,-57,-76,192,15,32,-1,0,0,0,0,0,805
8.842694998,-6,-4,-19,-4,-3,-19,-102,53,-54,-57,-76,192,-57,-76,192,15,32,-1,0,0,0,0,0,806
8.853658915,-8,-5,-19,-6,-4,-19,-103,56,-61,-62,-92,191,-62,-92,191,6,30,-2,0,0,0,0,0,807
8.864821911,-8,-5,-19,-6,-4,-19,-103,56,-61,-62,-92,191,-62,-92,191,6,30,-2,0,0,0,0,0,808
8.8755579,-10,-5,-20,-7,-4,-20,-100,57,-65,-65,-108,185,-65,-108,185,6,30,-2,0,0,0,0,0,809
8.887567997,-10,-5,-20,-7,-4,-20,-100,57,-65,-65,-108,185,-65,-108,185,6,30,-2,0,0,0,0,0,810
8.897752047,-12,-6,-20,-9,-5,-20,-94,56,-66,-70,-125,178,-70,-125,178,5,27,-2,0,0,0,0,0,811
8.908668041,-12,-6,-20,-9,-5,-20,-94,56,-66,-70,-125,178,-70,-125,178,5,27,-2,0,0,0,0,0,812
8.919759989,-14,-6,-21,-11,-5,-21,-86,53,-65,-71,-137,173,-71,-137,173,5,27,-2,0,0,0,0,0,813
8.93087697,-14,-6,-21,-11,-5,-21,-86,53,-65,-71,-137,173,-71,-137,173,5,27,-2,0,0,0,0,0,814
8.941570997,-16,-7,-21,-13,-6,-21,-72,46,-61,-74,-151,174,-74,-151,174,5,25,-2,0,0,0,0,0,815
8.952754021,-16,-7,-21,-13,-6,-21,-72,46,-61,-74,-151,174,-74,-151,174,5,25,-2,0,0,0,0,0,816
8.963713885,-18,-7,-21,-14,-6,-21,-54,35,-52,-76,-160,169,-76,-160,169,5,25,-2,0,0,0,0,0,817
8.97457099,-18,-7,-21,-14,-6,-21,-54,35,-52,-76,-160,169,-76,-160,169,5,25,-2,0,0,0,0,0,818
8.985671044,-20,-8,-21,-16,-7,-21,-35,24,-41,-76,-173,162,-76,-173,162,5,23,-1,0,0,0,0,0,819
8.996675015,-20,-8,-21,-16,-7,-21,-35,24,-41,-76,-173,162,-76,-173,162,5,23,-1,0,0,0,0,0,820
9.007822991,-22,-9,-21,-18,-8,-21,-19,17,-27,-82,-174,155,-82,-174,155,5,23,-1,0,0,0,0,0,821
9.018836975,-22,-9,-21,-18,-8,-21,-19,17,-27,-82,-174,155,-82,-174,155,5,21,-1,0,0,0,0,0,822
9.029593945,-23,-9,-21,-19,-9,-21,-5,11,-12,-84,-171,153,-84,-171,153,5,21,-1,0,0,0,0,0,823
9.040890932,-23,-9,-21,-19,-9,-21,-5,11,-12,-84,-171,153,-84,-171,153,5,21,-1,0,0,0,0,0,824
9.055830956,-24,-10,-21,-20,-9,-21,10,5,2,-84,-163,154,-84,-163,154,5,20,-1,0,0,0,0,0,825
9.062690973,-24,-10,-21,-20,-9,-21,10,5,2,-84,-163,154,-84,-163,154,5,20,-1,0,0,0,0,0,826
9.073796034,-25,-11,-21,-21,-10,-21,28,-2,15,-83,-156,164,-83,-156,164,5,20,-1,0,0,0,0,0,827
9.085152865,-25,-11,-21,-21,-10,-21,28,-2,15,-83,-156,164,-83,-156,164,5,18,-1,0,0,0,0,0,828
9.097094059,-25,-12,-20,-22,-11,-20,45,-11,26,-86,-150,171,-86,-150,171,5,18,-1,0,0,0,0,0,829
9.106690884,-25,-12,-20,-22,-11,-20,45,-11,26,-86,-150,171,-86,-150,171,5,18,-1,0,0,0,0,0,830
9.117839098,-25,-13,-20,-23,-12,-20,58,-18,34,-85,-144,173,-85,-144,173,5,17,-1,0,0,0,0,0,831
9.132287026,-25,-13,-20,-23,-12,-20,58,-18,34,-85,-144,173,-85,-144,173,5,17,-1,0,0,0,0,0,832
9.143100023,-25,-14,-20,-23,-13,-20,68,-24,38,-85,-139,177,-85,-139,177,5,17,-1,0,0,0,0,0,833
9.150547028,-23,-13,-20,-21,-12,-20,78,-30,39,-85,-139,177,-85,-139,177,5,17,-1,0,0,0,0,0,834
9.161741972,-22,-14,-19,-20,-13,-19,90,-36,38,-76,-121,185,-76,-121,185,5,17,-1,0,0,0,0,0,835
9.172595978,-22,-14,-19,-20,-13,-19,90,-36,38,-76,-121,185,-76,-121,185,5,17,-1,0,0,0,0,0,836
9.183732033,-20,-13,-19,-18,-12,-19,102,-41,38,-76,-121,185,-76,-121,185,5,17,-1,0,0,0,0,0,837
9.195600033,-19,-14,-18,-18,-13,-18,112,-46,39,-72,-106,188,-72,-106,188,39,19,2,0,0,0,0,0,838
9.205748081,-19,-14,-18,-18,-13,-18,112,-46,39,-72,-106,188,-72,-106,188,39,19,2,0,0,0,0,0,839
9.216611862,-19,-14,-18,-18,-14,-18,121,-50,40,-69,-94,193,-69,-94,193,39,19,2,0,0,0,0,0,840
9.227784872,-19,-14,-18,-18,-14,-18,121,-50,40,-69,-94,193,-69,-94,193,39,19,2,0,0,0,0,0,841
9.239480972,-18,-15,-18,-18,-15,-18,129,-53,43,-65,-82,189,-65,-82,189,15,19,0,0,0,0,0,0,842
9.249614,-18,-15,-18,-18,-15,-18,129,-53,43,-65,-82,189,-65,-82,189,15,19,0,0,0,0,0,0,843
9.260964871,-17,-16,-17,-17,-15,-17,134,-55,47,-57,-69,188,-57,-69,188,15,19,0,0,0,0,0,0,844
9.271867991,-17,-16,-17,-17,-15,-17,134,-55,47,-57,-69,188,-57,-69,188,15,19,0,0,0,0,0,0,845
9.286977053,-15,-16,-17,-16,-16,-17,139,-56,51,-48,-53,186,-48,-53,186,5,17,-1,0,0,0,0,0,846
9.294221878,-15,-16,-17,-16,-16,-17,139,-56,51,-48,-53,186,-48,-53,186,5,17,-1,0,0,0,0,0,847
9.304557085,-14,-16,-16,-15,-16,-16,146,-56,54,-34,-33,190,-34,-33,190,5,17,-1,0,0,0,0,0,848
9.317300081,-14,-16,-16,-15,-16,-16,146,-56,54,-34,-33,190,-34,-33,190,5,17,-1,0,0,0,0,0,849
9.326504946,-11,-16,-16,-13,-16,-16,156,-56,55,-21,14,202,-21,14,202,5,16,-1,0,0,0,0,0,850
9.337989092,-11,-16,-16,-13,-16,-16,156,-56,55,-21,14,202,-21,14,202,5,16,-1,0,0,0,0,0,851
9.348573923,-8,-15,-15,-11,-16,-15,167,-53,54,-9,35,196,-9,35,196,5,16,-1,0,0,0,0,0,852
9.359936953,-8,-15,-15,-11,-16,-15,167,-53,54,-9,35,196,-9,35,196,5,16,-1,0,0,0,0,0,853
9.370851994,-5,-14,-15,-9,-16,-15,174,-47,50,-9,53,189,-9,53,189,15,16,0,0,0,0,0,0,854
9.38337493,-5,-14,-15,-9,-16,-15,174,-47,50,-9,53,189,-9,53,189,15,16,0,0,0,0,0,0,855
9.392567873,-2,-14,-15,-7,-15,-15,175,-39,45,-5,75,184,-5,75,184,15,16,0,0,0,0,0,0,856
9.403608084,-2,-14,-15,-7,-15,-15,175,-39,45,-5,75,184,-5,75,184,15,16,0,0,0,0,0,0,857
9.414929867,0,-13,-15,-4,-15,-15,169,-31,37,1,88,182,1,88,182,15,16,0,0,0,0,0,0,858
9.425548077,2,-12,-15,-2,-14,-15,160,-27,28,1,88,182,1,88,182,15,16,0,0,0,0,0,0,859
9.436649084,4,-12,-15,-1,-14,-15,160,-27,28,1,98,180,1,98,180,15,16,0,0,0,0,0,0,860
9.448976994,4,-11,-14,0,-13,-14,153,-23,20,1,98,180,1,98,180,15,16,0,0,0,0,0,0,861
9.458561897,7,-11,-14,2,-12,-14,150,-17,13,-11,111,177,-11,111,177,15,16,0,0,0,0,0,0,862
9.471415043,9,-10,-14,4,-12,-14,151,-10,8,-11,111,177,-11,111,177,15,16,0,0,0,0,0,0,863
9.480664015,11,-10,-14,6,-12,-14,151,-10,8,-15,132,171,-15,132,171,15,16,0,0,0,0,0,0,864
9.491627932,11,-9,-14,6,-11,-14,152,-5,6,-15,132,171,-15,132,171,15,16,0,0,0,0,0,0,865
9.503098965,11,-9,-14,6,-10,-14,151,-5,5,-15,132,171,-15,132,171,15,16,0,0,0,0,0,0,866
9.51354003,15,-9,-14,9,-10,-14,148,-10,4,-11,184,165,-11,184,165,15,16,0,0,0,0,0,0,867
9.524506092,15,-9,-14,9,-10,-14,148,-10,4,-11,184,165,-11,184,165,15,16,0,0,0,0,0,0,868
9.535670042,18,-8,-14,12,-10,-14,141,-16,3,-7,206,161,-7,206,161,15,16,0,0,0,0,0,0,869
9.546640873,18,-8,-14,13,-9,-14,130,-22,2,-7,206,161,-7,206,161,15,16,0,0,0,0,0,0,870
9.557749033,22,-8,-14,16,-9,-14,130,-22,2,0,219,172,0,219,172,15,16,0,0,0,0,0,0,871
9.568700075,20,-8,-14,15,-9,-14,113,-27,1,0,219,172,0,219,172,15,16,0,0,0,0,0,0,872
9.579730988,19,-7,-14,14,-8,-14,91,-31,0,0,219,172,0,219,172,15,16,0,0,0,0,0,0,873
9.590741873,23,-7,-14,18,-8,-14,91,-31,0,17,244,178,17,244,178,15,16,0,0,0,0,0,0,874
9.601921082,22,-7,-14,17,-8,-14,72,-33,-3,17,244,178,17,244,178,15,16,0,0,0,0,0,0,875
9.612663984,24,-6,-15,19,-7,-15,58,-31,-7,24,253,181,24,253,181,5,15,-1,0,0,0,0,0,876
9.627070904,23,-6,-15,18,-7,-15,46,-28,-12,24,253,181,24,253,181,5,15,-1,0,0,0,0,0,877
9.634721995,26,-5,-15,22,-7,-15,46,-28,-12,31,251,179,31,251,179,5,15,-1,0,0,0,0,0,878
9.645564079,25,-5,-15,20,-6,-15,30,-24,-17,31,251,179,31,251,179,6,14,0,0,0,0,0,0,879
9.656593085,28,-4,-15,24,-6,-15,30,-24,-17,36,245,176,36,245,176,6,14,0,0,0,0,0,0,880
9.667703867,26,-4,-15,22,-6,-15,12,-19,-20,36,245,176,36,245,176,6,14,0,0,0,0,0,0,881
9.678716898,28,-3,-15,24,-5,-15,-6,-12,-22,35,235,176,35,235,176,5,13,0,0,0,0,0,0,882
9.691082955,28,-3,-15,24,-5,-15,-6,-12,-22,35,235,176,35,235,176,5,13,0,0,0,0,0,0,883
9.700515032,29,-2,-15,25,-4,-15,-25,-3,-24,30,224,174,30,224,174,5,13,0,0,0,0,0,0,884
9.711718083,26,-2,-16,23,-4,-16,-43,8,-25,30,224,174,30,224,174,5,12,0,0,0,0,0,0,885
9.72262907,30,-2,-16,27,-3,-16,-43,8,-25,26,212,172,26,212,172,5,12,0,0,0,0,0,0,886
9.734170914,27,-1,-16,24,-3,-16,-59,18,-25,26,212,172,26,212,172,5,12,0,0,0,0,0,0,887
9.749154091,28,-1,-16,25,-2,-16,-74,26,-25,21,202,175,21,202,175,5,11,0,0,0,0,0,0,888
9.755677939,25,0,-16,23,-1,-16,-85,31,-25,21,202,175,21,202,175,5,11,0,0,0,0,0,0,889
9.76661706,29,0,-16,26,-1,-16,-85,31,-25,17,190,179,17,190,179,5,11,0,0,0,0,0,0,890
9.778622866,26,0,-16,24,-1,-16,-92,34,-27,17,190,179,17,190,179,5,11,0,0,0,0,0,0,891
9.788659096,29,0,-16,27,0,-16,-92,34,-27,8,177,179,8,177,179,5,11,0,0,0,0,0,0,892
9.799747944,26,0,-17,24,0,-17,-97,37,-29,8,177,179,8,177,179,5,11,0,0,0,0,0,0,893
9.81050992,26,0,-17,25,0,-17,-104,41,-31,-12,153,174,-12,153,174,5,10,0,0,0,0,0,0,894
9.821624041,26,0,-17,25,0,-17,-104,41,-31,-12,153,174,-12,153,174,5,10,0,0,0,0,0,0,895
9.832941055,26,0,-17,25,0,-17,-112,48,-33,-27,135,171,-27,135,171,5,10,0,0,0,0,0,0,896
9.843712092,24,0,-17,23,0,-17,-121,56,-34,-27,135,171,-27,135,171,5,10,0,0,0,0,0,0,897
9.854731083,26,0,-17,26,0,-17,-121,56,-34,-39,122,172,-39,122,172,5,10,0,0,0,0,0,0,898
9.865592957,23,0,-18,23,0,-18,-126,61,-34,-39,122,172,-39,122,172,5,10,0,0,0,0,0,0,899
9.876755953,23,0,-18,23,0,-18,-128,63,-33,-52,104,171,-52,104,171,5,9,0,0,0,0,0,0,900
9.887575865,20,0,-18,21,1,-18,-128,61,-33,-52,104,171,-52,104,171,5,9,0,0,0,0,0,0,901
9.898608923,22,-1,-18,23,0,-18,-128,61,-33,-58,88,166,-58,88,166,5,9,0,0,0,0,0,0,902
9.909898997,20,0,-18,21,0,-18,-126,56,-32,-58,88,166,-58,88,166,6,9,0,0,0,0,0,0,903
9.920544863,22,-2,-18,23,0,-18,-126,56,-32,-62,76,175,-62,76,175,6,9,0,0,0,0,0,0,904
9.935182095,19,-1,-19,21,0,-19,-122,49,-32,-62,76,175,-62,76,175,6,9,0,0,0,0,0,0,905
9.942538023,18,-2,-19,20,0,-19,-115,39,-32,-67,64,184,-67,64,184,15,9,0,0,0,0,0,0,906
9.953639984,18,-2,-19,20,0,-19,-115,39,-32,-67,64,184,-67,64,184,15,9,0,0,0,0,0,0,907
9.967597962,17,-3,-19,20,-1,-19,-108,28,-34,-75,53,188,-75,53,188,15,9,0,0,0,0,0,0,908
9.975533962,16,-3,-19,18,-1,-19,-100,21,-36,-75,53,188,-75,53,188,15,10,0,0,0,0,0,0,909
9.986722946,16,-3,-19,18,-1,-19,-100,21,-36,-75,53,188,-75,53,188,15,10,0,0,0,0,0,0,910
9.997616053,14,-4,-20,17,-2,-20,-96,17,-39,-71,20,196,-71,20,196,15,10,0,0,0,0,0,0,911
10.008802891,13,-4,-20,15,-2,-20,-92,16,-40,-71,20,196,-71,20,196,15,10,0,0,0,0,0,0,912
10.018832922,11,-5,-20,15,-3,-20,-87,11,-40,-64,0,208,-64,0,208,15,10,0,0,0,0,0,0,913
10.029886007,11,-5,-20,15,-3,-20,-87,11,-40,-64,0,208,-64,0,208,15,10,0,0,0,0,0,0,914
10.040910006,10,-5,-21,14,-4,-21,-79,4,-39,-58,-16,217,-58,-16,217,38,13,2,0,0,0,0,0,915
10.055160999,9,-5,-21,12,-4,-21,-67,-2,-37,-58,-16,217,-58,-16,217,38,13,2,0,0,0,0,0,916
10.062828064,8,-6,-21,13,-5,-21,-67,-2,-37,-50,-30,226,-50,-30,226,38,13,2,0,0,0,0,0,917
10.073530913,8,-6,-21,11,-4,-21,-52,-8,-33,-50,-30,226,-50,-30,226,38,13,2,0,0,0,0,0,918
10.084547997,7,-6,-21,11,-5,-21,-52,-8,-33,-32,-32,236,-32,-32,236,37,15,2,0,0,0,0,0,919
10.095665932,6,-6,-21,11,-5,-21,-35,-12,-27,-32,-32,236,-32,-32,236,37,15,2,0,0,0,0,0,920
10.107079029,5,-6,-21,10,-6,-21,-16,-16,-18,-18,-41,243,-18,-41,243,37,15,2,0,0,0,0,0,921
10.117605925,5,-6,-21,10,-6,-21,-16,-16,-18,-18,-41,243,-18,-41,243,37,15,2,0,0,0,0,0,922
10.128814936,5,-5,-21,9,-6,-21,0,-18,-8,1,-28,250,1,-28,250,38,17,2,0,0,0,0,0,923
10.139529944,4,-5,-21,8,-5,-21,12,-14,3,1,-28,250,1,-28,250,38,17,2,0,0,0,0,0,924
10.151105881,4,-5,-21,8,-5,-21,12,-14,3,17,-4,254,17,-4,254,38,17,2,0,0,0,0,0,925
10.16200304,4,-4,-20,7,-5,-20,19,-5,14,17,-4,254,17,-4,254,38,17,2,0,0,0,0,0,926
10.172679901,4,-4,-20,7,-5,-20,19,-5,14,19,11,250,19,11,250,38,19,1,0,0,0,0,0,927
10.183907032,4,-3,-20,7,-4,-20,22,11,25,19,11,250,19,11,250,38,19,1,0,0,0,0,0,928
10.194576025,5,-3,-20,7,-4,-20,22,11,25,19,26,243,19,26,243,38,19,1,0,0,0,0,0,929
10.206481934,4,-2,-20,7,-3,-20,22,35,36,19,26,243,19,26,243,39,21,1,0,0,0,0,0,930
10.216922045,5,-2,-20,7,-3,-20,22,35,36,4,39,227,4,39,227,39,21,1,0,0,0,0,0,931
10.227993965,5,-1,-19,6,-2,-19,17,67,45,4,39,227,4,39,227,39,21,1,0,0,0,0,0,932
10.238673926,5,-1,-19,7,-2,-19,17,67,45,-17,39,211,-17,39,211,17,21,0,0,0,0,0,0,933
10.249592066,5,0,-19,6,-1,-19,7,104,49,-17,39,211,-17,39,211,17,21,0,0,0,0,0,0,934
10.260720015,6,-1,-19,7,-1,-19,7,104,49,-32,36,196,-32,36,196,17,21,0,0,0,0,0,0,935
10.274981022,5,0,-19,6,0,-19,-4,137,45,-32,36,196,-32,36,196,16,20,0,0,0,0,0,0,936
10.283448935,6,0,-19,6,0,-19,-4,137,45,-46,24,166,-46,24,166,16,20,0,0,0,0,0,0,937
10.293801069,5,0,-19,6,0,-19,-15,160,34,-46,24,166,-46,24,166,16,20,0,0,0,0,0,0,938
10.304853916,5,-1,-19,6,0,-19,-15,160,34,-58,16,149,-58,16,149,15,20,0,0,0,0,0,0,939
10.318459034,5,0,-19,6,1,-19,-22,175,20,-58,16,149,-58,16,149,15,20,0,0,0,0,0,0,940
10.331379891,5,-1,-19,6,0,-19,-22,175,20,-77,7,131,-77,7,131,15,20,0,0,0,0,0,0,941
10.33800602,4,0,-19,5,1,-19,-25,185,7,-77,7,131,-77,7,131,15,19,0,0,0,0,0,0,942
10.348701954,5,-3,-19,6,0,-19,-25,185,7,-100,0,121,-100,0,121,15,19,0,0,0,0,0,0,943
10.36225009,4,-1,-19,5,1,-19,-24,193,-2,-100,0,121,-100,0,121,15,19,0,0,0,0,0,0,944
10.37143898,4,-4,-19,5,0,-19,-24,193,-2,-115,4,115,-115,4,115,15,19,0,0,0,0,0,0,945
10.382232905,4,-3,-19,5,0,-19,-19,201,-7,-115,4,115,-115,4,115,15,19,0,0,0,0,0,0,946
10.399580002,4,-7,-19,5,-2,-19,-19,201,-7,-159,4,72,-159,4,72,15,19,0,0,0,0,0,0,947
10.403668881,3,-5,-19,5,0,-19,-16,206,-8,-159,4,72,-159,4,72,32,20,1,0,0,0,0,0,948
10.414716959,3,-10,-19,5,-4,-19,-16,206,-8,-200,3,61,-200,3,61,32,20,1,0,0,0,0,0,949
10.425503016,3,-9,-19,4,-2,-19,-15,206,-7,-200,3,61,-200,3,61,32,20,1,0,0,0,0,0,950
10.436896086,3,-14,-19,4,-7,-19,-15,206,-7,-226,4,67,-226,4,67,17,20,0,0,0,0,0,0,951
10.44798708,3,-12,-19,4,-5,-19,-16,197,-4,-226,4,67,-226,4,67,17,20,0,0,0,0,0,0,952
10.45773387,3,-17,-19,4,-10,-19,-16,197,-4,-249,4,61,-249,4,61,17,20,0,0,0,0,0,0,953
10.468611002,3,-15,-19,4,-8,-19,-16,178,0,-249,4,61,-249,4,61,17,20,0,0,0,0,0,0,954
10.479814053,3,-20,-19,4,-13,-19,-16,178,0,-15,6,56,-15,6,56,15,19,0,0,0,0,0,0,955
10.491187096,2,-18,-19,4,-12,-19,-12,154,8,-15,6,56,-15,6,56,15,19,0,0,0,0,0,0,956
10.502547026,3,-24,-19,4,-17,-19,-12,154,8,-31,6,55,-31,6,55,15,19,0,0,0,0,0,0,957
10.512611866,2,-22,-19,3,-15,-19,-8,126,15,-31,6,55,-31,6,55,15,19,0,0,0,0,0,0,958
10.523766041,2,-25,-19,3,-19,-19,-2,95,20,-48,6,58,-48,6,58,16,19,0,0,0,0,0,0,959
10.534874916,2,-25,-19,3,-19,-19,-2,95,20,-48,6,58,-48,6,58,16,19,0,0,0,0,0,0,960
10.545644045,2,-29,-18,3,-23,-18,3,62,21,-59,6,59,-59,6,59,16,19,0,0,0,0,0,0,961
10.556731939,2,-29,-18,3,-23,-18,3,62,21,-59,6,59,-59,6,59,16,19,0,0,0,0,0,0,962
10.567795038,2,-33,-18,3,-27,-18,9,32,20,-59,7,51,-59,7,51,16,18,0,0,0,0,0,0,963
10.579214096,2,-33,-18,3,-27,-18,9,32,20,-59,7,51,-59,7,51,16,18,0,0,0,0,0,0,964
10.590202093,3,-37,-18,3,-31,-18,17,2,17,-49,19,56,-49,19,56,16,18,0,0,0,0,0,0,965
10.604784966,3,-37,-18,3,-31,-18,17,2,17,-49,19,56,-49,19,56,16,18,0,0,0,0,0,0,966
10.611939907,3,-40,-18,4,-35,-18,24,-31,14,-37,28,63,-37,28,63,16,18,0,0,0,0,0,0,967
10.623230934,3,-40,-18,4,-35,-18,24,-31,14,-37,28,63,-37,28,63,16,18,0,0,0,0,0,0,968
10.633679867,4,-43,-18,4,-39,-18,29,-64,9,-16,53,87,-16,53,87,16,18,0,0,0,0,0,0,969
10.645065069,4,-43,-18,4,-39,-18,29,-64,9,-16,53,87,-16,53,87,16,18,0,0,0,0,0,0,970
10.655752897,4,-45,-18,4,-42,-18,29,-88,4,-9,61,95,-9,61,95,16,18,0,0,0,0,0,0,971
10.667119026,4,-45,-18,4,-42,-18,29,-88,4,-9,61,95,-9,61,95,16,18,0,0,0,0,0,0,972
10.677592039,5,-48,-18,5,-45,-18,25,-99,-1,-255,66,98,-255,66,98,16,18,0,0,0,0,0,0,973
10.688677073,5,-48,-18,5,-45,-18,25,-99,-1,-255,66,98,-255,66,98,16,18,0,0,0,0,0,0,974
10.699828863,6,-50,-19,5,-47,-19,18,-104,-8,-246,61,101,-246,61,101,35,19,1,0,0,0,0,0,975
10.710668087,6,-50,-19,5,-47,-19,18,-104,-8,-246,61,101,-246,61,101,35,19,1,0,0,0,0,0,976
10.722043038,6,-52,-19,5,-50,-19,9,-112,-16,-233,50,101,-233,50,101,35,19,1,0,0,0,0,0,977
10.732586861,6,-52,-19,5,-50,-19,9,-112,-16,-233,50,101,-233,50,101,35,19,1,0,0,0,0,0,978
10.743714094,6,-54,-19,5,-52,-19,-1,-125,-25,-218,37,103,-218,37,103,41,21,2,0,0,0,0,0,979
10.754610062,6,-54,-19,5,-52,-19,-1,-125,-25,-218,37,103,-218,37,103,41,21,2,0,0,0,0,0,980
10.765676022,6,-56,-20,6,-54,-20,-10,-143,-35,-195,26,101,-195,26,101,41,21,2,0,0,0,0,0,981
10.776548863,6,-56,-20,6,-54,-20,-10,-143,-35,-195,26,101,-195,26,101,41,21,2,0,0,0,0,0,982
10.787535906,6,-57,-20,6,-56,-20,-15,-160,-42,-171,22,110,-171,22,110,39,23,1,0,0,0,0,0,983
10.798953057,5,-54,-20,5,-53,-20,-14,-168,-44,-171,22,110,-171,22,110,39,23,1,0,0,0,0,0,984
10.809551001,5,-54,-20,5,-53,-20,-14,-168,-44,-171,22,110,-171,22,110,39,23,1,0,0,0,0,0,985
10.823355913,5,-55,-21,5,-55,-21,-10,-168,-42,-133,5,127,-133,5,127,40,25,1,0,0,0,0,0,986
10.831954003,5,-52,-21,5,-52,-21,-5,-163,-41,-133,5,127,-133,5,127,40,25,1,0,0,0,0,0,987
10.842576981,5,-55,-21,5,-56,-21,-5,-163,-41,-120,-3,130,-120,-3,130,40,25,1,0,0,0,0,0,988
10.85352087,4,-52,-21,5,-53,-21,0,-158,-40,-120,-3,130,-120,-3,130,40,25,1,0,0,0,0,0,989
10.864999056,4,-54,-21,5,-56,-21,0,-158,-40,-108,-9,134,-108,-9,134,40,26,1,0,0,0,0,0,990
10.875812054,4,-52,-21,5,-53,-21,5,-152,-40,-108,-9,134,-108,-9,134,40,26,1,0,0,0,0,0,991
10.887248993,4,-51,-22,5,-54,-22,14,-145,-38,-93,-13,140,-93,-13,140,40,26,1,0,0,0,0,0,992
10.897633076,4,-51,-22,5,-54,-22,14,-145,-38,-93,-13,140,-93,-13,140,40,26,1,0,0,0,0,0,993
10.908540964,3,-51,-22,5,-54,-22,24,-139,-37,-76,-8,144,-76,-8,144,15,25,-1,0,0,0,0,0,994
10.919514895,3,-48,-22,5,-51,-22,33,-136,-36,-76,-8,144,-76,-8,144,15,25,-1,0,0,0,0,0,995
10.931135893,3,-48,-22,5,-51,-22,33,-136,-36,-76,-8,144,-76,-8,144,15,25,-1,0,0,0,0,0,996
10.947005034,4,-46,-23,5,-51,-23,41,-136,-36,-41,6,182,-41,6,182,15,24,0,0,0,0,0,0,997
10.951792002,4,-44,-23,5,-48,-23,46,-136,-36,-41,6,182,-41,6,182,15,24,0,0,0,0,0,0,998
10.962748051,4,-44,-23,5,-50,-23,46,-136,-36,-19,19,194,-19,19,194,15,24,0,0,0,0,0,0,999
10.974225044,4,-42,-23,5,-47,-23,48,-133,-36,-19,19,194,-19,19,194,16,23,0,0,0,0,0,0,1000
10.984541893,4,-42,-23,5,-48,-23,48,-133,-36,1,24,208,1,24,208,16,23,0,0,0,0,0,0,1001
10.995689869,4,-39,-23,5,-45,-23,46,-124,-35,1,24,208,1,24,208,16,23,0,0,0,0,0,0,1002
11.006874085,5,-39,-23,5,-46,-23,46,-124,-35,17,25,224,17,25,224,39,25,1,0,0,0,0,0,1003
11.017642975,5,-37,-24,5,-43,-24,39,-108,-35,17,25,224,17,25,224,39,25,1,0,0,0,0,0,1004
11.028618097,5,-36,-24,5,-43,-24,39,-108,-35,37,27,235,37,27,235,39,25,1,0,0,0,0,0,1005
11.043085098,5,-34,-24,5,-40,-24,29,-85,-36,37,27,235,37,27,235,39,25,1,0,0,0,0,0,1006
11.050700903,5,-31,-24,5,-38,-24,20,-61,-37,49,30,241,49,30,241,39,26,1,0,0,0,0,0,1007
11.067137957,5,-31,-24,5,-38,-24,20,-61,-37,49,30,241,49,30,241,39,26,1,0,0,0,0,0,1008
11.072598934,5,-28,-24,5,-35,-24,15,-38,-36,55,29,246,55,29,246,39,26,1,0,0,0,0,0,1009
11.083896876,5,-26,-25,5,-32,-25,10,-20,-33,55,29,246,55,29,246,39,26,1,0,0,0,0,0,1010
11.095364094,5,-25,-25,5,-32,-25,10,-20,-33,38,25,247,38,25,247,39,27,1,0,0,0,0,0,1011
11.105707884,5,-23,-25,5,-29,-25,4,-3,-28,38,25,247,38,25,247,39,27,1,0,0,0,0,0,1012
11.116905928,4,-21,-25,5,-26,-25,-3,11,-21,27,24,244,27,24,244,39,27,1,0,0,0,0,0,1013
11.127968073,4,-19,-25,4,-24,-25,-10,24,-14,27,24,244,27,24,244,39,27,1,0,0,0,0,0,1014
11.138733864,4,-19,-25,4,-24,-25,-10,24,-14,7,18,242,7,18,242,17,26,-1,0,0,0,0,0,1015
11.149770022,4,-17,-25,4,-22,-25,-15,33,-7,7,18,242,7,18,242,17,26,-1,0,0,0,0,0,1016
11.160566092,4,-18,-25,4,-22,-25,-15,33,-7,-14,13,240,-14,13,240,17,26,-1,0,0,0,0,0,1017
11.172297955,4,-16,-25,4,-20,-25,-17,39,-1,-14,13,240,-14,13,240,15,25,-1,0,0,0,0,0,1018
11.182584047,3,-15,-24,4,-18,-24,-18,42,4,-34,12,241,-34,12,241,15,25,-1,0,0,0,0,0,1019
11.193578005,3,-15,-24,4,-18,-24,-18,42,4,-34,12,241,-34,12,241,15,25,-1,0,0,0,0,0,1020
11.204619885,3,-14,-24,4,-17,-24,-18,46,10,-54,11,241,-54,11,241,15,24,-1,0,0,0,0,0,1021
11.217886925,3,-13,-24,3,-15,-24,-18,47,14,-54,11,241,-54,11,241,15,24,-1,0,0,0,0,0,1022
11.226588965,3,-14,-24,3,-16,-24,-18,47,14,-70,17,238,-70,17,238,15,24,-1,0,0,0,0,0,1023
11.237746,3,-13,-24,3,-15,-24,-17,46,13,-70,17,238,-70,17,238,15,24,-1,0,0,0,0,0,1024
11.24882102,3,-13,-24,3,-14,-24,-15,41,7,-72,19,242,-72,19,242,15,23,0,0,0,0,0,0,1025
11.259586096,2,-12,-25,3,-13,-25,-14,34,-3,-72,19,242,-72,19,242,15,23,0,0,0,0,0,0,1026
11.27085495,3,-13,-25,3,-14,-25,-14,34,-3,-75,27,246,-75,27,246,15,23,0,0,0,0,0,0,1027
11.281598091,3,-12,-25,3,-13,-25,-13,27,-17,-75,27,246,-75,27,246,15,23,0,0,0,0,0,0,1028
11.292761088,3,-13,-25,3,-14,-25,-13,27,-17,-68,24,238,-68,24,238,37,24,1,0,0,0,0,0,1029
11.303749085,3,-12,-26,3,-12,-26,-13,21,-34,-68,24,238,-68,24,238,37,24,1,0,0,0,0,0,1030
11.317550898,3,-12,-26,3,-12,-26,-16,16,-55,-62,23,232,-62,23,232,37,24,1,0,0,0,0,0,1031
11.325679064,3,-12,-26,3,-12,-26,-16,16,-55,-62,23,232,-62,23,232,37,24,1,0,0,0,0,0,1032
11.34176302,2,-12,-27,2,-12,-27,-21,12,-80,-43,15,221,-43,15,221,39,26,1,0,0,0,0,0,1033
11.350002051,2,-11,-28,2,-11,-28,-26,9,-105,-43,15,221,-43,15,221,39,26,1,0,0,0,0,0,1034
11.358686924,2,-11,-28,2,-11,-28,-26,9,-105,-43,15,221,-43,15,221,39,26,1,0,0,0,0,0,1035
11.370101929,2,-11,-30,2,-11,-30,-30,9,-122,-47,6,213,-47,6,213,39,26,1,0,0,0,0,0,1036
11.380869866,1,-10,-30,1,-11,-30,-33,10,-134,-47,6,213,-47,6,213,38,27,1,0,0,0,0,0,1037
11.391666889,1,-10,-32,1,-11,-32,-36,11,-143,-41,-1,207,-41,-1,207,38,27,1,0,0,0,0,0,1038
11.402616978,1,-10,-32,1,-11,-32,-36,11,-143,-41,-1,207,-41,-1,207,38,27,1,0,0,0,0,0,1039
11.413711071,0,-10,-33,1,-11,-33,-39,11,-149,-34,-12,198,-34,-12,198,38,28,1,0,0,0,0,0,1040
11.424638033,0,-10,-33,1,-11,-33,-39,11,-149,-34,-12,198,-34,-12,198,38,28,1,0,0,0,0,0,1041
11.435796976,0,-10,-34,0,-11,-34,-41,11,-153,-33,-22,194,-33,-22,194,38,28,1,0,0,0,0,0,1042
11.446596861,0,-9,-35,0,-10,-35,-43,7,-155,-33,-22,194,-33,-22,194,38,28,1,0,0,0,0,0,1043
11.457614899,0,-9,-35,0,-10,-35,-43,7,-155,-33,-22,194,-33,-22,194,38,29,0,0,0,0,0,0,1044
11.468631029,-1,-9,-36,0,-10,-36,-42,0,-156,-24,-44,197,-24,-44,197,38,29,0,0,0,0,0,0,1045
11.479664087,-1,-9,-37,0,-9,-37,-40,-7,-156,-24,-44,197,-24,-44,197,38,29,0,0,0,0,0,0,1046
11.492001057,-1,-9,-37,0,-9,-37,-40,-7,-156,-24,-44,197,-24,-44,197,38,30,0,0,0,0,0,0,1047
11.503660917,-3,-8,-39,-1,-9,-39,-34,-16,-152,-9,-70,198,-9,-70,198,38,30,0,0,0,0,0,0,1048
11.512894869,-2,-8,-39,-1,-9,-39,-28,-23,-144,-9,-70,198,-9,-70,198,38,30,0,0,0,0,0,0,1049
11.523669005,-4,-8,-39,-2,-9,-39,-28,-23,-144,0,-82,201,0,-82,201,38,30,0,0,0,0,0,0,1050
11.534668923,-4,-8,-40,-2,-9,-40,-22,-29,-131,0,-82,201,0,-82,201,38,30,0,0,0,0,0,0,1051
11.547240973,-4,-8,-40,-2,-9,-40,-22,-29,-131,0,-82,201,0,-82,201,38,30,0,0,0,0,0,0,1052
11.556555033,-5,-7,-40,-3,-9,-40,-17,-33,-114,3,-93,204,3,-93,204,38,31,0,0,0,0,0,0,1053
11.567563057,-5,-7,-40,-3,-9,-40,-17,-33,-114,3,-93,204,3,-93,204,38,31,0,0,0,0,0,0,1054
11.578619003,-7,-7,-41,-4,-8,-41,-14,-33,-92,14,-113,221,14,-113,221,38,31,0,0,0,0,0,0,1055
11.589848042,-7,-7,-41,-4,-8,-41,-14,-33,-92,14,-113,221,14,-113,221,38,31,0,0,0,0,0,0,1056
11.600612879,-8,-6,-41,-5,-8,-41,-11,-27,-65,16,-120,228,16,-120,228,38,32,0,0,0,0,0,0,1057
11.612719059,-8,-5,-41,-5,-7,-41,-9,-16,-34,16,-120,228,16,-120,228,38,32,0,0,0,0,0,0,1058
11.62254405,-8,-5,-41,-5,-7,-41,-9,-16,-34,16,-120,228,16,-120,228,38,32,0,0,0,0,0,0,1059
11.633707047,-9,-4,-40,-6,-6,-40,-7,-2,-3,19,-123,235,19,-123,235,38,32,0,0,0,0,0,0,1060
11.647216082,-8,-4,-40,-6,-6,-40,-4,10,21,19,-123,235,19,-123,235,15,30,-1,0,0,0,0,0,1061
11.655972004,-10,-4,-40,-8,-5,-40,-4,10,21,21,-116,237,21,-116,237,15,30,-1,0,0,0,0,0,1062
11.666841984,-9,-3,-39,-7,-5,-39,-1,22,43,21,-116,237,21,-116,237,15,30,-1,0,0,0,0,0,1063
11.67762208,-11,-3,-39,-9,-5,-39,-1,22,43,17,-101,240,17,-101,240,15,29,-1,0,0,0,0,0,1064
11.691139937,-10,-2,-38,-8,-4,-38,3,33,67,17,-101,240,17,-101,240,15,29,-1,0,0,0,0,0,1065
11.699697972,-11,-2,-38,-9,-4,-38,3,33,67,-14,-78,241,-14,-78,241,15,29,-1,0,0,0,0,0,1066
11.710753918,-10,-2,-37,-9,-3,-37,9,42,94,-14,-78,241,-14,-78,241,38,29,0,0,0,0,0,0,1067
11.721801996,-12,-3,-37,-10,-3,-37,9,42,94,-40,-76,240,-40,-76,240,38,29,0,0,0,0,0,0,1068
11.732609987,-11,-2,-36,-9,-3,-36,14,49,124,-40,-76,240,-40,-76,240,38,29,0,0,0,0,0,0,1069
11.743675947,-12,-3,-36,-11,-3,-36,14,49,124,-59,-66,242,-59,-66,242,38,30,0,0,0,0,0,0,1070
11.754566908,-11,-3,-35,-10,-3,-35,17,51,153,-59,-66,242,-59,-66,242,38,30,0,0,0,0,0,0,1071
11.766238928,-12,-4,-35,-11,-3,-35,17,51,153,-81,-54,237,-81,-54,237,38,30,0,0,0,0,0,0,1072
11.776741982,-11,-3,-33,-10,-3,-33,19,45,181,-81,-54,237,-81,-54,237,38,30,0,0,0,0,0,0,1073
11.787533045,-11,-5,-33,-11,-4,-33,19,45,181,-100,-37,231,-100,-37,231,39,31,0,0,0,0,0,0,1074
11.798687935,-10,-5,-31,-10,-4,-31,20,31,209,-100,-37,231,-100,-37,231,39,31,0,0,0,0,0,0,1075
11.809571982,-11,-7,-31,-11,-5,-31,20,31,209,-113,-26,224,-113,-26,224,39,31,0,0,0,0,0,0,1076
11.820538998,-10,-6,-29,-10,-5,-29,19,12,237,-113,-26,224,-113,-26,224,39,31,0,0,0,0,0,0,1077
11.831709862,-10,-8,-29,-11,-6,-29,19,12,237,-116,-23,211,-116,-23,211,40,32,0,0,0,0,0,0,1078
11.842609883,-10,-8,-27,-10,-6,-27,15,-6,6,-116,-23,211,-116,-23,211,40,32,0,0,0,0,0,0,1079
11.852694035,-10,-10,-27,-11,-7,-27,15,-6,6,-111,-38,195,-111,-38,195,40,32,0,0,0,0,0,0,1080
11.863810063,-10,-10,-25,-10,-7,-25,6,-26,24,-111,-38,195,-111,-38,195,40,32,0,0,0,0,0,0,1081
11.874680996,-10,-12,-25,-11,-9,-25,6,-26,24,-97,-42,176,-97,-42,176,41,33,0,0,0,0,0,0,1082
11.889420986,-10,-11,-23,-10,-9,-23,-2,-48,31,-97,-42,176,-97,-42,176,41,33,0,0,0,0,0,0,1083
11.896857023,-9,-13,-21,-10,-11,-21,-6,-72,30,-74,-30,176,-74,-30,176,41,33,0,0,0,0,0,0,1084
11.907695055,-9,-13,-21,-10,-11,-21,-6,-72,30,-74,-30,176,-74,-30,176,41,33,0,0,0,0,0,0,1085
11.919070006,-9,-14,-19,-10,-12,-19,-2,-92,27,-51,-20,196,-51,-20,196,41,33,0,0,0,0,0,0,1086
11.929598093,-9,-14,-19,-10,-12,-19,-2,-92,27,-51,-20,196,-51,-20,196,41,33,0,0,0,0,0,0,1087
11.940573931,-8,-14,-16,-9,-13,-16,7,-102,25,-17,-14,205,-17,-14,205,41,33,0,0,0,0,0,0,1088
11.951593876,-8,-14,-16,-9,-13,-16,7,-102,25,-17,-14,205,-17,-14,205,41,33,0,0,0,0,0,0,1089
11.962663889,-7,-13,-15,-8,-14,-15,20,-103,21,16,22,204,16,22,204,41,34,0,0,0,0,0,0,1090
11.973685026,-6,-13,-13,-7,-13,-13,32,-99,3,16,22,204,16,22,204,41,34,0,0,0,0,0,0,1091
11.987061978,-5,-12,-12,-7,-13,-12,41,-90,226,40,36,215,40,36,215,41,34,0,0,0,0,0,0,1092
11.995779038,-5,-12,-12,-7,-13,-12,41,-90,226,40,36,215,40,36,215,41,34,0,0,0,0,0,0,1093
12.006659031,-3,-10,-11,-5,-12,-11,46,-77,190,72,44,217,72,44,217,41,35,0,0,0,0,0,0,1094
12.019232035,-3,-10,-11,-5,-12,-11,46,-77,190,72,44,217,72,44,217,41,35,0,0,0,0,0,0,1095
12.028749943,-2,-7,-10,-4,-11,-10,48,-60,162,94,54,210,94,54,210,41,35,0,0,0,0,0,0,1096
12.039679051,-2,-7,-10,-4,-11,-10,48,-60,162,94,54,210,94,54,210,41,35,0,0,0,0,0,0,1097
12.050816059,0,-5,-9,-3,-9,-9,46,-37,137,96,70,208,96,70,208,42,35,0,0,0,0,0,0,1098
12.062064886,0,-5,-9,-3,-9,-9,46,-37,137,96,70,208,96,70,208,42,35,0,0,0,0,0,0,1099
12.075077057,0,-3,-9,-1,-7,-9,39,-7,109,85,71,211,85,71,211,42,35,0,0,0,0,0,0,1100
12.083564043,0,-3,-9,-1,-7,-9,39,-7,109,85,71,211,85,71,211,42,35,0,0,0,0,0,0,1101
12.095059872,0,-2,-8,-1,-6,-8,30,23,82,85,71,211,85,71,211,42,36,0,0,0,0,0,0,1102
12.105566025,1,-2,-8,0,-5,-8,30,23,82,23,63,214,23,63,214,42,36,0,0,0,0,0,0,1103
12.116641998,1,-1,-8,0,-4,-8,21,46,61,23,63,214,23,63,214,42,36,0,0,0,0,0,0,1104
12.127760887,2,-1,-8,0,-3,-8,21,46,61,-2,52,218,-2,52,218,41,36,0,0,0,0,0,0,1105
12.143228054,2,-1,-8,0,-3,-8,14,57,42,-2,52,218,-2,52,218,41,36,0,0,0,0,0,0,1106
12.151123047,3,-1,-8,1,-3,-8,14,57,42,-30,53,224,-30,53,224,41,36,0,0,0,0,0,0,1107
12.16068697,3,-1,-9,1,-2,-9,9,57,19,-30,53,224,-30,53,224,41,36,0,0,0,0,0,0,1108
12.172188997,4,-2,-9,2,-2,-9,9,57,19,-43,51,220,-43,51,220,42,37,0,0,0,0,0,0,1109
12.182703972,3,-2,-9,1,-2,-9,1,49,-5,-43,51,220,-43,51,220,42,37,0,0,0,0,0,0,1110
12.193530083,4,-2,-9,2,-2,-9,1,49,-5,-45,49,215,-45,49,215,42,37,0,0,0,0,0,0,1111
12.204863072,4,-2,-10,2,-2,-10,-8,32,-31,-45,49,215,-45,49,215,42,37,0,0,0,0,0,0,1112
12.215702057,5,-3,-10,3,-2,-10,-8,32,-31,-41,51,218,-41,51,218,41,37,0,0,0,0,0,0,1113
12.227248907,4,-3,-11,3,-2,-11,-16,9,-61,-41,51,218,-41,51,218,41,37,0,0,0,0,0,0,1114
12.237889052,5,-3,-11,3,-3,-11,-16,9,-61,-30,43,229,-30,43,229,41,37,0,0,0,0,0,0,1115
12.248842955,4,-3,-12,3,-3,-12,-20,-13,-96,-30,43,229,-30,43,229,41,37,0,0,0,0,0,0,1116
12.259654045,5,-4,-12,4,-3,-12,-20,-13,-96,-15,44,232,-15,44,232,40,37,0,0,0,0,0,0,1117
12.270797014,5,-4,-13,4,-3,-13,-18,-29,-132,-15,44,232,-15,44,232,40,37,0,0,0,0,0,0,1118
12.281606913,6,-3,-13,4,-3,-13,-18,-29,-132,4,54,232,4,54,232,40,37,0,0,0,0,0,0,1119
12.292806864,5,-3,-14,4,-3,-14,-13,-33,-163,4,54,232,4,54,232,40,37,0,0,0,0,0,0,1120
12.303606987,6,-3,-14,5,-3,-14,-13,-33,-163,6,53,231,6,53,231,41,38,0,0,0,0,0,0,1121
12.314629078,6,-3,-16,5,-3,-16,-6,-28,-185,6,53,231,6,53,231,41,38,0,0,0,0,0,0,1122
12.325572014,6,-3,-17,5,-3,-17,0,-19,-197,7,42,229,7,42,229,41,38,0,0,0,0,0,0,1123
12.336565972,6,-3,-19,5,-3,-19,4,-12,-200,7,42,229,7,42,229,41,38,0,0,0,0,0,0,1124
12.351142883,6,-3,-19,5,-3,-19,4,-12,-200,7,42,229,7,42,229,41,38,0,0,0,0,0,0,1125
12.359504938,6,-2,-20,5,-3,-20,7,-8,-198,10,36,228,10,36,228,41,38,0,0,0,0,0,0,1126
12.369647026,6,-2,-21,5,-2,-21,8,-6,-194,10,36,228,10,36,228,41,38,0,0,0,0,0,0,1127
12.383301974,6,-2,-21,6,-2,-21,8,-6,-194,7,45,225,7,45,225,41,38,0,0,0,0,0,0,1128
12.39526701,6,-2,-22,5,-2,-22,9,-4,-187,7,45,225,7,45,225,41,38,0,0,0,0,0,0,1129
12.402720928,6,-2,-22,6,-2,-22,9,-4,-187,-8,26,233,-8,26,233,41,38,0,0,0,0,0,0,1130
12.415580988,6,-2,-23,6,-2,-23,9,0,-176,-8,26,233,-8,26,233,41,38,0,0,0,0,0,0,1131
12.424582958,6,-1,-24,6,-2,-24,6,7,-161,-7,22,231,-7,22,231,41,38,0,0,0,0,0,0,1132
12.435671091,5,-1,-25,5,-1,-25,2,14,-141,-7,22,231,-7,22,231,41,38,0,0,0,0,0,0,1133
12.451886892,5,-1,-25,5,-1,-25,2,14,-141,-7,22,231,-7,22,231,41,38,0,0,0,0,0,0,1134
12.45814991,5,-1,-26,5,-1,-26,-1,19,-121,-15,24,229,-15,24,229,41,39,0,0,0,0,0,0,1135
12.468761921,5,-1,-26,5,-1,-26,-4,20,-102,-15,24,229,-15,24,229,41,39,0,0,0,0,0,0,1136
12.480453968,5,-1,-26,5,-1,-26,-4,20,-102,-23,23,227,-23,23,227,41,39,0,0,0,0,0,0,1137
12.490609884,5,-1,-26,5,-1,-26,-7,20,-84,-23,23,227,-23,23,227,41,39,0,0,0,0,0,0,1138
12.503089905,4,-1,-27,5,-1,-27,-13,18,-64,-31,17,229,-31,17,229,40,39,0,0,0,0,0,0,1139
12.512856007,4,-1,-27,5,-1,-27,-13,18,-64,-31,17,229,-31,17,229,40,39,0,0,0,0,0,0,1140
12.524101019,4,-2,-27,5,-1,-27,-18,17,-45,-39,10,225,-39,10,225,40,39,0,0,0,0,0,0,1141
12.534512043,4,-2,-27,5,-1,-27,-18,17,-45,-39,10,225,-39,10,225,40,39,0,0,0,0,0,0,1142
12.545650006,4,-2,-27,4,-2,-27,-22,14,-29,-38,11,223,-38,11,223,40,39,0,0,0,0,0,0,1143
12.556690931,3,-2,-27,4,-1,-27,-21,11,-16,-38,11,223,-38,11,223,40,39,0,0,0,0,0,0,1144
12.568520069,3,-2,-27,4,-1,-27,-21,11,-16,-38,11,223,-38,11,223,40,39,0,0,0,0,0,0,1145
12.578684092,3,-3,-27,4,-2,-27,-19,8,-2,-34,9,222,-34,9,222,40,39,0,0,0,0,0,0,1146
12.589730025,3,-2,-27,3,-2,-27,-17,4,7,-34,9,222,-34,9,222,40,39,0,0,0,0,0,0,1147
12.600588083,3,-3,-27,4,-2,-27,-17,4,7,-27,6,219,-27,6,219,40,39,0,0,0,0,0,0,1148
12.611602068,3,-3,-27,3,-2,-27,-15,0,11,-27,6,219,-27,6,219,40,39,0,0,0,0,0,0,1149
12.622547865,2,-3,-27,3,-2,-27,-14,-4,8,-16,1,225,-16,1,225,40,39,0,0,0,0,0,0,1150
12.633640051,2,-3,-27,3,-2,-27,-14,-8,6,-16,1,225,-16,1,225,40,39,0,0,0,0,0,0,1151
12.644677878,2,-3,-27,3,-3,-27,-14,-8,6,-2,-8,228,-2,-8,228,40,39,0,0,0,0,0,0,1152
12.659156084,2,-2,-27,2,-2,-27,-12,-9,4,-2,-8,228,-2,-8,228,40,39,0,0,0,0,0,0,1153
12.666452885,2,-3,-27,3,-3,-27,-12,-9,4,-3,-3,226,-3,-3,226,40,39,0,0,0,0,0,0,1154
12.677646876,2,-2,-27,2,-2,-27,-10,-8,1,-3,-3,226,-3,-3,226,40,39,0,0,0,0,0,0,1155
12.691437006,1,-2,-27,2,-2,-27,-5,-3,-3,-8,-8,222,-8,-8,222,40,39,0,0,0,0,0,0,1156
12.699794054,1,-2,-27,2,-2,-27,-5,-3,-3,-8,-8,222,-8,-8,222,40,39,0,0,0,0,0,0,1157
12.71071887,1,-2,-27,2,-2,-27,0,4,-8,-11,-1,224,-11,-1,224,39,39,0,0,0,0,0,0,1158
12.721807957,1,-2,-27,2,-2,-27,5,12,-12,-11,-1,224,-11,-1,224,39,39,0,0,0,0,0,0,1159
12.73267293,1,-2,-27,2,-2,-27,5,12,-12,-12,3,228,-12,3,228,39,39,0,0,0,0,0,0,1160
12.743727923,1,-2,-27,2,-2,-27,9,17,-15,-12,3,228,-12,3,228,39,39,0,0,0,0,0,0,1161
12.759098053,1,-2,-27,2,-2,-27,9,20,-15,-17,12,230,-17,12,230,40,39,0,0,0,0,0,0,1162
12.764605045,1,-1,-27,2,-1,-27,9,22,-14,-17,12,230,-17,12,230,40,39,0,0,0,0,0,0,1163
12.775700092,1,-2,-27,2,-2,-27,9,22,-14,-24,11,233,-24,11,233,40,39,0,0,0,0,0,0,1164
12.78728199,1,-1,-27,2,-1,-27,7,23,-13,-24,11,233,-24,11,233,40,39,0,0,0,0,0,0,1165
12.797669888,1,-2,-27,2,-2,-27,7,23,-13,-24,8,237,-24,8,237,15,37,-2,0,0,0,0,0,1166
12.809755087,1,-2,-27,1,-1,-27,2,22,-10,-24,8,237,-24,8,237,15,37,-2,0,0,0,0,0,1167
12.819941044,1,-2,-27,1,-2,-27,-4,19,-6,-34,3,246,-34,3,246,15,37,-2,0,0,0,0,0,1168
12.830828905,1,-2,-27,1,-2,-27,-4,19,-6,-34,3,246,-34,3,246,15,37,-2,0,0,0,0,0,1169
12.843406916,1,-2,-27,1,-2,-27,-15,16,0,-42,8,247,-42,8,247,15,35,-2,0,0,0,0,0,1170
12.852803946,1,-2,-27,1,-2,-27,-23,13,2,-42,8,247,-42,8,247,15,35,-2,0,0,0,0,0,1171
12.863759041,1,-2,-27,1,-2,-27,-23,13,2,-42,8,247,-42,8,247,15,35,-2,0,0,0,0,0,1172
12.875511885,0,-3,-27,0,-2,-27,-27,13,4,-44,-4,238,-44,-4,238,15,33,-1,0,0,0,0,0,1173
12.885773897,0,-2,-27,0,-2,-27,-27,13,5,-44,-4,238,-44,-4,238,15,33,-1,0,0,0,0,0,1174
12.896691084,0,-3,-27,0,-2,-27,-27,13,5,-47,-10,242,-47,-10,242,15,33,-1,0,0,0,0,0,1175
12.907548905,0,-3,-27,0,-2,-27,-26,13,6,-47,-10,242,-47,-10,242,15,31,-1,0,0,0,0,0,1176
12.918669939,0,-3,-27,0,-3,-27,-26,13,6,-40,-3,240,-40,-3,240,15,31,-1,0,0,0,0,0,1177
12.929630041,0,-3,-27,0,-2,-27,-25,13,8,-40,-3,240,-40,-3,240,15,31,-1,0,0,0,0,0,1178
12.940706968,0,-4,-27,0,-3,-27,-25,13,8,-33,-2,233,-33,-2,233,15,29,-1,0,0,0,0,0,1179
12.952293873,0,-3,-27,0,-3,-27,-24,14,9,-33,-2,233,-33,-2,233,15,29,-1,0,0,0,0,0,1180
12.962563038,0,-4,-27,0,-3,-27,-24,14,9,-29,0,228,-29,0,228,15,29,-1,0,0,0,0,0,1181
12.9738729,0,-3,-27,0,-3,-27,-20,16,9,-29,0,228,-29,0,228,15,28,-1,0,0,0,0,0,1182
12.984812975,0,-4,-27,0,-3,-27,-20,16,9,-28,-2,216,-28,-2,216,15,28,-1,0,0,0,0,0,1183
12.995564938,0,-3,-27,0,-3,-27,-16,16,8,-28,-2,216,-28,-2,216,15,28,-1,0,0,0,0,0,1184
13.006712914,0,-4,-27,0,-4,-27,-16,16,8,-30,-5,212,-30,-5,212,15,27,-1,0,0,0,0,0,1185
13.017565012,0,-4,-27,0,-3,-27,-14,15,8,-30,-5,212,-30,-5,212,15,27,-1,0,0,0,0,0,1186
13.028825045,0,-4,-27,0,-4,-27,-14,15,8,-27,-9,209,-27,-9,209,15,27,-1,0,0,0,0,0,1187
13.039567948,0,-4,-27,0,-3,-27,-16,13,9,-27,-9,209,-27,-9,209,15,26,-1,0,0,0,0,0,1188
13.050678969,-1,-4,-27,0,-4,-27,-16,13,9,-25,-13,209,-25,-13,209,15,26,-1,0,0,0,0,0,1189
13.061945915,-1,-4,-27,0,-4,-27,-17,11,9,-25,-13,209,-25,-13,209,15,26,-1,0,0,0,0,0,1190
13.072670937,-1,-4,-27,0,-4,-27,-17,11,9,-23,-17,210,-23,-17,210,15,24,-1,0,0,0,0,0,1191
13.083766937,-1,-4,-27,0,-4,-27,-16,8,8,-23,-17,210,-23,-17,210,15,24,-1,0,0,0,0,0,1192
13.094673872,-1,-4,-27,-1,-4,-27,-16,8,8,-23,-25,212,-23,-25,212,15,24,-1,0,0,0,0,0,1193
13.1055789,-1,-4,-27,-1,-4,-27,-12,4,7,-23,-25,212,-23,-25,212,15,24,0,0,0,0,0,0,1194
13.119293928,-2,-4,-27,-1,-4,-27,-12,4,7,-24,-28,216,-24,-28,216,15,24,0,0,0,0,0,0,1195
13.127814055,-2,-4,-27,-1,-4,-27,-8,1,5,-24,-28,216,-24,-28,216,15,24,0,0,0,0,0,0,1196
13.138669968,-2,-5,-27,-1,-5,-27,-8,1,5,-27,-29,218,-27,-29,218,15,23,0,0,0,0,0,0,1197
13.149791956,-2,-4,-26,-1,-4,-26,-4,0,4,-27,-29,218,-27,-29,218,15,23,0,0,0,0,0,0,1198
13.160675049,-3,-5,-26,-2,-5,-26,-4,0,4,-32,-29,220,-32,-29,220,15,23,0,0,0,0,0,0,1199
13.171848059,-2,-4,-26,-1,-4,-26,-2,4,4,-32,-29,220,-32,-29,220,15,22,0,0,0,0,0,0,1200
13.182704926,-3,-5,-26,-2,-5,-26,-2,4,4,-38,-29,220,-38,-29,220,15,22,0,0,0,0,0,0,1201
13.193938971,-3,-4,-26,-2,-4,-26,0,9,6,-38,-29,220,-38,-29,220,15,22,0,0,0,0,0,0,1202
13.204552889,-3,-5,-26,-2,-5,-26,0,9,6,-45,-24,218,-45,-24,218,16,21,0,0,0,0,0,0,1203
13.21558094,-3,-5,-26,-2,-4,-26,2,14,8,-45,-24,218,-45,-24,218,16,21,0,0,0,0,0,0,1204
13.226716995,-3,-6,-26,-2,-5,-26,2,14,8,-59,-16,209,-59,-16,209,16,21,0,0,0,0,0,0,1205
13.241739035,-3,-5,-26,-2,-5,-26,2,18,10,-59,-16,209,-59,-16,209,16,21,0,0,0,0,0,0,1206
13.248728037,-3,-6,-26,-3,-6,-26,2,18,10,-62,-17,208,-62,-17,208,16,21,0,0,0,0,0,0,1207
13.259634018,-3,-6,-26,-2,-5,-26,0,21,11,-62,-17,208,-62,-17,208,16,21,0,0,0,0,0,0,1208
13.275356054,-3,-6,-26,-3,-5,-26,-2,21,12,-61,-20,209,-61,-20,209,15,20,0,0,0,0,0,0,1209
13.281584025,-3,-6,-26,-3,-5,-26,-2,21,12,-61,-20,209,-61,-20,209,15,20,0,0,0,0,0,0,1210
13.292569876,-3,-7,-26,-3,-6,-26,-4,19,11,-56,-26,210,-56,-26,210,15,20,0,0,0,0,0,0,1211
13.306962013,-3,-7,-26,-3,-6,-26,-4,19,11,-56,-26,210,-56,-26,210,15,20,0,0,0,0,0,0,1212
13.314604998,-4,-7,-26,-3,-6,-26,-5,16,10,-55,-32,214,-55,-32,214,15,20,0,0,0,0,0,0,1213
13.325728893,-4,-7,-26,-3,-6,-26,-5,16,10,-55,-32,214,-55,-32,214,15,20,0,0,0,0,0,0,1214
13.336700916,-4,-8,-26,-3,-7,-26,-6,10,8,-54,-37,217,-54,-37,217,15,20,0,0,0,0,0,0,1215
13.347748995,-4,-8,-26,-3,-7,-26,-6,10,8,-54,-37,217,-54,-37,217,15,20,0,0,0,0,0,0,1216
13.358700037,-5,-8,-26,-4,-7,-26,-5,2,4,-51,-41,220,-51,-41,220,15,19,0,0,0,0,0,0,1217
13.371165037,-5,-8,-26,-4,-7,-26,-5,2,4,-51,-41,220,-51,-41,220,15,19,0,0,0,0,0,0,1218
13.380609036,-5,-8,-26,-4,-8,-26,-2,-4,1,-47,-43,222,-47,-43,222,15,19,0,0,0,0,0,0,1219
13.39516902,-5,-8,-26,-4,-8,-26,-2,-4,1,-47,-43,222,-47,-43,222,15,19,0,0,0,0,0,0,1220
13.402555943,-5,-9,-26,-4,-8,-26,2,-7,0,-45,-44,221,-45,-44,221,15,19,0,0,0,0,0,0,1221
13.418006897,-5,-9,-26,-4,-8,-26,2,-7,0,-45,-44,221,-45,-44,221,15,19,0,0,0,0,0,0,1222
13.426836014,-6,-9,-26,-5,-8,-26,6,-7,0,-44,-43,221,-44,-43,221,15,19,0,0,0,0,0,0,1223
13.435781956,-6,-9,-26,-5,-8,-26,6,-7,0,-44,-43,221,-44,-43,221,15,19,0,0,0,0,0,0,1224
13.447016001,-6,-9,-26,-5,-9,-26,8,-5,0,-44,-41,220,-44,-41,220,15,18,0,0,0,0,0,0,1225
13.457660914,-6,-9,-26,-5,-9,-26,8,-5,0,-44,-41,220,-44,-41,220,15,18,0,0,0,0,0,0,1226
13.468517065,-6,-9,-26,-5,-9,-26,8,-2,0,-46,-35,217,-46,-35,217,15,18,0,0,0,0,0,0,1227
13.479608059,-6,-9,-26,-5,-9,-26,8,-2,0,-46,-35,217,-46,-35,217,15,18,0,0,0,0,0,0,1228
13.490622044,-6,-9,-26,-5,-9,-26,7,0,0,-47,-34,215,-47,-34,215,15,18,0,0,0,0,0,0,1229
13.502386093,-6,-9,-26,-5,-9,-26,7,0,0,-47,-34,215,-47,-34,215,15,18,0,0,0,0,0,0,1230
13.513767004,-6,-9,-26,-6,-9,-26,6,4,0,-48,-33,216,-48,-33,216,15,18,0,0,0,0,0,0,1231
13.523627043,-6,-9,-26,-6,-9,-26,6,4,0,-48,-33,216,-48,-33,216,15,18,0,0,0,0,0,0,1232
13.534709931,-6,-9,-26,-6,-9,-26,4,7,0,-47,-33,217,-47,-33,217,15,18,0,0,0,0,0,0,1233
13.547132015,-6,-9,-26,-6,-9,-26,4,7,0,-47,-33,217,-47,-33,217,15,18,0,0,0,0,0,0,1234
13.556715965,-6,-10,-26,-6,-9,-26,1,8,0,-46,-33,221,-46,-33,221,15,18,0,0,0,0,0,0,1235
13.567739964,-6,-10,-26,-6,-9,-26,1,8,0,-46,-33,221,-46,-33,221,15,18,0,0,0,0,0,0,1236
13.578567028,-7,-10,-26,-6,-9,-26,-1,7,-1,-45,-34,222,-45,-34,222,15,17,0,0,0,0,0,0,1237
13.58958292,-7,-10,-26,-6,-9,-26,-1,7,-1,-45,-34,222,-45,-34,222,15,17,0,0,0,0,0,0,1238
13.60047102,-7,-10,-26,-6,-9,-26,-3,7,-2,-46,-32,223,-46,-32,223,15,17,0,0,0,0,0,0,1239
13.611609936,-7,-10,-26,-6,-9,-26,-3,7,-2,-46,-32,223,-46,-32,223,15,17,0,0,0,0,0,0,1240
13.622670889,-7,-10,-26,-7,-9,-26,-4,8,-3,-47,-30,221,-47,-30,221,15,17,0,0,0,0,0,0,1241
13.633697033,-7,-10,-26,-7,-9,-26,-4,8,-3,-47,-30,221,-47,-30,221,15,17,0,0,0,0,0,0,1242
13.644672871,-7,-10,-26,-7,-9,-26,-3,12,-3,-50,-28,220,-50,-28,220,15,17,0,0,0,0,0,0,1243
13.655687094,-7,-10,-26,-7,-9,-26,-3,12,-3,-50,-28,220,-50,-28,220,15,17,0,0,0,0,0,0,1244
13.671213865,-7,-10,-26,-7,-9,-26,-1,17,-2,-55,-25,219,-55,-25,219,15,17,0,0,0,0,0,0,1245
13.677618027,-7,-10,-26,-7,-9,-26,-1,17,-2,-55,-25,219,-55,-25,219,15,17,0,0,0,0,0,0,1246
13.687687874,-7,-10,-26,-7,-9,-26,-1,22,0,-56,-24,215,-56,-24,215,15,17,0,0,0,0,0,0,1247
13.69865799,-6,-9,-26,-6,-9,-26,-1,24,0,-56,-24,215,-56,-24,215,15,17,0,0,0,0,0,0,1248
13.709637881,-6,-9,-26,-6,-9,-26,-3,23,1,-60,-29,216,-60,-29,216,15,17,0,0,0,0,0,0,1249
13.721040964,-6,-9,-26,-6,-9,-26,-3,23,1,-60,-29,216,-60,-29,216,15,17,0,0,0,0,0,0,1250
13.73162508,-7,-10,-26,-6,-9,-26,-6,21,0,-61,-33,218,-61,-33,218,15,16,0,0,0,0,0,0,1251
13.742630005,-7,-10,-26,-6,-9,-26,-6,21,0,-61,-33,218,-61,-33,218,15,16,0,0,0,0,0,0,1252
13.753647089,-7,-10,-26,-7,-9,-26,-8,18,-1,-60,-38,227,-60,-38,227,15,16,0,0,0,0,0,0,1253
13.764893055,-6,-9,-26,-6,-9,-26,-9,15,-3,-60,-38,227,-60,-38,227,15,16,0,0,0,0,0,0,1254
13.775609017,-6,-9,-26,-6,-9,-26,-9,15,-3,-60,-38,227,-60,-38,227,15,16,0,0,0,0,0,0,1255
13.786710978,-7,-9,-26,-6,-9,-26,-8,11,-5,-60,-42,227,-60,-42,227,15,16,0,0,0,0,0,0,1256
13.79776907,-6,-9,-26,-6,-8,-26,-7,9,-7,-60,-42,227,-60,-42,227,15,16,0,0,0,0,0,0,1257
13.808666945,-6,-9,-26,-6,-8,-26,-7,9,-7,-60,-42,227,-60,-42,227,15,16,0,0,0,0,0,0,1258
13.819515944,-6,-9,-26,-6,-9,-26,-3,7,-8,-62,-45,227,-62,-45,227,15,16,0,0,0,0,0,0,1259
13.835216999,-6,-8,-26,-5,-8,-26,0,7,-10,-62,-45,227,-62,-45,227,15,16,0,0,0,0,0,0,1260
13.841681957,-6,-9,-26,-6,-9,-26,0,7,-10,-66,-42,225,-66,-42,225,15,16,0,0,0,0,0,0,1261
13.852484942,-6,-9,-27,-6,-8,-27,6,6,-11,-66,-42,225,-66,-42,225,15,16,0,0,0,0,0,0,1262
13.864360094,-6,-9,-27,-6,-9,-27,11,6,-12,-69,-35,221,-69,-35,221,15,16,0,0,0,0,0,0,1263
13.875401974,-5,-8,-27,-5,-8,-27,17,5,-12,-69,-35,221,-69,-35,221,15,16,0,0,0,0,0,0,1264
13.885744095,-6,-10,-27,-6,-9,-27,17,5,-12,-68,-31,218,-68,-31,218,15,16,0,0,0,0,0,0,1265
13.896854878,-5,-9,-27,-5,-9,-27,21,3,-11,-68,-31,218,-68,-31,218,15,16,0,0,0,0,0,0,1266
13.90769887,-6,-10,-27,-6,-10,-27,21,3,-11,-68,-25,213,-68,-25,213,15,16,0,0,0,0,0,0,1267
13.918717861,-5,-10,-27,-5,-9,-27,22,1,-11,-68,-25,213,-68,-25,213,15,16,0,0,0,0,0,0,1268
13.929671049,-5,-10,-27,-5,-10,-27,22,-2,-11,-66,-19,211,-66,-19,211,17,16,0,0,0,0,0,0,1269
13.940774918,-5,-10,-27,-5,-10,-27,22,-2,-11,-66,-19,211,-66,-19,211,17,16,0,0,0,0,0,0,1270
13.951941014,-5,-11,-27,-5,-10,-27,21,-8,-11,-63,-18,211,-63,-18,211,17,16,0,0,0,0,0,0,1271
13.962646961,-4,-10,-27,-5,-10,-27,19,-13,-10,-63,-18,211,-63,-18,211,17,16,0,0,0,0,0,0,1272
13.975106001,-5,-11,-27,-5,-11,-27,19,-13,-10,-58,-19,212,-58,-19,212,17,16,0,0,0,0,0,0,1273
13.984679938,-4,-10,-27,-5,-10,-27,17,-15,-9,-58,-19,212,-58,-19,212,17,16,0,0,0,0,0,0,1274
13.995716095,-4,-11,-27,-4,-11,-27,14,-16,-7,-54,-20,212,-54,-20,212,17,16,0,0,0,0,0,0,1275
14.006537914,-4,-10,-27,-4,-10,-27,12,-16,-5,-54,-20,212,-54,-20,212,17,16,0,0,0,0,0,0,1276
14.019424915,-4,-11,-27,-4,-11,-27,12,-16,-5,-50,-21,214,-50,-21,214,17,16,0,0,0,0,0,0,1277
14.028961897,-4,-10,-27,-4,-10,-27,11,-16,-4,-50,-21,214,-50,-21,214,17,16,0,0,0,0,0,0,1278
14.03955102,-4,-11,-27,-4,-11,-27,11,-16,-4,-48,-22,213,-48,-22,213,17,16,0,0,0,0,0,0,1279
14.051007033,-4,-10,-27,-4,-10,-27,10,-14,-2,-48,-22,213,-48,-22,213,17,16,0,0,0,0,0,0,1280
14.061975956,-4,-11,-27,-4,-11,-27,10,-12,0,-45,-26,212,-45,-26,212,17,16,0,0,0,0,0,0,1281
14.07259202,-4,-11,-27,-4,-11,-27,10,-12,0,-45,-26,212,-45,-26,212,17,16,0,0,0,0,0,0,1282
14.084223986,-4,-11,-27,-4,-11,-27,9,-9,1,-43,-27,211,-43,-27,211,16,16,0,0,0,0,0,0,1283
14.095450878,-4,-10,-27,-4,-10,-27,9,-8,3,-43,-27,211,-43,-27,211,16,16,0,0,0,0,0,0,1284
14.105586052,-4,-11,-27,-4,-11,-27,9,-8,3,-40,-27,211,-40,-27,211,16,16,0,0,0,0,0,0,1285
14.116921902,-4,-10,-27,-4,-10,-27,9,-9,3,-40,-27,211,-40,-27,211,16,16,0,0,0,0,0,0,1286
14.127620936,-4,-10,-27,-4,-10,-27,10,-10,2,-39,-28,214,-39,-28,214,16,16,0,0,0,0,0,0,1287
14.138916016,-3,-9,-27,-4,-10,-27,11,-12,1,-39,-28,214,-39,-28,214,16,16,0,0,0,0,0,0,1288
14.149658919,-4,-10,-27,-4,-11,-27,11,-12,1,-37,-28,218,-37,-28,218,16,16,0,0,0,0,0,0,1289
14.160614014,-4,-9,-27,-4,-10,-27,14,-13,1,-37,-28,218,-37,-28,218,16,16,0,0,0,0,0,0,1290
14.171932936,-4,-10,-27,-4,-11,-27,14,-13,1,-36,-27,225,-36,-27,225,16,16,0,0,0,0,0,0,1291
14.182663918,-4,-9,-27,-4,-10,-27,16,-13,0,-36,-27,225,-36,-27,225,16,16,0,0,0,0,0,0,1292
14.193583965,-4,-9,-27,-4,-10,-27,18,-12,0,-38,-21,226,-38,-21,226,16,16,0,0,0,0,0,0,1293
14.20557189,-4,-9,-27,-4,-10,-27,18,-12,0,-38,-21,226,-38,-21,226,16,16,0,0,0,0,0,0,1294
14.219954014,-3,-9,-27,-4,-10,-27,21,-11,0,-39,-17,225,-39,-17,225,16,16,0,0,0,0,0,0,1295
14.226960898,-3,-9,-27,-3,-9,-27,23,-10,0,-39,-17,225,-39,-17,225,16,16,0,0,0,0,0,0,1296
14.237663031,-3,-9,-27,-3,-9,-27,23,-10,0,-39,-17,225,-39,-17,225,16,16,0,0,0,0,0,0,1297
14.251214028,-3,-9,-27,-3,-9,-27,24,-8,1,-41,-11,222,-41,-11,222,16,16,0,0,0,0,0,0,1298
14.260039091,-2,-8,-27,-3,-9,-27,23,-7,2,-41,-11,222,-41,-11,222,16,16,0,0,0,0,0,0,1299
14.270555973,-3,-9,-27,-3,-9,-27,23,-7,2,-40,-8,220,-40,-8,220,16,16,0,0,0,0,0,0,1300
14.281563997,-2,-8,-27,-3,-9,-27,22,-7,2,-40,-8,220,-40,-8,220,15,16,0,0,0,0,0,0,1301
14.292656899,-2,-9,-27,-2,-9,-27,20,-8,2,-35,-2,220,-35,-2,220,15,16,0,0,0,0,0,0,1302
14.303598881,-2,-8,-27,-2,-8,-27,17,-9,2,-35,-2,220,-35,-2,220,15,16,0,0,0,0,0,0,1303
14.315221071,-2,-9,-27,-2,-9,-27,17,-9,2,-32,-2,222,-32,-2,222,15,16,0,0,0,0,0,0,1304
14.33096695,-1,-8,-27,-2,-8,-27,15,-11,1,-32,-2,222,-32,-2,222,15,16,0,0,0,0,0,0,1305
14.340708971,-2,-9,-27,-2,-9,-27,15,-11,1,-29,-4,226,-29,-4,226,15,16,0,0,0,0,0,0,1306
14.351101875,-1,-8,-27,-2,-9,-27,14,-13,1,-29,-4,226,-29,-4,226,16,16,0,0,0,0,0,0,1307
14.358619929,-1,-9,-27,-2,-9,-27,14,-13,1,-24,-4,229,-24,-4,229,16,16,0,0,0,0,0,0,1308
14.371699095,-1,-8,-27,-2,-9,-27,14,-15,0,-24,-4,229,-24,-4,229,16,16,0,0,0,0,0,0,1309
14.380673886,-1,-8,-27,-2,-9,-27,14,-15,0,-21,-2,232,-21,-2,232,15,15,0,0,0,0,0,0,1310
14.391853094,-1,-8,-27,-2,-8,-27,14,-16,-2,-21,-2,232,-21,-2,232,15,15,0,0,0,0,0,0,1311
14.402853966,-1,-8,-27,-2,-9,-27,14,-16,-2,-20,0,235,-20,0,235,15,15,0,0,0,0,0,0,1312
14.413527966,-1,-8,-27,-1,-8,-27,16,-15,-3,-20,0,235,-20,0,235,17,16,0,0,0,0,0,0,1313
14.424489021,-1,-8,-27,-1,-9,-27,16,-15,-3,-21,3,234,-21,3,234,17,16,0,0,0,0,0,0,1314
14.435558081,0,-7,-27,-1,-8,-27,18,-12,-4,-21,3,234,-21,3,234,17,16,0,0,0,0,0,0,1315
14.446562052,0,-8,-27,-1,-9,-27,18,-12,-4,-22,7,230,-22,7,230,39,18,2,0,0,0,0,0,1316
14.457648993,0,-7,-27,-1,-8,-27,20,-9,-3,-22,7,230,-22,7,230,39,18,2,0,0,0,0,0,1317
14.468585968,0,-8,-27,-1,-8,-27,20,-9,-3,-21,11,230,-21,11,230,39,18,2,0,0,0,0,0,1318
14.47954607,0,-7,-27,-1,-8,-27,20,-6,-2,-21,11,230,-21,11,230,39,18,2,0,0,0,0,0,1319
14.490483999,0,-7,-27,0,-8,-27,20,-6,-2,-22,14,226,-22,14,226,39,20,1,0,0,0,0,0,1320
14.502013922,0,-7,-27,0,-8,-27,18,-4,-2,-22,14,226,-22,14,226,39,20,1,0,0,0,0,0,1321
14.512696028,0,-7,-27,0,-8,-27,18,-4,-2,-21,16,225,-21,16,225,39,20,1,0,0,0,0,0,1322
14.529308081,0,-7,-27,0,-7,-27,15,-4,-1,-21,16,225,-21,16,225,39,21,1,0,0,0,0,0,1323
14.535099983,0,-7,-27,0,-8,-27,15,-4,-1,-17,14,227,-17,14,227,39,21,1,0,0,0,0,0,1324
14.545644999,0,-7,-27,0,-7,-27,11,-5,-1,-17,14,227,-17,14,227,39,21,1,0,0,0,0,0,1325
14.558021069,0,-7,-27,0,-8,-27,11,-5,-1,-14,12,230,-14,12,230,39,23,1,0,0,0,0,0,1326
14.567766905,0,-6,-27,0,-7,-27,7,-7,-1,-14,12,230,-14,12,230,39,23,1,0,0,0,0,0,1327
14.578727961,0,-7,-27,0,-7,-27,7,-7,-1,-10,11,232,-10,11,232,39,23,1,0,0,0,0,0,1328
14.589709044,0,-6,-27,0,-7,-27,5,-9,-2,-10,11,232,-10,11,232,39,23,1,0,0,0,0,0,1329
14.600492954,1,-6,-27,0,-7,-27,5,-9,-2,-8,9,236,-8,9,236,39,25,1,0,0,0,0,0,1330
14.610836029,1,-6,-27,0,-7,-27,4,-9,-2,-8,9,236,-8,9,236,39,25,1,0,0,0,0,0,1331
14.621659994,1,-6,-27,0,-7,-27,4,-9,-2,-6,8,237,-6,8,237,39,25,1,0,0,0,0,0,1332
14.63267088,1,-6,-27,0,-6,-27,3,-8,-3,-6,8,237,-6,8,237,39,25,1,0,0,0,0,0,1333
14.647337914,1,-6,-27,0,-7,-27,3,-8,-3,-5,11,236,-5,11,236,39,26,1,0,0,0,0,0,1334
14.655124903,1,-5,-27,0,-6,-27,2,-4,-3,-5,11,236,-5,11,236,39,26,1,0,0,0,0,0,1335
14.665665865,1,-5,-27,0,-6,-27,2,-4,-3,-6,12,235,-6,12,235,39,26,1,0,0,0,0,0,1336
14.676943064,1,-5,-27,0,-6,-27,1,0,-3,-6,12,235,-6,12,235,39,26,1,0,0,0,0,0,1337
14.687875033,1,-5,-27,0,-5,-27,0,3,-3,-9,15,234,-9,15,234,39,27,1,0,0,0,0,0,1338
14.69874692,1,-5,-27,0,-5,-27,0,3,-3,-9,15,234,-9,15,234,39,27,1,0,0,0,0,0,1339
14.71141696,1,-4,-27,1,-5,-27,-1,6,-3,-10,15,234,-10,15,234,39,27,1,0,0,0,0,0,1340
14.720710993,1,-4,-27,1,-5,-27,-1,6,-3,-10,15,234,-10,15,234,39,27,1,0,0,0,0,0,1341
14.73168397,1,-4,-27,1,-5,-27,-2,7,-3,-11,14,232,-11,14,232,39,28,1,0,0,0,0,0,1342
14.742932081,1,-4,-27,1,-5,-27,-2,7,-3,-11,14,232,-11,14,232,39,28,1,0,0,0,0,0,1343
14.753681898,1,-4,-27,1,-4,-27,-4,8,-3,-12,13,231,-12,13,231,39,28,1,0,0,0,0,0,1344
14.764744044,1,-4,-27,1,-4,-27,-4,8,-3,-12,13,231,-12,13,231,39,28,1,0,0,0,0,0,1345
14.776005984,1,-4,-27,1,-4,-27,-7,9,-3,-13,5,228,-13,5,228,39,29,0,0,0,0,0,0,1346
14.786907911,1,-3,-27,1,-4,-27,-10,11,-4,-13,5,228,-13,5,228,39,29,0,0,0,0,0,0,1347
14.803256035,1,-3,-27,1,-4,-27,-10,11,-4,-13,5,228,-13,5,228,39,29,0,0,0,0,0,0,1348
14.808562994,1,-3,-27,1,-4,-27,-12,12,-5,-12,2,229,-12,2,229,39,29,0,0,0,0,0,0,1349
14.819736958,1,-3,-28,0,-3,-28,-12,13,-6,-12,2,229,-12,2,229,39,30,0,0,0,0,0,0,1350
14.830741882,1,-3,-28,1,-3,-28,-12,13,-6,-12,-2,229,-12,-2,229,39,30,0,0,0,0,0,0,1351
14.84186697,0,-3,-28,0,-3,-28,-10,14,-7,-12,-2,229,-12,-2,229,39,30,0,0,0,0,0,0,1352
14.852701903,0,-3,-28,0,-3,-28,-10,14,-7,-14,-5,232,-14,-5,232,39,30,0,0,0,0,0,0,1353
14.863534928,0,-3,-28,0,-3,-28,-7,16,-9,-14,-5,232,-14,-5,232,39,31,0,0,0,0,0,0,1354
14.874639034,0,-3,-28,0,-3,-28,-7,16,-9,-18,-8,232,-18,-8,232,39,31,0,0,0,0,0,0,1355
14.885689974,0,-3,-28,0,-3,-28,-4,16,-11,-18,-8,232,-18,-8,232,39,31,0,0,0,0,0,0,1356
14.896892071,0,-3,-28,0,-3,-28,-4,16,-11,-27,-7,229,-27,-7,229,39,32,0,0,0,0,0,0,1357
14.907680988,0,-3,-28,0,-3,-28,-1,16,-14,-27,-7,229,-27,-7,229,39,32,0,0,0,0,0,0,1358
14.918504,0,-3,-28,0,-3,-28,-1,16,-14,-31,-5,225,-31,-5,225,39,32,0,0,0,0,0,0,1359
14.929817915,0,-3,-28,0,-3,-28,2,15,-16,-31,-5,225,-31,-5,225,39,32,0,0,0,0,0,0,1360
14.941004038,0,-4,-28,0,-3,-28,2,15,-16,-34,-3,221,-34,-3,221,39,32,0,0,0,0,0,0,1361
14.952589035,0,-3,-28,0,-3,-28,3,14,-16,-34,-3,221,-34,-3,221,39,32,0,0,0,0,0,0,1362
14.962673903,0,-4,-28,0,-3,-28,3,14,-16,-34,0,218,-34,0,218,39,32,0,0,0,0,0,0,1363
14.973602057,0,-3,-28,0,-3,-28,3,13,-15,-34,0,218,-34,0,218,39,32,0,0,0,0,0,0,1364
14.987171889,0,-4,-28,0,-4,-28,3,13,-15,-35,0,215,-35,0,215,39,33,0,0,0,0,0,0,1365
14.995625973,0,-4,-28,0,-3,-28,1,12,-14,-35,0,215,-35,0,215,39,33,0,0,0,0,0,0,1366
15.006689072,0,-4,-28,0,-4,-28,1,12,-14,-33,1,215,-33,1,215,39,33,0,0,0,0,0,0,1367
15.017641068,0,-4,-28,0,-4,-28,1,10,-12,-33,1,215,-33,1,215,39,33,0,0,0,0,0,0,1368
15.028918982,0,-5,-28,0,-4,-28,1,10,-12,-31,1,217,-31,1,217,39,33,0,0,0,0,0,0,1369
15.039586067,0,-4,-28,0,-4,-28,2,6,-11,-31,1,217,-31,1,217,39,33,0,0,0,0,0,0,1370
15.050639868,0,-5,-28,0,-4,-28,2,6,-11,-28,-1,218,-28,-1,218,39,33,0,0,0,0,0,0,1371
15.061747074,0,-4,-29,0,-4,-29,2,1,-10,-28,-1,218,-28,-1,218,39,33,0,0,0,0,0,0,1372
15.083205939,0,-5,-29,0,-5,-29,2,1,-10,-21,-2,219,-21,-2,219,38,34,0,0,0,0,0,0,1373
15.086431027,0,-4,-29,0,-4,-29,2,-3,-8,-21,-2,219,-21,-2,219,38,34,0,0,0,0,0,0,1374
15.094547987,0,-5,-29,0,-5,-29,2,-3,-8,-16,-6,222,-16,-6,222,38,34,0,0,0,0,0,0,1375
15.105575085,0,-4,-29,0,-4,-29,2,-7,-7,-16,-6,222,-16,-6,222,38,34,0,0,0,0,0,0,1376
15.116707087,0,-5,-29,0,-5,-29,2,-7,-7,-10,-11,229,-10,-11,229,39,34,0,0,0,0,0,0,1377
15.127706051,0,-4,-29,0,-4,-29,1,-8,-5,-10,-11,229,-10,-11,229,39,34,0,0,0,0,0,0,1378
15.143336058,0,-4,-29,0,-4,-29,0,-7,-3,-10,-13,233,-10,-13,233,39,34,0,0,0,0,0,0,1379
15.149616003,0,-4,-29,0,-4,-29,0,-7,-3,-10,-13,233,-10,-13,233,39,34,0,0,0,0,0,0,1380
15.160676956,0,-4,-29,0,-4,-29,0,-5,-1,-9,-12,233,-9,-12,233,38,35,0,0,0,0,0,0,1381
15.171612978,0,-4,-29,0,-4,-29,0,-2,0,-9,-12,233,-9,-12,233,38,35,0,0,0,0,0,0,1382
15.18275094,0,-4,-29,0,-4,-29,0,-2,0,-9,-12,233,-9,-12,233,38,35,0,0,0,0,0,0,1383
15.198200941,0,-3,-29,0,-4,-29,3,2,1,-11,-11,230,-11,-11,230,38,35,0,0,0,0,0,0,1384
15.204777956,0,-3,-29,0,-3,-29,6,5,2,-11,-11,230,-11,-11,230,38,35,0,0,0,0,0,0,1385
15.215712071,0,-3,-29,0,-4,-29,6,5,2,-15,-8,227,-15,-8,227,38,35,0,0,0,0,0,0,1386
15.227344036,0,-3,-29,0,-3,-29,9,8,3,-15,-8,227,-15,-8,227,38,35,0,0,0,0,0,0,1387
15.239362002,0,-3,-28,0,-3,-28,11,9,3,-24,0,225,-24,0,225,38,35,0,0,0,0,0,0,1388
15.24871397,0,-3,-28,0,-3,-28,13,9,3,-24,0,225,-24,0,225,38,35,0,0,0,0,0,0,1389
15.259552956,0,-3,-28,0,-3,-28,13,9,3,-27,2,226,-27,2,226,38,35,0,0,0,0,0,0,1390
15.270583868,0,-3,-28,0,-3,-28,15,8,3,-27,2,226,-27,2,226,38,35,0,0,0,0,0,0,1391
15.281823874,0,-4,-28,0,-3,-28,15,8,3,-29,4,228,-29,4,228,38,35,0,0,0,0,0,0,1392
15.292526007,0,-3,-28,0,-3,-28,16,6,2,-29,4,228,-29,4,228,38,35,0,0,0,0,0,0,1393
15.30356288,0,-4,-28,0,-3,-28,16,3,2,-31,6,230,-31,6,230,38,35,0,0,0,0,0,0,1394
15.314696074,0,-4,-28,0,-3,-28,16,3,2,-31,6,230,-31,6,230,38,35,0,0,0,0,0,0,1395
15.325579882,0,-4,-28,0,-4,-28,15,0,2,-32,8,233,-32,8,233,38,36,0,0,0,0,0,0,1396
15.336624861,0,-4,-28,0,-3,-28,14,-3,1,-32,8,233,-32,8,233,38,36,0,0,0,0,0,0,1397
15.347552061,0,-4,-28,0,-4,-28,14,-3,1,-32,9,233,-32,9,233,38,36,0,0,0,0,0,0,1398
15.358824969,0,-4,-28,0,-4,-28,13,-5,1,-32,9,233,-32,9,233,38,36,0,0,0,0,0,0,1399
15.369513035,1,-4,-28,0,-4,-28,12,-6,1,-32,8,232,-32,8,232,38,36,0,0,0,0,0,0,1400
15.383291006,1,-4,-28,0,-4,-28,12,-7,1,-32,8,232,-32,8,232,38,36,0,0,0,0,0,0,1401
15.391670942,1,-4,-28,0,-4,-28,12,-7,1,-30,9,228,-30,9,228,38,36,0,0,0,0,0,0,1402
15.4026649,1,-4,-28,0,-4,-28,11,-7,0,-30,9,228,-30,9,228,38,36,0,0,0,0,0,0,1403
15.413742066,1,-5,-28,1,-4,-28,11,-7,0,-27,12,226,-27,12,226,38,36,0,0,0,0,0,0,1404
15.424607992,1,-4,-28,1,-4,-28,10,-7,0,-27,12,226,-27,12,226,38,36,0,0,0,0,0,0,1405
15.435564995,1,-4,-28,1,-4,-28,9,-7,0,-16,25,225,-16,25,225,38,36,0,0,0,0,0,0,1406
15.446724892,1,-4,-28,1,-4,-28,9,-7,0,-16,25,225,-16,25,225,38,36,0,0,0,0,0,0,1407
15.457838059,2,-4,-28,1,-4,-28,9,-9,0,-8,29,226,-8,29,226,15,34,-2,0,0,0,0,0,1408
15.473089934,2,-4,-28,1,-4,-28,9,-11,-1,-8,29,226,-8,29,226,15,34,-2,0,0,0,0,0,1409
15.479969979,2,-4,-28,1,-4,-28,9,-11,-1,1,26,241,1,26,241,15,34,-2,0,0,0,0,0,1410
15.490558863,2,-4,-28,1,-4,-28,9,-14,-2,1,26,241,1,26,241,15,34,-2,0,0,0,0,0,1411
15.507323981,2,-4,-28,2,-4,-28,8,-16,-3,6,22,246,6,22,246,15,32,-1,0,0,0,0,0,1412
15.512548924,2,-3,-29,1,-4,-29,6,-17,-4,6,22,246,6,22,246,15,32,-1,0,0,0,0,0,1413
15.522603035,2,-3,-29,2,-4,-29,6,-17,-4,12,19,244,12,19,244,15,32,-1,0,0,0,0,0,1414
15.533627033,2,-3,-29,2,-4,-29,4,-16,-4,12,19,244,12,19,244,15,32,-1,0,0,0,0,0,1415
15.544739962,2,-3,-29,2,-4,-29,4,-16,-4,11,15,237,11,15,237,38,33,0,0,0,0,0,0,1416
15.555804968,2,-3,-29,2,-3,-29,2,-14,-3,11,15,237,11,15,237,38,33,0,0,0,0,0,0,1417
15.567496062,2,-2,-29,2,-3,-29,1,-9,-3,11,10,237,11,10,237,38,33,0,0,0,0,0,0,1418
15.577610016,2,-2,-29,2,-3,-29,1,-9,-3,11,10,237,11,10,237,38,33,0,0,0,0,0,0,1419
15.588836909,2,-2,-29,2,-3,-29,0,-3,-4,9,7,221,9,7,221,38,33,0,0,0,0,0,0,1420
15.599663019,2,-2,-29,2,-2,-29,-1,3,-5,9,7,221,9,7,221,38,33,0,0,0,0,0,0,1421
15.611353874,2,-2,-29,2,-2,-29,-1,3,-5,9,7,221,9,7,221,38,33,0,0,0,0,0,0,1422
15.621571064,2,-1,-29,2,-2,-29,-1,8,-6,-1,0,215,-1,0,215,38,33,0,0,0,0,0,0,1423
15.632664919,2,-1,-29,2,-2,-29,0,11,-7,-1,0,215,-1,0,215,37,33,0,0,0,0,0,0,1424
15.64385891,2,-1,-29,2,-2,-29,0,11,-7,-4,1,220,-4,1,220,37,33,0,0,0,0,0,0,1425
15.656897068,1,-1,-29,2,-1,-29,0,13,-8,-4,1,220,-4,1,220,37,33,0,0,0,0,0,0,1426
15.665620089,1,-1,-29,2,-1,-29,0,14,-8,-9,5,225,-9,5,225,37,34,0,0,0,0,0,0,1427
15.676800013,1,-1,-29,1,-1,-29,1,13,-8,-9,5,225,-9,5,225,37,34,0,0,0,0,0,0,1428
15.687905073,1,-1,-29,2,-1,-29,1,13,-8,-10,10,229,-10,10,229,37,34,0,0,0,0,0,0,1429
15.698577881,1,-1,-29,1,-1,-29,2,12,-8,-10,10,229,-10,10,229,37,34,0,0,0,0,0,0,1430
15.709645987,2,-1,-29,2,-1,-29,2,12,-8,-8,9,225,-8,9,225,38,34,0,0,0,0,0,0,1431
15.720609904,1,-1,-29,1,-1,-29,1,11,-8,-8,9,225,-8,9,225,38,34,0,0,0,0,0,0,1432
15.731483936,1,-1,-29,1,-1,-29,0,10,-8,-4,9,230,-4,9,230,38,34,0,0,0,0,0,0,1433
15.742575884,1,-1,-29,1,-1,-29,0,10,-8,-4,9,230,-4,9,230,38,34,0,0,0,0,0,0,1434
15.753561974,2,-1,-29,1,-1,-29,0,9,-8,-6,14,232,-6,14,232,38,34,0,0,0,0,0,0,1435
15.7646029,1,0,-29,1,-1,-29,-1,9,-7,-6,14,232,-6,14,232,38,34,0,0,0,0,0,0,1436
15.77909708,2,-1,-29,2,-1,-29,-1,9,-7,-8,13,236,-8,13,236,38,34,0,0,0,0,0,0,1437
15.787219048,1,0,-29,1,-1,-29,-1,9,-5,-8,13,236,-8,13,236,38,34,0,0,0,0,0,0,1438
15.797580004,2,-1,-29,2,-1,-29,-1,9,-5,-10,12,234,-10,12,234,38,35,0,0,0,0,0,0,1439
15.811870098,1,-1,-29,1,-1,-29,0,10,-3,-10,12,234,-10,12,234,38,35,0,0,0,0,0,0,1440
15.819565058,2,-1,-29,2,-1,-29,0,10,-3,-14,12,236,-14,12,236,38,35,0,0,0,0,0,0,1441
15.830687046,2,-1,-29,1,-1,-29,-1,11,-1,-14,12,236,-14,12,236,38,35,0,0,0,0,0,0,1442
15.841845036,2,-1,-29,2,-1,-29,-1,11,-1,-20,10,234,-20,10,234,38,35,0,0,0,0,0,0,1443
15.852891922,1,-1,-29,1,-1,-29,-2,11,0,-20,10,234,-20,10,234,38,35,0,0,0,0,0,0,1444
15.863993883,2,-1,-29,2,-1,-29,-2,11,0,-11,9,231,-11,9,231,38,35,0,0,0,0,0,0,1445
15.875365019,1,-1,-29,1,-1,-29,-5,9,0,-11,9,231,-11,9,231,38,35,0,0,0,0,0,0,1446
15.885701895,2,-1,-29,2,-1,-29,-5,9,0,-11,11,232,-11,11,232,37,35,0,0,0,0,0,0,1447
15.89663291,1,-1,-29,1,-1,-29,-9,8,-1,-11,11,232,-11,11,232,37,35,0,0,0,0,0,0,1448
15.907552004,2,-1,-29,2,-1,-29,-9,8,-1,-7,11,233,-7,11,233,37,35,0,0,0,0,0,0,1449
15.918667078,1,-1,-29,1,-1,-29,-12,8,-3,-7,11,233,-7,11,233,37,35,0,0,0,0,0,0,1450
15.931099892,1,-1,-29,1,-1,-29,-12,8,-3,-8,9,230,-8,9,230,37,35,0,0,0,0,0,0,1451
15.940877915,1,-1,-29,1,-1,-29,-13,8,-5,-8,9,230,-8,9,230,37,35,0,0,0,0,0,0,1452
15.951994896,1,-1,-29,1,-1,-29,-13,8,-5,-11,11,231,-11,11,231,37,35,0,0,0,0,0,0,1453
15.963025093,1,-1,-30,1,-1,-30,-15,11,-8,-11,11,231,-11,11,231,37,35,0,0,0,0,0,0,1454
15.975185871,1,-1,-30,1,-1,-30,-15,11,-8,-9,8,231,-9,8,231,37,35,0,0,0,0,0,0,1455
15.984699011,1,-1,-30,1,-1,-30,-18,15,-11,-9,8,231,-9,8,231,37,35,0,0,0,0,0,0,1456
15.995609045,1,-1,-30,1,-1,-30,-18,15,-11,-9,6,230,-9,6,230,37,35,0,0,0,0,0,0,1457
16.006671906,1,-1,-30,1,-1,-30,-21,18,-14,-9,6,230,-9,6,230,37,35,0,0,0,0,0,0,1458
16.017699957,1,-1,-30,1,-1,-30,-21,18,-14,-13,6,229,-13,6,229,37,35,0,0,0,0,0,0,1459
16.029186011,1,-1,-30,1,0,-30,-23,21,-16,-13,6,229,-13,6,229,37,35,0,0,0,0,0,0,1460
16.039599896,1,-1,-30,1,-1,-30,-23,21,-16,-15,6,232,-15,6,232,37,35,0,0,0,0,0,0,1461
16.050657988,0,-1,-30,1,0,-30,-25,23,-18,-15,6,232,-15,6,232,37,35,0,0,0,0,0,0,1462
16.061654091,1,-1,-30,1,-1,-30,-25,23,-18,-19,3,230,-19,3,230,38,36,0,0,0,0,0,0,1463
16.072481871,0,-1,-30,0,0,-30,-28,26,-21,-19,3,230,-19,3,230,38,36,0,0,0,0,0,0,1464
16.08807087,0,-1,-30,0,-1,-30,-28,26,-21,-27,0,229,-27,0,229,38,36,0,0,0,0,0,0,1465
16.094944,0,-1,-31,0,0,-31,-34,29,-24,-27,0,229,-27,0,229,38,36,0,0,0,0,0,0,1466
16.105668068,0,-1,-31,0,0,-31,-42,32,-28,-27,-4,228,-27,-4,228,38,36,0,0,0,0,0,0,1467
16.119453907,0,-1,-31,0,0,-31,-42,32,-28,-27,-4,228,-27,-4,228,38,36,0,0,0,0,0,0,1468
16.128546953,0,-1,-31,0,0,-31,-49,35,-31,-29,-10,221,-29,-10,221,38,36,0,0,0,0,0,0,1469
16.139178991,0,-1,-31,0,0,-31,-49,35,-31,-29,-10,221,-29,-10,221,38,36,0,0,0,0,0,0,1470
16.149636984,-1,-1,-31,-1,0,-31,-55,38,-33,-28,-17,214,-28,-17,214,38,36,0,0,0,0,0,0,1471
16.160660982,-1,-1,-32,-1,0,-32,-61,41,-35,-28,-17,214,-28,-17,214,38,36,0,0,0,0,0,0,1472
16.171050072,-1,-1,-32,-1,0,-32,-61,41,-35,-28,-17,214,-28,-17,214,38,36,0,0,0,0,0,0,1473
16.182583094,-3,-1,-32,-2,0,-32,-68,44,-37,-33,-43,212,-33,-43,212,38,36,0,0,0,0,0,0,1474
16.192732096,-3,0,-32,-2,0,-32,-75,47,-40,-33,-43,212,-33,-43,212,39,36,0,0,0,0,0,0,1475
16.203675986,-4,-1,-32,-3,0,-32,-75,47,-40,-37,-54,199,-37,-54,199,39,36,0,0,0,0,0,0,1476
16.214735985,-4,-1,-33,-3,0,-33,-81,49,-42,-37,-54,199,-37,-54,199,39,36,0,0,0,0,0,0,1477
16.225876093,-6,-1,-33,-4,-1,-33,-81,49,-42,-37,-66,190,-37,-66,190,39,36,0,0,0,0,0,0,1478
16.238337994,-6,-1,-33,-4,0,-33,-85,49,-43,-37,-66,190,-37,-66,190,40,37,0,0,0,0,0,0,1479
16.24763608,-7,-2,-33,-5,-1,-33,-85,49,-43,-40,-76,186,-40,-76,186,40,37,0,0,0,0,0,0,1480
16.258712053,-7,-1,-33,-5,-1,-33,-85,48,-43,-40,-76,186,-40,-76,186,40,37,0,0,0,0,0,0,1481
16.269469023,-9,-2,-33,-6,-1,-33,-85,48,-43,-41,-87,182,-41,-87,182,41,37,0,0,0,0,0,0,1482
16.2808249,-9,-2,-34,-6,-1,-34,-84,46,-45,-41,-87,182,-41,-87,182,41,37,0,0,0,0,0,0,1483
16.291755915,-11,-2,-34,-8,-2,-34,-84,46,-45,-40,-95,179,-40,-95,179,41,37,0,0,0,0,0,0,1484
16.307327986,-10,-2,-34,-8,-1,-34,-80,44,-46,-40,-95,179,-40,-95,179,41,37,0,0,0,0,0,0,1485
16.313674927,-13,-3,-34,-10,-2,-34,-80,44,-46,-41,-105,178,-41,-105,178,15,35,-2,0,0,0,0,0,1486
16.324541092,-12,-2,-34,-9,-1,-34,-76,42,-48,-41,-105,178,-41,-105,178,15,35,-2,0,0,0,0,0,1487
16.335520983,-14,-3,-34,-11,-2,-34,-76,42,-48,-44,-112,177,-44,-112,177,15,35,-2,0,0,0,0,0,1488
16.346709013,-14,-3,-35,-11,-2,-35,-74,42,-50,-44,-112,177,-44,-112,177,16,33,-1,0,0,0,0,0,1489
16.359248877,-16,-3,-35,-13,-3,-35,-74,42,-50,-45,-121,172,-45,-121,172,16,33,-1,0,0,0,0,0,1490
16.368767977,-16,-3,-35,-12,-2,-35,-73,43,-51,-45,-121,172,-45,-121,172,16,33,-1,0,0,0,0,0,1491
16.379667998,-18,-4,-35,-15,-3,-35,-73,43,-51,-47,-131,164,-47,-131,164,16,33,-1,0,0,0,0,0,1492
16.392468929,-18,-3,-36,-14,-2,-36,-73,46,-51,-47,-131,164,-47,-131,164,16,33,-1,0,0,0,0,0,1493
16.401998997,-21,-3,-36,-17,-3,-36,-73,46,-51,-42,-146,156,-42,-146,156,16,33,-1,0,0,0,0,0,1494
16.412581921,-20,-3,-36,-16,-2,-36,-73,51,-49,-42,-146,156,-42,-146,156,16,33,-1,0,0,0,0,0,1495
16.424114943,-20,-3,-36,-16,-2,-36,-73,51,-49,-42,-146,156,-42,-146,156,16,33,-1,0,0,0,0,0,1496
16.434678078,-22,-3,-36,-18,-2,-36,-73,56,-44,-43,-154,150,-43,-154,150,16,33,-1,0,0,0,0,0,1497
16.444494963,-22,-3,-36,-18,-2,-36,-73,56,-44,-43,-154,150,-43,-154,150,16,33,-1,0,0,0,0,0,1498
16.455878973,-21,-2,-36,-18,-1,-36,-73,61,-38,-43,-154,150,-43,-154,150,16,33,-1,0,0,0,0,0,1499
16.46664691,-25,-3,-36,-21,-2,-36,-73,61,-38,-53,-176,139,-53,-176,139,16,33,-1,0,0,0,0,0,1500
16.477846861,-24,-2,-37,-20,-1,-37,-73,63,-32,-53,-176,139,-53,-176,139,16,33,-1,0,0,0,0,0,1501
16.488739968,-27,-3,-37,-23,-2,-37,-73,63,-32,-62,-190,137,-62,-190,137,16,33,-1,0,0,0,0,0,1502
16.499716997,-25,-3,-37,-22,-2,-37,-72,62,-24,-62,-190,137,-62,-190,137,16,33,-1,0,0,0,0,0,1503
16.512069941,-24,-2,-37,-20,-1,-37,-66,62,-16,-62,-190,137,-62,-190,137,16,33,-1,0,0,0,0,0,1504
16.521780014,-26,-2,-37,-23,-1,-37,-56,62,-9,-84,-206,132,-84,-206,132,16,33,-1,0,0,0,0,0,1505
16.532538891,-26,-2,-37,-23,-1,-37,-56,62,-9,-84,-206,132,-84,-206,132,16,33,-1,0,0,0,0,0,1506
16.543720007,-25,-2,-37,-21,-1,-37,-46,62,-5,-84,-206,132,-84,-206,132,16,33,-1,0,0,0,0,0,1507
16.554615021,-29,-3,-37,-25,-2,-37,-46,62,-5,-96,-211,123,-96,-211,123,16,33,-1,0,0,0,0,0,1508
16.565649033,-27,-2,-37,-23,-1,-37,-37,60,-2,-96,-211,123,-96,-211,123,16,33,-1,0,0,0,0,0,1509
16.577033997,-30,-4,-37,-27,-3,-37,-37,60,-2,-107,-213,118,-107,-213,118,16,33,-1,0,0,0,0,0,1510
16.587703943,-28,-4,-37,-25,-2,-37,-27,55,0,-107,-213,118,-107,-213,118,16,33,-1,0,0,0,0,0,1511
16.598659992,-28,-4,-37,-25,-2,-37,-27,55,0,-107,-213,118,-107,-213,118,16,33,-1,0,0,0,0,0,1512
16.609813929,-30,-5,-37,-27,-4,-37,-13,45,4,-125,-207,114,-125,-207,114,16,33,-1,0,0,0,0,0,1513
16.620544911,-30,-5,-37,-27,-4,-37,-13,45,4,-125,-207,114,-125,-207,114,16,33,-1,0,0,0,0,0,1514
16.632071972,-27,-5,-36,-25,-3,-36,0,31,8,-125,-207,114,-125,-207,114,16,33,-1,0,0,0,0,0,1515
16.642916918,-29,-6,-36,-26,-5,-36,11,16,10,-129,-201,113,-129,-201,113,16,33,-1,0,0,0,0,0,1516
16.653645039,-26,-6,-36,-24,-5,-36,19,2,12,-129,-201,113,-129,-201,113,16,33,-1,0,0,0,0,0,1517
16.668047905,-30,-8,-36,-28,-6,-36,19,2,12,-124,-195,123,-124,-195,123,16,33,-1,0,0,0,0,0,1518
16.675913096,-27,-8,-36,-25,-6,-36,25,-7,13,-124,-195,123,-124,-195,123,16,33,-1,0,0,0,0,0,1519
16.686690092,-27,-8,-36,-25,-6,-36,25,-7,13,-124,-195,123,-124,-195,123,16,33,-1,0,0,0,0,0,1520
16.69758606,-28,-9,-36,-27,-8,-36,31,-16,15,-118,-192,132,-118,-192,132,16,33,-1,0,0,0,0,0,1521
16.708617926,-28,-9,-36,-27,-8,-36,31,-16,15,-118,-192,132,-118,-192,132,16,33,-1,0,0,0,0,0,1522
16.719634056,-26,-9,-36,-24,-7,-36,37,-26,18,-118,-192,132,-118,-192,132,16,33,-1,0,0,0,0,0,1523
16.731365919,-29,-11,-36,-28,-9,-36,37,-26,18,-105,-185,145,-105,-185,145,16,33,-1,0,0,0,0,0,1524
16.741836071,-26,-10,-35,-25,-9,-35,45,-36,22,-105,-185,145,-105,-185,145,16,33,-1,0,0,0,0,0,1525
16.752531052,-29,-12,-35,-28,-11,-35,45,-36,22,-100,-181,149,-100,-181,149,16,33,-1,0,0,0,0,0,1526
16.763850928,-27,-11,-35,-26,-10,-35,54,-44,27,-100,-181,149,-100,-181,149,16,33,-1,0,0,0,0,0,1527
16.774661064,-25,-11,-35,-24,-10,-35,61,-49,32,-100,-181,149,-100,-181,149,16,33,-1,0,0,0,0,0,1528
16.785809994,-25,-12,-34,-24,-11,-34,66,-50,36,-90,-172,151,-90,-172,151,16,33,-1,0,0,0,0,0,1529
16.799154043,-25,-12,-34,-24,-11,-34,66,-50,36,-90,-172,151,-90,-172,151,16,33,-1,0,0,0,0,0,1530
16.808583021,-23,-12,-34,-22,-11,-34,70,-51,38,-90,-172,151,-90,-172,151,16,33,-1,0,0,0,0,0,1531
16.819442988,-26,-13,-34,-25,-13,-34,70,-51,38,-85,-165,150,-85,-165,150,16,33,-1,0,0,0,0,0,1532
16.829825878,-23,-13,-33,-22,-12,-33,75,-53,39,-85,-165,150,-85,-165,150,16,33,-1,0,0,0,0,0,1533
16.840628863,-26,-14,-33,-25,-14,-33,75,-53,39,-82,-154,152,-82,-154,152,16,33,-1,0,0,0,0,0,1534
16.851602078,-23,-14,-33,-23,-13,-33,81,-55,40,-82,-154,152,-82,-154,152,16,33,-1,0,0,0,0,0,1535
16.86265707,-23,-14,-33,-23,-13,-33,81,-55,40,-82,-154,152,-82,-154,152,41,34,0,0,0,0,0,0,1536
16.873593092,-23,-14,-33,-24,-14,-33,89,-56,41,-73,-128,161,-73,-128,161,41,34,0,0,0,0,0,0,1537
16.88457799,-21,-14,-33,-21,-14,-33,97,-58,41,-73,-128,161,-73,-128,161,41,34,0,0,0,0,0,0,1538
16.895581961,-23,-15,-33,-24,-15,-33,97,-58,41,-69,-112,169,-69,-112,169,40,34,0,0,0,0,0,0,1539
16.906720877,-21,-14,-32,-22,-14,-32,101,-58,40,-69,-112,169,-69,-112,169,40,34,0,0,0,0,0,0,1540
16.919604063,-23,-16,-32,-24,-16,-32,101,-58,40,-67,-99,173,-67,-99,173,40,34,0,0,0,0,0,0,1541
16.931479931,-21,-15,-32,-22,-15,-32,103,-57,38,-67,-99,173,-67,-99,173,40,34,0,0,0,0,0,0,1542
16.939759016,-20,-16,-32,-22,-16,-32,104,-57,37,-63,-86,180,-63,-86,180,15,32,-1,0,0,0,0,0,1543
16.950680018,-20,-16,-32,-22,-16,-32,104,-57,37,-63,-86,180,-63,-86,180,15,32,-1,0,0,0,0,0,1544
16.961937905,-19,-16,-31,-21,-16,-31,103,-56,36,-60,-77,184,-60,-77,184,15,32,-1,0,0,0,0,0,1545
16.972635985,-17,-15,-31,-19,-15,-31,102,-55,34,-60,-77,184,-60,-77,184,40,33,0,0,0,0,0,0,1546
16.98364687,-17,-15,-31,-19,-15,-31,102,-55,34,-60,-77,184,-60,-77,184,40,33,0,0,0,0,0,0,1547
16.994693041,-17,-16,-31,-19,-16,-31,100,-54,31,-54,-65,191,-54,-65,191,40,33,0,0,0,0,0,0,1548
17.012157917,-15,-15,-31,-17,-15,-31,98,-54,28,-54,-65,191,-54,-65,191,39,34,0,0,0,0,0,0,1549
17.016618014,-14,-15,-31,-16,-16,-31,99,-53,25,-48,-60,194,-48,-60,194,39,34,0,0,0,0,0,0,1550
17.027631045,-14,-15,-31,-16,-16,-31,99,-53,25,-48,-60,194,-48,-60,194,39,34,0,0,0,0,0,0,1551
17.041282892,-13,-15,-31,-16,-16,-31,100,-53,22,-42,-53,193,-42,-53,193,39,34,0,0,0,0,0,0,1552
17.049776077,-12,-14,-31,-14,-15,-31,102,-52,20,-42,-53,193,-42,-53,193,39,34,0,0,0,0,0,0,1553
17.060777903,-13,-15,-31,-15,-16,-31,102,-52,20,-37,-44,197,-37,-44,197,39,34,0,0,0,0,0,0,1554
17.071521998,-11,-14,-30,-14,-15,-30,104,-51,17,-37,-44,197,-37,-44,197,39,34,0,0,0,0,0,0,1555
17.083424092,-12,-15,-30,-15,-16,-30,104,-51,17,-35,-35,198,-35,-35,198,39,34,0,0,0,0,0,0,1556
17.093673945,-10,-14,-30,-13,-15,-30,106,-50,14,-35,-35,198,-35,-35,198,39,34,0,0,0,0,0,0,1557
17.104642868,-9,-14,-30,-12,-15,-30,110,-49,10,-30,-21,197,-30,-21,197,39,34,0,0,0,0,0,0,1558
17.115618944,-9,-14,-30,-12,-15,-30,110,-49,10,-30,-21,197,-30,-21,197,39,34,0,0,0,0,0,0,1559
17.129956007,-7,-14,-30,-11,-15,-30,113,-48,5,-22,0,195,-22,0,195,40,35,0,0,0,0,0,0,1560
17.137707949,-6,-13,-30,-9,-15,-30,116,-48,1,-22,0,195,-22,0,195,40,35,0,0,0,0,0,0,1561
17.148798943,-6,-14,-30,-10,-15,-30,116,-48,1,-21,13,188,-21,13,188,40,35,0,0,0,0,0,0,1562
17.159561873,-5,-13,-30,-8,-15,-30,118,-50,-1,-21,13,188,-21,13,188,40,35,0,0,0,0,0,0,1563
17.170731068,-3,-13,-31,-7,-14,-31,120,-52,-4,-12,29,191,-12,29,191,15,33,-1,0,0,0,0,0,1564
17.181478024,-2,-12,-31,-5,-14,-31,120,-54,-5,-12,29,191,-12,29,191,15,33,-1,0,0,0,0,0,1565
17.192885876,-1,-12,-31,-5,-14,-31,120,-54,-5,0,43,194,0,43,194,15,33,-1,0,0,0,0,0,1566
17.203480005,0,-12,-31,-4,-13,-31,121,-55,-7,0,43,194,0,43,194,15,33,-1,0,0,0,0,0,1567
17.214812041,0,-12,-31,-3,-14,-31,121,-55,-7,1,58,196,1,58,196,41,34,0,0,0,0,0,0,1568
17.225533009,1,-11,-31,-2,-13,-31,121,-55,-9,1,58,196,1,58,196,41,34,0,0,0,0,0,0,1569
17.236701966,3,-11,-31,0,-13,-31,120,-53,-11,2,66,199,2,66,199,41,34,0,0,0,0,0,0,1570
17.247803927,3,-11,-31,0,-13,-31,120,-53,-11,2,66,199,2,66,199,41,34,0,0,0,0,0,0,1571
17.258599043,5,-10,-31,1,-12,-31,121,-51,-12,5,76,196,5,76,196,15,32,-1,0,0,0,0,0,1572
17.269623995,6,-10,-31,1,-11,-31,122,-48,-12,5,76,196,5,76,196,15,32,-1,0,0,0,0,0,1573
17.280524016,7,-9,-31,2,-11,-31,122,-48,-12,9,88,198,9,88,198,15,32,-1,0,0,0,0,0,1574
17.292068005,7,-9,-31,3,-11,-31,123,-45,-11,9,88,198,9,88,198,15,32,-1,0,0,0,0,0,1575
17.302712918,10,-8,-31,5,-10,-31,123,-42,-11,16,104,194,16,104,194,15,32,-1,0,0,0,0,0,1576
17.313540936,10,-8,-31,6,-10,-31,121,-41,-11,16,104,194,16,104,194,15,32,-1,0,0,0,0,0,1577
17.325020075,13,-8,-31,8,-10,-31,121,-41,-11,22,118,191,22,118,191,15,32,-1,0,0,0,0,0,1578
17.335551977,12,-7,-31,8,-9,-31,118,-41,-12,22,118,191,22,118,191,15,32,-1,0,0,0,0,0,1579
17.346586943,12,-7,-31,8,-9,-31,118,-41,-12,22,118,191,22,118,191,15,32,-1,0,0,0,0,0,1580
17.357585907,15,-7,-32,10,-9,-32,114,-41,-13,34,149,193,34,149,193,15,32,-1,0,0,0,0,0,1581
17.368535996,15,-7,-32,10,-9,-32,114,-41,-13,34,149,193,34,149,193,15,32,-1,0,0,0,0,0,1582
17.379600048,15,-6,-32,10,-8,-32,108,-41,-13,34,149,193,34,149,193,15,32,-1,0,0,0,0,0,1583
17.390924931,17,-6,-32,13,-8,-32,108,-41,-13,48,181,198,48,181,198,15,32,-1,0,0,0,0,0,1584
17.404023886,17,-6,-32,12,-8,-32,98,-39,-11,48,181,198,48,181,198,15,32,-1,0,0,0,0,0,1585
17.412764073,20,-5,-32,15,-7,-32,98,-39,-11,58,195,203,58,195,203,15,32,-1,0,0,0,0,0,1586
17.423671961,19,-5,-32,14,-7,-32,85,-34,-9,58,195,203,58,195,203,15,32,-1,0,0,0,0,0,1587
17.434676886,21,-3,-32,16,-6,-32,69,-27,-6,68,207,205,68,207,205,15,32,-1,0,0,0,0,0,1588
17.445648909,20,-3,-32,15,-5,-32,54,-19,-2,68,207,205,68,207,205,15,32,-1,0,0,0,0,0,1589
17.456678868,23,-2,-32,18,-4,-32,54,-19,-2,75,216,209,75,216,209,15,32,-1,0,0,0,0,0,1590
17.467705965,21,-2,-32,17,-4,-32,40,-11,0,75,216,209,75,216,209,15,32,-1,0,0,0,0,0,1591
17.478750944,23,-1,-32,19,-3,-32,24,-4,0,80,225,212,80,225,212,15,32,-1,0,0,0,0,0,1592
17.489615917,21,0,-32,17,-2,-32,5,5,1,80,225,212,80,225,212,15,32,-1,0,0,0,0,0,1593
17.500671864,24,0,-32,20,-1,-32,5,5,1,81,224,214,81,224,214,15,32,-1,0,0,0,0,0,1594
17.513669968,22,0,-32,18,-1,-32,-13,14,2,81,224,214,81,224,214,15,32,-1,0,0,0,0,0,1595
17.529144049,23,1,-32,20,0,-32,-27,21,1,74,217,214,74,217,214,15,32,-1,0,0,0,0,0,1596
17.533766031,21,1,-32,18,0,-32,-40,26,0,74,217,214,74,217,214,15,32,-1,0,0,0,0,0,1597
17.544529915,24,2,-32,21,0,-32,-40,26,0,68,208,215,68,208,215,15,32,-1,0,0,0,0,0,1598
17.558568955,22,2,-32,19,1,-32,-55,32,0,68,208,215,68,208,215,15,32,-1,0,0,0,0,0,1599
17.566715956,22,3,-32,20,2,-32,-69,39,-1,42,192,216,42,192,216,15,32,-1,0,0,0,0,0,1600
17.57771492,19,4,-32,17,2,-32,-82,47,-2,42,192,216,42,192,216,15,32,-1,0,0,0,0,0,1601
17.589572907,22,4,-32,20,3,-32,-82,47,-2,36,165,206,36,165,206,15,32,-1,0,0,0,0,0,1602
17.599616051,20,4,-32,18,3,-32,-94,55,-5,36,165,206,36,165,206,15,32,-1,0,0,0,0,0,1603
17.610810042,18,4,-32,16,3,-32,-106,64,-9,36,165,206,36,165,206,17,30,-1,0,0,0,0,0,1604
17.621582031,20,5,-32,18,4,-32,-106,64,-9,29,149,200,29,149,200,17,30,-1,0,0,0,0,0,1605
17.632796049,18,5,-32,16,4,-32,-117,70,-14,29,149,200,29,149,200,17,30,-1,0,0,0,0,0,1606
17.643581867,20,5,-32,19,5,-32,-117,70,-14,15,133,190,15,133,190,40,31,0,0,0,0,0,0,1607
17.654597998,18,5,-32,17,5,-32,-125,73,-18,15,133,190,15,133,190,40,31,0,0,0,0,0,0,1608
17.665704012,20,5,-32,19,5,-32,-125,73,-18,11,120,186,11,120,186,40,31,0,0,0,0,0,0,1609
17.681483984,18,6,-33,17,6,-33,-132,73,-22,11,120,186,11,120,186,40,31,0,0,0,0,0,0,1610
17.687853098,20,6,-33,19,6,-33,-132,73,-22,0,103,183,0,103,183,15,30,-1,0,0,0,0,0,1611
17.698610068,17,6,-33,17,6,-33,-140,72,-25,0,103,183,0,103,183,15,30,-1,0,0,0,0,0,1612
17.71509409,19,5,-33,19,6,-33,-140,72,-25,-13,74,184,-13,74,184,15,30,-1,0,0,0,0,0,1613
17.720561028,17,5,-33,17,6,-33,-146,72,-28,-13,74,184,-13,74,184,15,30,-1,0,0,0,0,0,1614
17.731657028,18,5,-33,19,6,-33,-146,72,-28,-26,55,182,-26,55,182,40,31,0,0,0,0,0,0,1615
17.742547035,15,5,-33,16,6,-33,-149,69,-30,-26,55,182,-26,55,182,40,31,0,0,0,0,0,0,1616
17.753630877,16,4,-33,18,6,-33,-149,69,-30,-25,35,182,-25,35,182,40,31,0,0,0,0,0,0,1617
17.764687061,14,4,-33,16,6,-33,-151,62,-28,-25,35,182,-25,35,182,40,31,0,0,0,0,0,0,1618
17.775517941,14,4,-33,17,5,-33,-151,62,-28,-23,15,181,-23,15,181,15,29,-1,0,0,0,0,0,1619
17.786633969,12,4,-34,15,5,-34,-154,53,-25,-23,15,181,-23,15,181,15,29,-1,0,0,0,0,0,1620
17.797795057,12,3,-34,15,5,-34,-154,53,-25,-25,-10,180,-25,-10,180,15,29,-1,0,0,0,0,0,1621
17.808608055,10,3,-34,13,5,-34,-156,45,-22,-25,-10,180,-25,-10,180,15,28,-1,0,0,0,0,0,1622
17.819595099,9,3,-34,14,4,-34,-156,45,-22,-27,-33,178,-27,-33,178,15,28,-1,0,0,0,0,0,1623
17.838171959,8,3,-34,12,4,-34,-155,41,-19,-27,-33,178,-27,-33,178,15,28,-1,0,0,0,0,0,1624
17.841837883,7,2,-34,12,4,-34,-155,41,-19,-33,-53,185,-33,-53,185,40,29,1,0,0,0,0,0,1625
17.852612972,5,2,-34,10,4,-34,-149,42,-14,-33,-53,185,-33,-53,185,40,29,1,0,0,0,0,0,1626
17.864903927,4,1,-34,9,3,-34,-149,42,-14,-36,-67,187,-36,-67,187,40,29,1,0,0,0,0,0,1627
17.874588967,3,2,-34,8,4,-34,-141,47,-7,-36,-67,187,-36,-67,187,40,29,1,0,0,0,0,0,1628
17.885735035,1,1,-34,7,3,-34,-141,47,-7,-39,-76,187,-39,-76,187,15,27,-1,0,0,0,0,0,1629
17.896631956,1,1,-34,6,3,-34,-131,54,-2,-39,-76,187,-39,-76,187,15,27,-1,0,0,0,0,0,1630
17.907494068,-1,1,-34,3,3,-34,-121,62,0,-43,-84,186,-43,-84,186,15,27,-1,0,0,0,0,0,1631
17.919250965,-1,1,-34,3,3,-34,-121,62,0,-43,-84,186,-43,-84,186,15,26,-1,0,0,0,0,0,1632
17.931315899,-3,0,-34,1,2,-34,-112,68,-1,-50,-86,181,-50,-86,181,15,26,-1,0,0,0,0,0,1633
17.940887928,-3,0,-34,1,2,-34,-112,68,-1,-50,-86,181,-50,-86,181,15,26,-1,0,0,0,0,0,1634
17.952497006,-6,0,-34,0,2,-34,-105,70,-3,-58,-83,167,-58,-83,167,16,25,-1,0,0,0,0,0,1635
17.967232943,-6,0,-34,0,2,-34,-105,70,-3,-58,-83,167,-58,-83,167,16,25,-1,0,0,0,0,0,1636
17.973633051,-8,0,-34,-3,1,-34,-100,70,-8,-53,-87,155,-53,-87,155,16,25,-1,0,0,0,0,0,1637
17.986335039,-8,0,-34,-3,1,-34,-100,70,-8,-53,-87,155,-53,-87,155,16,25,-1,0,0,0,0,0,1638
17.999006033,-11,-1,-34,-5,0,-34,-101,71,-14,-55,-95,143,-55,-95,143,17,24,0,0,0,0,0,0,1639
18.006728888,-11,-1,-34,-5,0,-34,-101,71,-14,-55,-95,143,-55,-95,143,17,24,0,0,0,0,0,0,1640
18.017598868,-14,-1,-35,-8,0,-35,-109,74,-22,-53,-110,135,-53,-110,135,17,24,0,0,0,0,0,0,1641
18.028866053,-14,-1,-35,-8,0,-35,-109,74,-22,-53,-110,135,-53,-110,135,17,24,0,0,0,0,0,0,1642
18.039766073,-17,-1,-35,-11,0,-35,-121,79,-29,-59,-131,130,-59,-131,130,17,24,0,0,0,0,0,0,1643
18.055345059,-17,0,-35,-12,1,-35,-134,88,-33,-59,-131,130,-59,-131,130,17,24,0,0,0,0,0,0,1644
18.062160969,-20,-1,-35,-15,0,-35,-134,88,-33,-73,-159,126,-73,-159,126,17,24,0,0,0,0,0,0,1645
18.072664976,-20,-1,-35,-14,0,-35,-141,100,-33,-73,-159,126,-73,-159,126,17,24,0,0,0,0,0,0,1646
18.08368206,-23,-1,-36,-17,0,-36,-140,112,-32,-84,-184,111,-84,-184,111,17,24,0,0,0,0,0,0,1647
18.095074892,-23,0,-36,-17,1,-36,-135,124,-29,-84,-184,111,-84,-184,111,17,24,0,0,0,0,0,0,1648
18.109633923,-26,-1,-36,-21,0,-36,-135,124,-29,-94,-204,102,-94,-204,102,17,24,0,0,0,0,0,0,1649
18.116713047,-25,0,-36,-20,1,-36,-127,132,-25,-94,-204,102,-94,-204,102,17,24,0,0,0,0,0,0,1650
18.12767601,-28,-1,-36,-22,0,-36,-116,136,-21,-116,-218,114,-116,-218,114,17,24,0,0,0,0,0,0,1651
18.139160872,-27,0,-36,-22,1,-36,-103,134,-18,-116,-218,114,-116,-218,114,17,24,0,0,0,0,0,0,1652
18.149717093,-30,-2,-36,-25,0,-36,-103,134,-18,-130,-226,88,-130,-226,88,17,24,0,0,0,0,0,0,1653
18.160516977,-29,-1,-37,-24,0,-37,-90,128,-17,-130,-226,88,-130,-226,88,17,24,0,0,0,0,0,0,1654
18.175126076,-27,0,-37,-23,1,-37,-76,118,-18,-130,-226,88,-130,-226,88,6,23,-1,0,0,0,0,0,1655
18.182610989,-29,-2,-37,-25,0,-37,-62,106,-19,-153,-239,71,-153,-239,71,6,23,-1,0,0,0,0,0,1656
18.193655014,-29,-2,-37,-25,0,-37,-62,106,-19,-153,-239,71,-153,-239,71,6,23,-1,0,0,0,0,0,1657
18.206445933,-31,-3,-37,-27,-1,-37,-49,95,-20,-166,-238,73,-166,-238,73,6,21,-1,0,0,0,0,0,1658
18.215568066,-29,-3,-37,-25,-1,-37,-36,83,-20,-166,-238,73,-166,-238,73,6,21,-1,0,0,0,0,0,1659
18.226665974,-32,-5,-37,-29,-3,-37,-36,83,-20,-174,-227,74,-174,-227,74,6,21,-1,0,0,0,0,0,1660
18.237981081,-30,-5,-37,-27,-2,-37,-21,68,-20,-174,-227,74,-174,-227,74,6,21,-1,0,0,0,0,0,1661
18.248697996,-31,-7,-37,-28,-4,-37,-5,48,-18,-178,-210,66,-178,-210,66,6,21,-1,0,0,0,0,0,1662
18.258713007,-31,-7,-37,-28,-4,-37,-5,48,-18,-178,-210,66,-178,-210,66,6,21,-1,0,0,0,0,0,1663
18.269614935,-29,-6,-37,-26,-4,-37,8,26,-13,-178,-210,66,-178,-210,66,6,21,-1,0,0,0,0,0,1664
18.281682015,-30,-9,-37,-28,-6,-37,16,6,-6,-175,-209,66,-175,-209,66,6,21,-1,0,0,0,0,0,1665
18.29500103,-27,-8,-37,-26,-6,-37,18,-8,0,-175,-209,66,-175,-209,66,6,21,-1,0,0,0,0,0,1666
18.307112932,-31,-11,-37,-29,-9,-37,18,-8,0,-174,-209,68,-174,-209,68,6,21,-1,0,0,0,0,0,1667
18.314877033,-28,-11,-37,-27,-8,-37,20,-18,5,-174,-209,68,-174,-209,68,6,21,-1,0,0,0,0,0,1668
18.325529099,-28,-11,-37,-27,-8,-37,20,-18,5,-174,-209,68,-174,-209,68,6,21,-1,0,0,0,0,0,1669
18.33949399,-29,-13,-37,-28,-11,-37,24,-27,10,-157,-210,78,-157,-210,78,6,21,-1,0,0,0,0,0,1670
18.346567869,-29,-13,-37,-28,-11,-37,24,-27,10,-157,-210,78,-157,-210,78,6,21,-1,0,0,0,0,0,1671
18.357661963,-27,-12,-37,-26,-10,-37,30,-38,14,-157,-210,78,-157,-210,78,6,21,-1,0,0,0,0,0,1672
18.368985892,-31,-15,-37,-29,-13,-37,30,-38,14,-147,-211,88,-147,-211,88,19,21,0,0,0,0,0,0,1673
18.379705906,-28,-14,-37,-27,-12,-37,38,-50,18,-147,-211,88,-147,-211,88,19,21,0,0,0,0,0,0,1674
18.390640021,-32,-16,-37,-30,-15,-37,38,-50,18,-139,-208,91,-139,-208,91,19,21,0,0,0,0,0,0,1675
18.401939869,-29,-15,-36,-28,-14,-36,47,-60,21,-139,-208,91,-139,-208,91,19,21,0,0,0,0,0,0,1676
18.419118881,-30,-17,-36,-28,-16,-36,58,-66,22,-125,-202,96,-125,-202,96,19,21,0,0,0,0,0,0,1677
18.426410914,-30,-17,-36,-28,-16,-36,58,-66,22,-125,-202,96,-125,-202,96,19,21,0,0,0,0,0,0,1678
18.434791088,-27,-16,-36,-26,-16,-36,68,-69,21,-125,-202,96,-125,-202,96,19,21,0,0,0,0,0,0,1679
18.446621895,-28,-18,-36,-27,-17,-36,78,-71,21,-116,-191,101,-116,-191,101,19,21,0,0,0,0,0,0,1680
18.456882954,-25,-17,-36,-24,-17,-36,84,-74,20,-116,-191,101,-116,-191,101,19,21,0,0,0,0,0,0,1681
18.467719078,-28,-19,-36,-27,-19,-36,84,-74,20,-107,-180,110,-107,-180,110,19,21,0,0,0,0,0,0,1682
18.478595972,-26,-18,-35,-25,-18,-35,87,-75,19,-107,-180,110,-107,-180,110,19,21,0,0,0,0,0,0,1683
18.489799977,-26,-18,-35,-25,-18,-35,87,-75,19,-107,-180,110,-107,-180,110,19,21,0,0,0,0,0,0,1684
18.500652075,-26,-19,-35,-25,-19,-35,92,-75,17,-92,-192,128,-92,-192,128,19,21,0,0,0,0,0,0,1685
18.511908055,-26,-19,-35,-25,-19,-35,92,-75,17,-92,-192,128,-92,-192,128,19,21,0,0,0,0,0,0,1686
18.522618056,-23,-18,-35,-23,-18,-35,102,-72,16,-92,-192,128,-92,-192,128,19,21,0,0,0,0,0,0,1687
18.533746004,-27,-20,-35,-26,-20,-35,102,-72,16,-95,-164,119,-95,-164,119,19,21,0,0,0,0,0,0,1688
18.544749022,-23,-19,-35,-23,-19,-35,116,-66,17,-95,-164,119,-95,-164,119,19,21,0,0,0,0,0,0,1689
18.555799961,-26,-21,-35,-26,-21,-35,116,-66,17,-93,-139,124,-93,-139,124,19,21,0,0,0,0,0,0,1690
18.566571951,-23,-20,-35,-23,-20,-35,133,-59,21,-93,-139,124,-93,-139,124,19,21,0,0,0,0,0,0,1691
18.577919007,-21,-19,-34,-20,-19,-34,146,-55,27,-93,-139,124,-93,-139,124,41,23,1,0,0,0,0,0,1692
18.588731051,-23,-21,-34,-23,-21,-34,146,-55,27,-95,-112,136,-95,-112,136,41,23,1,0,0,0,0,0,1693
18.599766016,-20,-20,-34,-21,-20,-34,151,-56,31,-95,-112,136,-95,-112,136,41,23,1,0,0,0,0,0,1694
18.611038923,-20,-21,-34,-21,-21,-34,151,-60,33,-92,-93,145,-92,-93,145,41,24,1,0,0,0,0,0,1695
18.621820927,-18,-20,-33,-19,-20,-33,149,-63,35,-92,-93,145,-92,-93,145,41,24,1,0,0,0,0,0,1696
18.632736921,-19,-22,-33,-21,-22,-33,149,-63,35,-89,-79,148,-89,-79,148,41,24,1,0,0,0,0,0,1697
18.643578053,-17,-21,-33,-19,-21,-33,146,-65,38,-89,-79,148,-89,-79,148,41,24,1,0,0,0,0,0,1698
18.655318022,-18,-22,-33,-21,-23,-33,146,-65,38,-83,-48,164,-83,-48,164,40,26,1,0,0,0,0,0,1699
18.665667057,-16,-21,-33,-18,-22,-33,142,-65,42,-83,-48,164,-83,-48,164,40,26,1,0,0,0,0,0,1700
18.676869869,-17,-23,-33,-20,-23,-33,142,-65,42,-73,-37,171,-73,-37,171,40,26,1,0,0,0,0,0,1701
18.687606096,-14,-22,-32,-18,-22,-32,138,-65,45,-73,-37,171,-73,-37,171,40,26,1,0,0,0,0,0,1702
18.698885918,-15,-23,-32,-19,-24,-32,138,-65,45,-65,-25,178,-65,-25,178,41,27,1,0,0,0,0,0,1703
18.711126089,-13,-22,-32,-17,-23,-32,135,-67,47,-65,-25,178,-65,-25,178,41,27,1,0,0,0,0,0,1704
18.723221064,-13,-23,-32,-18,-24,-32,135,-67,47,-62,-15,180,-62,-15,180,41,27,1,0,0,0,0,0,1705
18.732136965,-12,-22,-32,-16,-23,-32,134,-71,45,-62,-15,180,-62,-15,180,41,27,1,0,0,0,0,0,1706
18.742948055,-10,-22,-32,-14,-24,-32,133,-74,41,-57,-4,184,-57,-4,184,41,28,1,0,0,0,0,0,1707
18.753632069,-8,-21,-31,-12,-22,-31,129,-76,36,-57,-4,184,-57,-4,184,41,28,1,0,0,0,0,0,1708
18.764808893,-8,-22,-31,-13,-24,-31,129,-76,36,-46,8,188,-46,8,188,41,28,1,0,0,0,0,0,1709
18.783324957,-7,-21,-31,-11,-23,-31,124,-76,32,-46,8,188,-46,8,188,41,28,1,0,0,0,0,0,1710
18.786602974,-7,-22,-31,-11,-24,-31,124,-76,32,-37,16,193,-37,16,193,41,30,1,0,0,0,0,0,1711
18.797633887,-5,-21,-31,-10,-22,-31,119,-75,29,-37,16,193,-37,16,193,41,30,1,0,0,0,0,0,1712
18.808748961,-4,-20,-31,-8,-22,-31,116,-75,25,-27,29,201,-27,29,201,41,30,1,0,0,0,0,0,1713
18.819699049,-4,-20,-31,-8,-22,-31,116,-75,25,-27,29,201,-27,29,201,41,30,1,0,0,0,0,0,1714
18.831037998,-2,-20,-31,-6,-22,-31,115,-74,19,-25,38,206,-25,38,206,15,28,-1,0,0,0,0,0,1715
18.84169507,-1,-19,-31,-5,-21,-31,112,-72,14,-25,38,206,-25,38,206,15,28,-1,0,0,0,0,0,1716
18.852815867,0,-18,-31,-4,-21,-31,108,-68,11,-16,54,209,-16,54,209,15,28,-1,0,0,0,0,0,1717
18.863931894,0,-18,-31,-4,-21,-31,108,-68,11,-16,54,209,-16,54,209,15,28,-1,0,0,0,0,0,1718
18.876698971,2,-18,-31,-2,-20,-31,105,-63,9,-10,65,205,-10,65,205,15,27,-1,0,0,0,0,0,1719
18.886218071,2,-18,-31,-2,-20,-31,105,-63,9,-10,65,205,-10,65,205,15,27,-1,0,0,0,0,0,1720
18.896563053,4,-17,-31,0,-19,-31,101,-58,7,7,85,204,7,85,204,15,27,-1,0,0,0,0,0,1721
18.911233902,4,-17,-31,0,-19,-31,101,-58,7,7,85,204,7,85,204,15,27,-1,0,0,0,0,0,1722
18.918739081,6,-15,-31,1,-18,-31,97,-55,4,18,98,206,18,98,206,15,26,-1,0,0,0,0,0,1723
18.929738045,6,-15,-31,1,-18,-31,97,-55,4,18,98,206,18,98,206,15,26,-1,0,0,0,0,0,1724
18.94073391,8,-14,-31,3,-17,-31,90,-53,2,25,107,212,25,107,212,15,26,-1,0,0,0,0,0,1725
18.951754093,8,-14,-31,3,-17,-31,90,-53,2,25,107,212,25,107,212,15,25,-1,0,0,0,0,0,1726
18.962646008,10,-13,-31,5,-16,-31,82,-50,1,29,114,214,29,114,214,15,25,-1,0,0,0,0,0,1727
18.973726988,10,-13,-31,5,-16,-31,82,-50,1,29,114,214,29,114,214,15,25,-1,0,0,0,0,0,1728
18.984623909,12,-12,-31,7,-15,-31,75,-48,2,34,117,217,34,117,217,15,24,0,0,0,0,0,0,1729
18.999243021,12,-12,-31,7,-15,-31,75,-48,2,34,117,217,34,117,217,15,24,0,0,0,0,0,0,1730
19.011257887,13,-11,-31,8,-14,-31,66,-43,4,35,116,215,35,116,215,15,24,0,0,0,0,0,0,1731
19.017733097,13,-11,-31,8,-14,-31,66,-43,4,35,116,215,35,116,215,15,24,0,0,0,0,0,0,1732
19.031298876,15,-9,-31,10,-13,-31,57,-36,6,39,116,213,39,116,213,15,23,0,0,0,0,0,0,1733
19.039836884,15,-9,-31,10,-13,-31,57,-36,6,39,116,213,39,116,213,15,23,0,0,0,0,0,0,1734
19.051488877,16,-8,-31,12,-11,-31,49,-29,5,41,118,212,41,118,212,15,23,0,0,0,0,0,0,1735
19.062267065,16,-8,-31,12,-11,-31,49,-29,5,41,118,212,41,118,212,15,23,0,0,0,0,0,0,1736
19.072759867,17,-7,-30,13,-10,-30,45,-22,4,43,125,212,43,125,212,15,23,0,0,0,0,0,0,1737
19.083636999,17,-7,-30,13,-10,-30,46,-18,3,43,125,212,43,125,212,15,23,0,0,0,0,0,0,1738
19.094728947,19,-6,-30,15,-9,-30,46,-18,3,43,131,214,43,131,214,15,23,0,0,0,0,0,0,1739
19.105782032,18,-6,-30,14,-8,-30,49,-17,2,43,131,214,43,131,214,15,23,0,0,0,0,0,0,1740
19.116551876,19,-5,-30,15,-7,-30,49,-16,1,42,137,211,42,137,211,15,23,0,0,0,0,0,0,1741
19.127557993,18,-4,-30,15,-7,-30,46,-14,1,42,137,211,42,137,211,15,23,0,0,0,0,0,0,1742
19.138612986,21,-4,-30,17,-6,-30,46,-14,1,49,162,210,49,162,210,15,23,0,0,0,0,0,0,1743
19.149710894,19,-3,-30,16,-6,-30,41,-12,0,49,162,210,49,162,210,15,23,0,0,0,0,0,0,1744
19.160640001,21,-2,-30,17,-5,-30,36,-10,0,56,172,219,56,172,219,15,23,0,0,0,0,0,0,1745
19.171681881,19,-2,-30,16,-4,-30,31,-9,-1,56,172,219,56,172,219,15,23,0,0,0,0,0,0,1746
19.187094927,22,-1,-30,19,-4,-30,31,-9,-1,59,178,220,59,178,220,15,23,0,0,0,0,0,0,1747
19.195105076,20,-1,-30,17,-3,-30,24,-8,-1,59,178,220,59,178,220,15,23,0,0,0,0,0,0,1748
19.204596043,20,-1,-30,17,-3,-30,24,-8,-1,59,178,220,59,178,220,15,23,0,0,0,0,0,0,1749
19.216767073,21,0,-30,18,-2,-30,14,-6,0,61,188,221,61,188,221,15,23,0,0,0,0,0,0,1750
19.230613947,21,0,-30,18,-2,-30,14,-6,0,61,188,221,61,188,221,15,23,0,0,0,0,0,0,1751
19.237771034,20,0,-30,17,-2,-30,-1,-2,1,61,188,221,61,188,221,15,23,0,0,0,0,0,0,1752
19.249441862,22,0,-30,19,-1,-30,-1,-2,1,55,192,219,55,192,219,15,23,0,0,0,0,0,0,1753
19.259614945,20,0,-30,17,-1,-30,-21,6,2,55,192,219,55,192,219,15,23,0,0,0,0,0,0,1754
19.270718098,23,1,-30,20,0,-30,-21,6,2,50,190,211,50,190,211,15,23,0,0,0,0,0,0,1755
19.281584978,21,1,-31,18,0,-31,-45,17,1,50,190,211,50,190,211,15,23,0,0,0,0,0,0,1756
19.292649985,24,1,-31,21,0,-31,-45,17,1,44,186,205,44,186,205,15,23,0,0,0,0,0,0,1757
19.303591967,21,2,-31,18,0,-31,-70,28,-2,44,186,205,44,186,205,15,23,0,0,0,0,0,0,1758
19.314790964,23,2,-31,21,1,-31,-70,28,-2,36,168,200,36,168,200,15,23,0,0,0,0,0,0,1759
19.325538874,21,2,-31,19,1,-31,-96,36,-10,36,168,200,36,168,200,15,23,0,0,0,0,0,0,1760
19.337666989,21,3,-31,19,2,-31,-118,40,-18,33,150,195,33,150,195,42,25,1,0,0,0,0,0,1761
19.347750902,19,3,-31,17,2,-31,-134,42,-24,33,150,195,33,150,195,42,25,1,0,0,0,0,0,1762
19.358692885,19,3,-31,17,2,-31,-134,42,-24,33,150,195,33,150,195,42,25,1,0,0,0,0,0,1763
19.369430065,18,4,-32,17,3,-32,-141,43,-28,34,95,185,34,95,185,41,26,1,0,0,0,0,0,1764
19.380595923,16,4,-32,15,3,-32,-143,44,-30,34,95,185,34,95,185,41,26,1,0,0,0,0,0,1765
19.391612053,16,4,-32,15,3,-32,-143,44,-30,34,95,185,34,95,185,41,26,1,0,0,0,0,0,1766
19.402531862,15,4,-32,15,4,-32,-143,46,-32,26,40,197,26,40,197,41,26,1,0,0,0,0,0,1767
19.413533926,13,4,-32,13,4,-32,-140,50,-34,26,40,197,26,40,197,40,27,1,0,0,0,0,0,1768
19.424664021,13,5,-32,14,4,-32,-140,50,-34,24,23,199,24,23,199,40,27,1,0,0,0,0,0,1769
19.435451985,11,5,-33,13,5,-33,-134,54,-34,24,23,199,24,23,199,40,27,1,0,0,0,0,0,1770
19.446687937,12,5,-33,14,5,-33,-134,54,-34,15,9,202,15,9,202,40,29,1,0,0,0,0,0,1771
19.463056088,10,5,-33,12,5,-33,-127,59,-32,15,9,202,15,9,202,40,29,1,0,0,0,0,0,1772
19.468549967,9,5,-33,11,6,-33,-119,63,-28,0,0,201,0,0,201,40,29,1,0,0,0,0,0,1773
19.479481936,9,5,-33,11,6,-33,-119,63,-28,0,0,201,0,0,201,40,29,1,0,0,0,0,0,1774
19.490839005,7,5,-33,10,6,-33,-113,65,-24,-7,-7,201,-7,-7,201,16,27,-1,0,0,0,0,0,1775
19.501899958,6,5,-33,9,6,-33,-108,66,-19,-7,-7,201,-7,-7,201,16,27,-1,0,0,0,0,0,1776
19.512634993,5,5,-33,9,6,-33,-108,66,-19,-23,-15,202,-23,-15,202,16,27,-1,0,0,0,0,0,1777
19.523616076,4,5,-33,8,6,-33,-105,65,-15,-23,-15,202,-23,-15,202,16,27,-1,0,0,0,0,0,1778
19.534790993,3,4,-33,6,6,-33,-104,64,-10,-30,-14,201,-30,-14,201,40,28,1,0,0,0,0,0,1779
19.544574976,2,4,-33,5,6,-33,-104,63,-5,-30,-14,201,-30,-14,201,40,28,1,0,0,0,0,0,1780
19.555598021,2,4,-33,5,5,-33,-104,63,-5,-34,-28,207,-34,-28,207,40,28,1,0,0,0,0,0,1781
19.566837073,1,4,-33,4,5,-33,-104,61,-2,-34,-28,207,-34,-28,207,40,28,1,0,0,0,0,0,1782
19.577677965,0,3,-33,4,5,-33,-104,61,-2,-40,-40,208,-40,-40,208,40,29,1,0,0,0,0,0,1783
19.588850975,0,3,-33,3,5,-33,-103,58,-1,-40,-40,208,-40,-40,208,40,29,1,0,0,0,0,0,1784
19.599627972,-1,2,-33,1,4,-33,-100,54,-3,-44,-53,201,-44,-53,201,40,29,1,0,0,0,0,0,1785
19.615444899,-1,2,-33,1,4,-33,-100,54,-3,-44,-53,201,-44,-53,201,40,29,1,0,0,0,0,0,1786
19.621771097,-3,2,-33,0,4,-33,-97,49,-5,-44,-58,197,-44,-58,197,40,30,0,0,0,0,0,0,1787
19.632891894,-3,2,-33,0,4,-33,-95,46,-7,-44,-58,197,-44,-58,197,40,30,0,0,0,0,0,0,1788
19.644578934,-3,2,-33,0,4,-33,-95,46,-7,-44,-58,197,-44,-58,197,40,30,0,0,0,0,0,0,1789
19.655098915,-5,1,-33,-1,3,-33,-95,46,-9,-46,-65,192,-46,-65,192,40,30,0,0,0,0,0,0,1790
19.665678024,-5,1,-34,-2,3,-34,-96,47,-10,-46,-65,192,-46,-65,192,41,31,0,0,0,0,0,0,1791
19.676727057,-7,1,-34,-4,2,-34,-98,49,-11,-46,-66,188,-46,-66,188,41,31,0,0,0,0,0,0,1792
19.687817097,-7,1,-34,-4,2,-34,-98,49,-11,-46,-66,188,-46,-66,188,41,31,0,0,0,0,0,0,1793
19.698843002,-9,0,-34,-5,2,-34,-101,52,-10,-48,-76,183,-48,-76,183,40,32,0,0,0,0,0,0,1794
19.709613085,-9,0,-34,-6,2,-34,-104,54,-9,-48,-76,183,-48,-76,183,40,32,0,0,0,0,0,0,1795
19.720717907,-11,0,-34,-7,1,-34,-104,54,-9,-62,-97,170,-62,-97,170,40,32,0,0,0,0,0,0,1796
19.731672049,-11,0,-34,-7,1,-34,-108,57,-8,-62,-97,170,-62,-97,170,40,32,0,0,0,0,0,0,1797
19.74256587,-13,-1,-34,-9,0,-34,-108,57,-8,-69,-112,159,-69,-112,159,41,33,0,0,0,0,0,0,1798
19.753818989,-13,0,-34,-9,1,-34,-111,60,-7,-69,-112,159,-69,-112,159,41,33,0,0,0,0,0,0,1799
19.765691042,-16,-1,-34,-11,0,-34,-113,62,-5,-75,-129,144,-75,-129,144,41,33,0,0,0,0,0,0,1800
19.775652886,-16,-1,-34,-11,0,-34,-113,62,-5,-75,-129,144,-75,-129,144,41,33,0,0,0,0,0,0,1801
19.786676884,-15,-1,-34,-11,0,-34,-114,63,-3,-75,-129,144,-75,-129,144,41,33,0,0,0,0,0,0,1802
19.79778409,-18,-1,-34,-14,0,-34,-111,61,-2,-84,-157,135,-84,-157,135,41,33,0,0,0,0,0,0,1803
19.808964968,-18,-1,-34,-14,0,-34,-111,61,-2,-84,-157,135,-84,-157,135,41,33,0,0,0,0,0,0,1804
19.820410967,-18,-1,-34,-14,0,-34,-105,57,-1,-84,-157,135,-84,-157,135,41,33,0,0,0,0,0,0,1805
19.830844879,-20,-2,-34,-16,0,-34,-97,53,-1,-86,-168,133,-86,-168,133,41,33,0,0,0,0,0,0,1806
19.841958046,-20,-1,-34,-16,0,-34,-87,50,-2,-86,-168,133,-86,-168,133,41,33,0,0,0,0,0,0,1807
19.852660895,-23,-3,-34,-19,-1,-34,-87,50,-2,-88,-177,133,-88,-177,133,41,33,0,0,0,0,0,0,1808
19.86354208,-22,-2,-34,-18,-1,-34,-79,48,-4,-88,-177,133,-88,-177,133,41,33,0,0,0,0,0,0,1809
19.874718905,-22,-2,-34,-18,-1,-34,-79,48,-4,-88,-177,133,-88,-177,133,41,33,0,0,0,0,0,0,1810
19.885674954,-24,-3,-34,-20,-2,-34,-72,46,-5,-96,-198,131,-96,-198,131,41,33,0,0,0,0,0,0,1811
19.89681387,-24,-3,-34,-20,-2,-34,-72,46,-5,-96,-198,131,-96,-198,131,41,33,0,0,0,0,0,0,1812
19.90771699,-23,-3,-34,-19,-1,-34,-63,45,-8,-96,-198,131,-96,-198,131,41,33,0,0,0,0,0,0,1813
19.920747996,-26,-4,-34,-22,-3,-34,-63,45,-8,-102,-201,128,-102,-201,128,41,33,0,0,0,0,0,0,1814
19.929796934,-25,-4,-34,-21,-2,-34,-50,43,-10,-102,-201,128,-102,-201,128,41,33,0,0,0,0,0,0,1815
19.940643072,-28,-5,-34,-24,-4,-34,-50,43,-10,-109,-205,122,-109,-205,122,41,33,0,0,0,0,0,0,1816
19.951776982,-26,-5,-34,-23,-3,-34,-35,40,-10,-109,-205,122,-109,-205,122,41,33,0,0,0,0,0,0,1817
19.962663889,-25,-4,-34,-21,-3,-34,-21,35,-8,-109,-205,122,-109,-205,122,41,33,0,0,0,0,0,0,1818
19.973511934,-26,-5,-34,-23,-4,-34,-12,30,-5,-113,-203,122,-113,-203,122,41,33,0,0,0,0,0,0,1819
19.98465991,-26,-5,-34,-23,-4,-34,-12,30,-5,-113,-203,122,-113,-203,122,41,33,0,0,0,0,0,0,1820
19.996124983,-24,-5,-34,-21,-4,-34,-8,26,-2,-113,-203,122,-113,-203,122,41,33,0,0,0,0,0,0,1821
20.006747961,-28,-7,-34,-25,-5,-34,-8,26,-2,-121,-203,122,-121,-203,122,41,33,0,0,0,0,0,0,1822
20.017849922,-26,-6,-34,-23,-5,-34,-5,21,0,-121,-203,122,-121,-203,122,41,33,0,0,0,0,0,0,1823
20.028864861,-29,-8,-34,-26,-7,-34,-5,21,0,-125,-199,121,-125,-199,121,41,33,0,0,0,0,0,0,1824
20.042649985,-27,-8,-34,-24,-6,-34,0,13,2,-125,-199,121,-125,-199,121,41,33,0,0,0,0,0,0,1825
20.051301003,-27,-8,-34,-24,-6,-34,0,13,2,-125,-199,121,-125,-199,121,41,33,0,0,0,0,0,0,1826
20.061825037,-28,-9,-34,-26,-8,-34,10,3,6,-125,-190,121,-125,-190,121,41,33,0,0,0,0,0,0,1827
20.074754954,-28,-9,-34,-26,-8,-34,10,3,6,-125,-190,121,-125,-190,121,41,33,0,0,0,0,0,0,1828
20.083594084,-26,-9,-34,-24,-7,-34,21,-8,8,-125,-190,121,-125,-190,121,41,33,0,0,0,0,0,0,1829
20.095046044,-27,-10,-34,-25,-9,-34,30,-20,9,-121,-189,125,-121,-189,125,41,33,0,0,0,0,0,0,1830
20.105661869,-25,-10,-34,-23,-9,-34,36,-28,9,-121,-189,125,-121,-189,125,41,33,0,0,0,0,0,0,1831
20.119210959,-28,-12,-34,-26,-11,-34,36,-28,9,-114,-186,130,-114,-186,130,41,33,0,0,0,0,0,0,1832
20.127629996,-26,-11,-34,-24,-10,-34,41,-32,8,-114,-186,130,-114,-186,130,41,33,0,0,0,0,0,0,1833
20.138556004,-26,-11,-34,-24,-10,-34,41,-32,8,-114,-186,130,-114,-186,130,41,33,0,0,0,0,0,0,1834
20.14961505,-26,-12,-34,-25,-12,-34,46,-35,8,-98,-188,137,-98,-188,137,41,33,0,0,0,0,0,0,1835
20.160752058,-26,-12,-34,-25,-12,-34,46,-35,8,-98,-188,137,-98,-188,137,41,33,0,0,0,0,0,0,1836
20.171716929,-24,-12,-34,-23,-11,-34,54,-36,8,-98,-188,137,-98,-188,137,41,33,0,0,0,0,0,0,1837
20.182882071,-25,-13,-34,-24,-12,-34,65,-38,7,-94,-171,148,-94,-171,148,41,33,0,0,0,0,0,0,1838
20.195342064,-22,-12,-34,-21,-12,-34,76,-37,6,-94,-171,148,-94,-171,148,41,33,0,0,0,0,0,0,1839
20.204530955,-25,-14,-34,-24,-13,-34,76,-37,6,-91,-164,148,-91,-164,148,41,33,0,0,0,0,0,0,1840
20.215636969,-23,-13,-34,-22,-13,-34,85,-36,4,-91,-164,148,-91,-164,148,41,33,0,0,0,0,0,0,1841
20.22658205,-20,-12,-33,-19,-12,-33,94,-35,4,-91,-164,148,-91,-164,148,42,34,0,0,0,0,0,0,1842
20.237586975,-23,-14,-33,-23,-14,-33,94,-35,4,-90,-155,150,-90,-155,150,42,34,0,0,0,0,0,0,1843
20.248617888,-21,-13,-33,-20,-13,-33,101,-37,5,-90,-155,150,-90,-155,150,42,34,0,0,0,0,0,0,1844
20.259567022,-21,-14,-33,-21,-14,-33,106,-40,7,-85,-141,153,-85,-141,153,41,34,0,0,0,0,0,0,1845
20.270629883,-19,-13,-33,-19,-13,-33,108,-43,9,-85,-141,153,-85,-141,153,41,34,0,0,0,0,0,0,1846
20.281683922,-22,-15,-33,-22,-15,-33,108,-43,9,-82,-127,159,-82,-127,159,41,34,0,0,0,0,0,0,1847
20.292624951,-19,-14,-33,-19,-14,-33,109,-46,11,-82,-127,159,-82,-127,159,41,34,0,0,0,0,0,0,1848
20.303704977,-21,-16,-33,-22,-16,-33,109,-46,11,-77,-102,170,-77,-102,170,41,35,0,0,0,0,0,0,1849
20.314647913,-19,-15,-33,-20,-15,-33,109,-47,12,-77,-102,170,-77,-102,170,41,35,0,0,0,0,0,0,1850
20.327404022,-21,-16,-33,-22,-16,-33,109,-47,12,-70,-95,178,-70,-95,178,41,35,0,0,0,0,0,0,1851
20.336572886,-19,-15,-33,-20,-16,-33,109,-48,13,-70,-95,178,-70,-95,178,41,35,0,0,0,0,0,0,1852
20.348712921,-20,-17,-33,-22,-17,-33,109,-48,13,-65,-86,181,-65,-86,181,40,35,0,0,0,0,0,0,1853
20.358592987,-18,-16,-33,-20,-16,-33,108,-47,15,-65,-86,181,-65,-86,181,40,35,0,0,0,0,0,0,1854
20.36963892,-20,-17,-33,-22,-17,-33,108,-47,15,-61,-71,186,-61,-71,186,40,35,0,0,0,0,0,0,1855
20.383460045,-18,-16,-33,-19,-16,-33,106,-45,16,-61,-71,186,-61,-71,186,40,35,0,0,0,0,0,0,1856
20.39230299,-17,-16,-33,-19,-17,-33,103,-43,16,-60,-62,190,-60,-62,190,40,36,0,0,0,0,0,0,1857
20.402814865,-15,-15,-33,-17,-16,-33,103,-40,13,-60,-62,190,-60,-62,190,40,36,0,0,0,0,0,0,1858
20.415193081,-16,-16,-33,-18,-17,-33,103,-40,13,-58,-51,193,-58,-51,193,40,36,0,0,0,0,0,0,1859
20.424691916,-14,-16,-33,-16,-16,-33,103,-39,9,-58,-51,193,-58,-51,193,40,36,0,0,0,0,0,0,1860
20.435689926,-15,-17,-33,-18,-17,-33,103,-39,9,-54,-44,198,-54,-44,198,41,36,0,0,0,0,0,0,1861
20.446865082,-13,-16,-33,-16,-17,-33,103,-40,6,-54,-44,198,-54,-44,198,41,36,0,0,0,0,0,0,1862
20.457562924,-12,-16,-33,-15,-17,-33,102,-42,5,-46,-42,200,-46,-42,200,41,36,0,0,0,0,0,0,1863
20.468699932,-12,-16,-33,-15,-17,-33,102,-42,5,-46,-42,200,-46,-42,200,41,36,0,0,0,0,0,0,1864
20.479552984,-11,-16,-32,-14,-17,-32,100,-44,3,-42,-30,204,-42,-30,204,17,34,-1,0,0,0,0,0,1865
20.490658045,-10,-15,-32,-13,-16,-32,98,-43,2,-42,-30,204,-42,-30,204,17,34,-1,0,0,0,0,0,1866
20.501991987,-10,-16,-32,-13,-17,-32,98,-43,2,-38,-20,203,-38,-20,203,17,34,-1,0,0,0,0,0,1867
20.512561083,-9,-15,-32,-12,-16,-32,98,-40,1,-38,-20,203,-38,-20,203,17,34,-1,0,0,0,0,0,1868
20.523649931,-8,-15,-32,-11,-16,-32,101,-37,1,-34,-14,202,-34,-14,202,41,35,0,0,0,0,0,0,1869
20.534538984,-6,-14,-32,-9,-15,-32,103,-36,1,-34,-14,202,-34,-14,202,41,35,0,0,0,0,0,0,1870
20.546079874,-6,-14,-32,-10,-16,-32,103,-36,1,-31,8,203,-31,8,203,41,35,0,0,0,0,0,0,1871
20.556596995,-5,-14,-32,-8,-15,-32,105,-36,2,-31,8,203,-31,8,203,41,35,0,0,0,0,0,0,1872
20.567885876,-5,-14,-32,-8,-16,-32,105,-36,2,-28,21,205,-28,21,205,15,33,-1,0,0,0,0,0,1873
20.578619957,-4,-13,-32,-7,-15,-32,105,-37,3,-28,21,205,-28,21,205,15,33,-1,0,0,0,0,0,1874
20.589565993,-2,-13,-32,-6,-15,-32,102,-36,3,-26,25,203,-26,25,203,15,33,-1,0,0,0,0,0,1875
20.600661993,-2,-13,-32,-6,-15,-32,102,-36,3,-26,25,203,-26,25,203,15,33,-1,0,0,0,0,0,1876
20.611537934,-1,-13,-32,-4,-14,-32,99,-34,2,-23,36,201,-23,36,201,16,31,-1,0,0,0,0,0,1877
20.623368979,0,-12,-32,-3,-14,-32,98,-33,1,-23,36,201,-23,36,201,16,31,-1,0,0,0,0,0,1878
20.633869887,0,-12,-32,-3,-14,-32,98,-33,1,-23,36,201,-23,36,201,16,31,-1,0,0,0,0,0,1879
20.644593954,1,-12,-32,-2,-13,-32,97,-33,0,-16,53,205,-16,53,205,42,32,0,0,0,0,0,0,1880
20.655176878,1,-11,-32,-1,-13,-32,95,-34,-2,-16,53,205,-16,53,205,42,32,0,0,0,0,0,0,1881
20.665881872,3,-11,-32,0,-13,-32,95,-34,-2,-5,86,213,-5,86,213,42,32,0,0,0,0,0,0,1882
20.676668883,3,-11,-33,0,-12,-33,90,-34,-4,-5,86,213,-5,86,213,42,32,0,0,0,0,0,0,1883
20.691138029,5,-10,-33,1,-12,-33,83,-33,-6,1,103,221,1,103,221,102,39,6,0,0,0,0,0,1884
20.699004889,5,-10,-33,1,-11,-33,74,-32,-7,1,103,221,1,103,221,102,39,6,0,0,0,0,0,1885
20.709644079,7,-10,-33,3,-11,-33,74,-32,-7,7,113,228,7,113,228,102,39,6,0,0,0,0,0,1886
20.72064805,7,-9,-33,3,-11,-33,62,-31,-8,7,113,228,7,113,228,102,39,6,0,0,0,0,0,1887
20.735136986,9,-9,-33,4,-11,-33,62,-31,-8,15,121,233,15,121,233,102,45,5,0,0,0,0,0,1888
20.742572069,8,-8,-33,4,-10,-33,48,-29,-8,15,121,233,15,121,233,102,45,5,0,0,0,0,0,1889
20.753704071,10,-8,-33,6,-10,-33,48,-29,-8,22,121,239,22,121,239,102,45,5,0,0,0,0,0,1890
20.764712095,9,-7,-33,5,-9,-33,30,-25,-8,22,121,239,22,121,239,102,45,5,0,0,0,0,0,1891
20.779032946,11,-7,-33,7,-9,-33,30,-25,-8,27,118,240,27,118,240,101,50,5,0,0,0,0,0,1892
20.786652088,10,-6,-33,6,-9,-33,6,-18,-8,27,118,240,27,118,240,101,50,5,0,0,0,0,0,1893
20.797694922,12,-6,-33,8,-8,-33,6,-18,-8,29,107,240,29,107,240,101,50,5,0,0,0,0,0,1894
20.808563948,10,-5,-33,7,-8,-33,-15,-8,-7,29,107,240,29,107,240,101,50,5,0,0,0,0,0,1895
20.82023406,12,-5,-33,9,-7,-33,-15,-8,-7,31,97,238,31,97,238,16,47,-3,0,0,0,0,0,1896
20.830739021,11,-4,-33,8,-7,-33,-29,1,-6,31,97,238,31,97,238,16,47,-3,0,0,0,0,0,1897
20.843183041,12,-4,-33,9,-6,-33,-29,1,-6,31,82,236,31,82,236,16,47,-3,0,0,0,0,0,1898
20.85538888,11,-3,-33,8,-6,-33,-37,11,-4,31,82,236,31,82,236,15,44,-3,0,0,0,0,0,1899
20.863789082,12,-3,-33,10,-5,-33,-37,11,-4,32,66,233,32,66,233,15,44,-3,0,0,0,0,0,1900
20.874638081,11,-2,-33,9,-4,-33,-43,21,-3,32,66,233,32,66,233,15,44,-3,0,0,0,0,0,1901
20.885596991,12,-2,-33,10,-4,-33,-43,21,-3,31,49,233,31,49,233,15,41,-2,0,0,0,0,0,1902
20.896908045,11,-1,-33,9,-3,-33,-47,31,-3,31,49,233,31,49,233,15,41,-2,0,0,0,0,0,1903
20.907674074,11,-1,-33,10,-3,-33,-47,31,-3,20,31,227,20,31,227,15,41,-2,0,0,0,0,0,1904
20.918520928,10,0,-33,9,-2,-33,-48,42,-4,20,31,227,20,31,227,15,38,-2,0,0,0,0,0,1905
20.929663897,10,0,-33,10,-2,-33,-48,42,-4,17,20,229,17,20,229,15,38,-2,0,0,0,0,0,1906
20.940752983,9,0,-33,9,-1,-33,-46,55,-6,17,20,229,17,20,229,15,38,-2,0,0,0,0,0,1907
20.951555968,10,0,-33,9,-1,-33,-46,55,-6,0,19,218,0,19,218,15,36,-2,0,0,0,0,0,1908
20.963589907,9,0,-33,9,0,-33,-42,69,-8,0,19,218,0,19,218,15,36,-2,0,0,0,0,0,1909
20.973932028,9,0,-33,9,0,-33,-42,69,-8,-9,24,223,-9,24,223,15,36,-2,0,0,0,0,0,1910
20.98463893,8,0,-33,8,0,-33,-36,79,-11,-9,24,223,-9,24,223,15,34,-2,0,0,0,0,0,1911
20.995600939,9,0,-33,9,0,-33,-36,79,-11,-18,28,225,-18,28,225,15,34,-2,0,0,0,0,0,1912
21.006594896,8,1,-33,8,0,-33,-29,85,-12,-18,28,225,-18,28,225,15,34,-2,0,0,0,0,0,1913
21.017729998,9,0,-33,9,0,-33,-29,85,-12,-31,33,224,-31,33,224,41,35,0,0,0,0,0,0,1914
21.028723002,8,1,-34,8,1,-34,-23,88,-11,-31,33,224,-31,33,224,41,35,0,0,0,0,0,0,1915
21.039736986,9,0,-34,9,0,-34,-23,88,-11,-38,34,214,-38,34,214,41,35,0,0,0,0,0,0,1916
21.050674915,8,0,-34,8,1,-34,-20,91,-9,-38,34,214,-38,34,214,41,35,0,0,0,0,0,0,1917
21.061778069,8,0,-34,8,0,-34,-20,91,-9,-47,32,211,-47,32,211,41,35,0,0,0,0,0,0,1918
21.072881937,7,0,-34,7,1,-34,-23,92,-7,-47,32,211,-47,32,211,41,35,0,0,0,0,0,0,1919
21.083525896,8,0,-34,8,0,-34,-23,92,-7,-50,31,204,-50,31,204,38,35,0,0,0,0,0,0,1920
21.094630957,7,0,-34,7,1,-34,-30,92,-6,-50,31,204,-50,31,204,38,35,0,0,0,0,0,0,1921
21.105711937,8,0,-34,8,0,-34,-30,92,-6,-55,28,201,-55,28,201,38,35,0,0,0,0,0,0,1922
21.119369984,7,0,-34,7,1,-34,-37,93,-5,-55,28,201,-55,28,201,38,35,0,0,0,0,0,0,1923
21.127762079,6,0,-34,6,1,-34,-44,98,-5,-61,19,184,-61,19,184,40,36,0,0,0,0,0,0,1924
21.138722897,6,0,-34,6,1,-34,-44,98,-5,-61,19,184,-61,19,184,40,36,0,0,0,0,0,0,1925
21.149695873,6,-1,-34,6,0,-34,-48,105,-6,-79,7,174,-79,7,174,40,36,0,0,0,0,0,0,1926
21.16087389,6,-1,-34,6,0,-34,-48,105,-6,-79,7,174,-79,7,174,40,36,0,0,0,0,0,0,1927
21.171715021,5,-2,-34,5,0,-34,-51,114,-7,-90,-5,168,-90,-5,168,34,36,0,0,0,0,0,0,1928
21.182560921,5,-2,-34,5,0,-34,-51,114,-7,-90,-5,168,-90,-5,168,34,36,0,0,0,0,0,0,1929
21.193634987,4,-3,-34,5,0,-34,-51,122,-9,-105,-19,167,-105,-19,167,34,36,0,0,0,0,0,0,1930
21.20448494,4,-3,-34,5,0,-34,-51,122,-9,-105,-19,167,-105,-19,167,34,36,0,0,0,0,0,0,1931
21.215692997,2,-4,-34,4,-1,-34,-48,128,-10,-117,-32,158,-117,-32,158,34,35,0,0,0,0,0,0,1932
21.226701975,2,-4,-34,4,-1,-34,-48,128,-10,-117,-32,158,-117,-32,158,34,35,0,0,0,0,0,0,1933
21.239444018,1,-5,-34,3,-2,-34,-41,130,-10,-122,-39,152,-122,-39,152,34,35,0,0,0,0,0,0,1934
21.248533964,1,-5,-34,3,-2,-34,-41,130,-10,-122,-39,152,-122,-39,152,34,35,0,0,0,0,0,0,1935
21.259710074,0,-7,-34,2,-3,-34,-27,128,-8,-126,-39,148,-126,-39,148,37,36,0,0,0,0,0,0,1936
21.275045872,0,-7,-34,2,-3,-34,-27,128,-8,-126,-39,148,-126,-39,148,37,36,0,0,0,0,0,0,1937
21.282130003,0,-8,-34,2,-4,-34,-12,122,-2,-134,-31,145,-134,-31,145,37,36,0,0,0,0,0,0,1938
21.29272604,0,-8,-34,2,-4,-34,-12,122,-2,-134,-31,145,-134,-31,145,37,36,0,0,0,0,0,0,1939
21.303667069,0,-10,-34,1,-6,-34,1,118,5,-143,-22,140,-143,-22,140,40,36,0,0,0,0,0,0,1940
21.314584971,0,-8,-33,1,-5,-33,10,119,16,-143,-22,140,-143,-22,140,40,36,0,0,0,0,0,0,1941
21.325798989,0,-8,-33,1,-5,-33,10,119,16,-143,-22,140,-143,-22,140,40,36,0,0,0,0,0,0,1942
21.336684942,0,-11,-33,1,-6,-33,15,123,27,-181,2,129,-181,2,129,40,36,0,0,0,0,0,0,1943
21.347895861,0,-9,-33,1,-5,-33,15,127,37,-181,2,129,-181,2,129,33,36,0,0,0,0,0,0,1944
21.359274864,0,-13,-33,1,-9,-33,15,127,37,-206,12,121,-206,12,121,33,36,0,0,0,0,0,0,1945
21.369782925,0,-12,-33,1,-7,-33,13,126,42,-206,12,121,-206,12,121,33,36,0,0,0,0,0,0,1946
21.380651951,0,-16,-33,1,-11,-33,13,126,42,-222,16,113,-222,16,113,32,35,0,0,0,0,0,0,1947
21.392235995,0,-14,-32,1,-10,-32,12,121,41,-222,16,113,-222,16,113,32,35,0,0,0,0,0,0,1948
21.403219938,1,-19,-32,1,-14,-32,12,121,41,-227,15,100,-227,15,100,32,35,0,0,0,0,0,0,1949
21.413635016,0,-17,-32,1,-12,-32,11,112,36,-227,15,100,-227,15,100,32,35,0,0,0,0,0,0,1950
21.424576044,1,-22,-32,1,-16,-32,11,112,36,-235,21,97,-235,21,97,32,35,0,0,0,0,0,0,1951
21.435852051,1,-20,-32,1,-15,-32,9,97,29,-235,21,97,-235,21,97,32,35,0,0,0,0,0,0,1952
21.446727991,1,-24,-32,1,-19,-32,9,97,29,-237,13,96,-237,13,96,32,35,0,0,0,0,0,0,1953
21.457623005,1,-22,-32,1,-17,-32,6,80,22,-237,13,96,-237,13,96,32,35,0,0,0,0,0,0,1954
21.468677998,1,-27,-32,1,-22,-32,6,80,22,-233,14,95,-233,14,95,32,35,0,0,0,0,0,0,1955
21.482063055,1,-25,-32,1,-20,-32,5,65,17,-233,14,95,-233,14,95,32,35,0,0,0,0,0,0,1956
21.490601063,1,-29,-32,1,-25,-32,5,65,17,-231,18,88,-231,18,88,32,35,0,0,0,0,0,0,1957
21.501692057,1,-27,-32,1,-23,-32,6,57,12,-231,18,88,-231,18,88,32,35,0,0,0,0,0,0,1958
21.513578892,2,-32,-32,1,-27,-32,6,57,12,-231,18,87,-231,18,87,32,34,0,0,0,0,0,0,1959
21.523918867,2,-29,-32,1,-25,-32,8,53,9,-231,18,87,-231,18,87,32,34,0,0,0,0,0,0,1960
21.534655094,2,-32,-32,2,-28,-32,9,50,8,-236,16,86,-236,16,86,32,34,0,0,0,0,0,0,1961
21.547107935,2,-32,-32,2,-28,-32,9,50,8,-236,16,86,-236,16,86,32,34,0,0,0,0,0,0,1962
21.555783987,2,-34,-32,2,-30,-32,7,45,8,-245,18,86,-245,18,86,33,34,0,0,0,0,0,0,1963
21.566700936,2,-32,-32,2,-28,-32,5,40,7,-245,18,86,-245,18,86,33,34,0,0,0,0,0,0,1964
21.577535868,2,-32,-32,2,-28,-32,5,40,7,-245,18,86,-245,18,86,33,34,0,0,0,0,0,0,1965
21.588856936,2,-34,-32,2,-31,-32,5,33,7,-5,23,78,-5,23,78,33,34,0,0,0,0,0,0,1966
21.599735022,2,-32,-32,2,-29,-32,5,23,5,-5,23,78,-5,23,78,33,34,0,0,0,0,0,0,1967
21.610683918,2,-37,-32,2,-34,-32,5,23,5,-26,18,63,-26,18,63,33,34,0,0,0,0,0,0,1968
21.621788025,2,-35,-32,2,-32,-32,4,5,2,-26,18,63,-26,18,63,33,34,0,0,0,0,0,0,1969
21.632754088,2,-38,-32,2,-35,-32,4,-19,0,-22,20,62,-22,20,62,33,34,0,0,0,0,0,0,1970
21.643619061,2,-36,-32,2,-33,-32,3,-44,-2,-22,20,62,-22,20,62,33,34,0,0,0,0,0,0,1971
21.654579878,2,-41,-32,2,-38,-32,3,-44,-2,-10,26,65,-10,26,65,33,34,0,0,0,0,0,0,1972
21.666275978,2,-39,-32,2,-36,-32,2,-66,-2,-10,26,65,-10,26,65,33,34,0,0,0,0,0,0,1973
21.676977873,3,-44,-32,2,-41,-32,2,-66,-2,-4,48,73,-4,48,73,33,34,0,0,0,0,0,0,1974
21.690312863,3,-42,-32,2,-39,-32,1,-84,-2,-4,48,73,-4,48,73,33,34,0,0,0,0,0,0,1975
21.699228049,3,-45,-32,2,-42,-32,0,-101,-5,-243,30,80,-243,30,80,33,34,0,0,0,0,0,0,1976
21.709596873,3,-45,-32,2,-42,-32,0,-101,-5,-243,30,80,-243,30,80,33,34,0,0,0,0,0,0,1977
21.720786095,3,-47,-32,3,-45,-32,0,-117,-9,-222,26,87,-222,26,87,34,34,0,0,0,0,0,0,1978
21.73168397,3,-45,-32,2,-43,-32,-2,-128,-11,-222,26,87,-222,26,87,34,34,0,0,0,0,0,0,1979
21.742886067,3,-49,-32,3,-48,-32,-2,-128,-11,-208,19,100,-208,19,100,34,34,0,0,0,0,0,0,1980
21.753671885,3,-47,-32,3,-45,-32,-3,-132,-10,-208,19,100,-208,19,100,34,34,0,0,0,0,0,0,1981
21.764628887,3,-49,-32,3,-48,-32,-3,-135,-7,-191,21,110,-191,21,110,39,34,0,0,0,0,0,0,1982
21.775629997,3,-46,-32,3,-45,-32,-2,-140,-5,-191,21,110,-191,21,110,39,34,0,0,0,0,0,0,1983
21.789359093,3,-50,-32,3,-50,-32,-2,-140,-5,-174,17,120,-174,17,120,39,34,0,0,0,0,0,0,1984
21.803947926,3,-47,-32,3,-47,-32,0,-144,-4,-174,17,120,-174,17,120,39,34,0,0,0,0,0,0,1985
21.808549881,3,-51,-32,3,-51,-32,0,-144,-4,-158,9,128,-158,9,128,38,34,0,0,0,0,0,0,1986
21.822273016,3,-48,-32,3,-49,-32,1,-146,-4,-158,9,128,-158,9,128,38,34,0,0,0,0,0,0,1987
21.831074,3,-49,-32,3,-50,-32,2,-146,-4,-139,4,139,-139,4,139,38,34,0,0,0,0,0,0,1988
21.843223095,3,-49,-32,3,-50,-32,2,-146,-4,-139,4,139,-139,4,139,38,34,0,0,0,0,0,0,1989
21.852590084,3,-49,-32,3,-51,-32,3,-142,-3,-119,11,166,-119,11,166,38,35,0,0,0,0,0,0,1990
21.863656998,3,-46,-32,3,-48,-32,6,-136,-2,-119,11,166,-119,11,166,38,35,0,0,0,0,0,0,1991
21.875160933,3,-48,-32,3,-51,-32,6,-136,-2,-111,16,173,-111,16,173,38,35,0,0,0,0,0,0,1992
21.885540009,3,-46,-32,3,-48,-32,10,-126,-2,-111,16,173,-111,16,173,38,35,0,0,0,0,0,0,1993
21.896722078,3,-45,-32,3,-49,-32,14,-115,-4,-107,15,178,-107,15,178,39,35,0,0,0,0,0,0,1994
21.907819033,3,-43,-32,3,-46,-32,14,-108,-8,-107,15,178,-107,15,178,39,35,0,0,0,0,0,0,1995
21.917583943,3,-45,-32,3,-48,-32,14,-108,-8,-100,12,184,-100,12,184,39,35,0,0,0,0,0,0,1996
21.928606987,3,-42,-33,3,-46,-33,11,-106,-11,-100,12,184,-100,12,184,39,35,0,0,0,0,0,0,1997
21.939646006,3,-44,-33,3,-48,-33,11,-106,-11,-92,12,186,-92,12,186,40,36,0,0,0,0,0,0,1998
21.950855971,3,-42,-33,3,-45,-33,9,-107,-14,-92,12,186,-92,12,186,40,36,0,0,0,0,0,0,1999
21.961688042,3,-41,-33,3,-45,-33,9,-106,-16,-89,18,195,-89,18,195,40,36,0,0,0,0,0,0,2000
21.983274937,3,-41,-33,3,-45,-33,9,-106,-16,-89,18,195,-89,18,195,40,36,0,0,0,0,0,0,2001
21.986113072,3,-39,-33,3,-43,-33,11,-106,-18,-89,18,195,-89,18,195,40,36,0,0,0,0,0,0,2002
21.994729996,3,-39,-33,3,-42,-33,14,-106,-20,-81,26,191,-81,26,191,40,36,0,0,0,0,0,0,2003
22.005663872,3,-39,-33,3,-42,-33,14,-106,-20,-81,26,191,-81,26,191,40,36,0,0,0,0,0,0,2004
22.016661883,4,-39,-33,3,-42,-33,15,-107,-23,-74,26,193,-74,26,193,40,36,0,0,0,0,0,0,2005
22.027797938,3,-37,-34,3,-40,-34,14,-109,-24,-74,26,193,-74,26,193,40,36,0,0,0,0,0,0,2006
22.039216042,4,-38,-34,4,-42,-34,14,-109,-24,-65,23,198,-65,23,198,40,36,0,0,0,0,0,0,2007
22.051048994,4,-36,-34,3,-39,-34,12,-113,-26,-65,23,198,-65,23,198,40,36,0,0,0,0,0,0,2008
22.060564041,4,-35,-34,4,-39,-34,11,-118,-27,-51,23,201,-51,23,201,41,37,0,0,0,0,0,0,2009
22.071824074,4,-34,-34,3,-37,-34,10,-123,-27,-51,23,201,-51,23,201,41,37,0,0,0,0,0,0,2010
22.082752943,4,-34,-34,4,-38,-34,10,-123,-27,-35,21,203,-35,21,203,41,37,0,0,0,0,0,0,2011
22.093648911,4,-33,-34,4,-36,-34,10,-126,-26,-35,21,203,-35,21,203,41,37,0,0,0,0,0,0,2012
22.104568958,4,-33,-34,4,-37,-34,10,-126,-26,-15,21,205,-15,21,205,41,37,0,0,0,0,0,0,2013
22.115652085,4,-31,-34,4,-36,-34,10,-128,-25,-15,21,205,-15,21,205,41,37,0,0,0,0,0,0,2014
22.131031037,4,-30,-35,4,-35,-35,11,-129,-23,-3,21,204,-3,21,204,41,37,0,0,0,0,0,0,2015
22.137633085,4,-30,-35,4,-35,-35,11,-129,-23,-3,21,204,-3,21,204,41,37,0,0,0,0,0,0,2016
22.150455952,4,-29,-35,4,-34,-35,11,-129,-20,8,19,213,8,19,213,42,37,0,0,0,0,0,0,2017
22.162924051,4,-28,-35,4,-32,-35,12,-128,-18,8,19,213,8,19,213,42,37,0,0,0,0,0,0,2018
22.170711041,4,-27,-35,4,-32,-35,12,-128,-18,21,15,211,21,15,211,42,37,0,0,0,0,0,0,2019
22.181856871,4,-26,-35,4,-31,-35,15,-126,-17,21,15,211,21,15,211,42,37,0,0,0,0,0,0,2020
22.192628861,5,-25,-35,5,-31,-35,15,-126,-17,36,18,217,36,18,217,42,37,0,0,0,0,0,0,2021
22.203743935,4,-25,-35,4,-30,-35,18,-124,-17,36,18,217,36,18,217,42,37,0,0,0,0,0,0,2022
22.214843989,5,-24,-35,5,-30,-35,18,-124,-17,70,22,218,70,22,218,42,37,0,0,0,0,0,0,2023
22.225538016,5,-23,-35,5,-28,-35,20,-123,-15,70,22,218,70,22,218,42,37,0,0,0,0,0,0,2024
22.236592055,5,-23,-35,5,-28,-35,20,-123,-15,70,22,218,70,22,218,42,37,0,0,0,0,0,0,2025
22.247685909,5,-21,-35,5,-27,-35,22,-121,-12,88,27,216,88,27,216,42,37,0,0,0,0,0,0,2026
22.259021044,5,-21,-35,5,-27,-35,22,-121,-12,88,27,216,88,27,216,42,37,0,0,0,0,0,0,2027
22.269762993,5,-20,-35,5,-25,-35,23,-116,-9,88,27,216,88,27,216,42,37,0,0,0,0,0,0,2028
22.281495094,5,-18,-35,5,-24,-35,23,-116,-9,117,34,216,117,34,216,42,37,0,0,0,0,0,0,2029
22.291917086,5,-18,-35,5,-23,-35,23,-106,-7,117,34,216,117,34,216,42,37,0,0,0,0,0,0,2030
22.302674055,6,-16,-35,5,-22,-35,23,-106,-7,126,36,216,126,36,216,42,37,0,0,0,0,0,0,2031
22.313737869,5,-15,-35,5,-21,-35,21,-93,-6,126,36,216,126,36,216,42,37,0,0,0,0,0,0,2032
22.324590922,5,-15,-35,5,-21,-35,21,-93,-6,126,36,216,126,36,216,42,37,0,0,0,0,0,0,2033
22.335682869,6,-12,-35,5,-18,-35,18,-80,-5,151,45,223,151,45,223,42,37,0,0,0,0,0,0,2034
22.347063065,6,-12,-35,5,-18,-35,18,-80,-5,151,45,223,151,45,223,42,37,0,0,0,0,0,0,2035
22.35916996,5,-11,-35,5,-17,-35,15,-66,-3,151,45,223,151,45,223,42,37,0,0,0,0,0,0,2036
22.368586064,6,-9,-35,6,-15,-35,15,-66,-3,157,50,228,157,50,228,15,35,-2,0,0,0,0,0,2037
22.37964797,6,-8,-35,5,-14,-35,12,-52,0,157,50,228,157,50,228,15,35,-2,0,0,0,0,0,2038
22.391054869,6,-6,-35,6,-12,-35,12,-52,0,168,53,229,168,53,229,15,35,-2,0,0,0,0,0,2039
22.401552916,6,-6,-35,6,-11,-35,9,-37,5,168,53,229,168,53,229,15,35,-2,0,0,0,0,0,2040
22.412584067,7,-3,-35,6,-9,-35,9,-37,5,180,55,227,180,55,227,15,35,-2,0,0,0,0,0,2041
22.423621893,6,-2,-35,6,-8,-35,5,-20,9,180,55,227,180,55,227,15,35,-2,0,0,0,0,0,2042
22.434606075,7,0,-35,6,-6,-35,5,-20,9,183,49,231,183,49,231,15,35,-2,0,0,0,0,0,2043
22.445589066,6,0,-35,6,-5,-35,0,0,12,183,49,231,183,49,231,15,35,-2,0,0,0,0,0,2044
22.456696987,6,0,-35,6,-5,-35,0,0,12,183,49,231,183,49,231,15,35,-2,0,0,0,0,0,2045
22.467572928,6,3,-35,6,-1,-35,-5,19,14,176,45,229,176,45,229,15,35,-2,0,0,0,0,0,2046
22.478663922,6,3,-35,6,-1,-35,-5,19,14,176,45,229,176,45,229,15,35,-2,0,0,0,0,0,2047
22.488602877,6,3,-35,5,-1,-35,-10,40,17,176,45,229,176,45,229,15,35,-2,0,0,0,0,0,2048
22.499866963,6,6,-35,5,1,-35,-14,61,18,144,37,231,144,37,231,15,33,-1,0,0,0,0,0,2049
22.510704041,6,6,-35,5,1,-35,-14,61,18,144,37,231,144,37,231,15,33,-1,0,0,0,0,0,2050
22.52172494,6,8,-34,5,4,-34,-18,81,17,128,34,229,128,34,229,15,33,-1,0,0,0,0,0,2051
22.535135985,6,8,-34,5,4,-34,-18,81,17,128,34,229,128,34,229,15,33,-1,0,0,0,0,0,2052
22.54377389,5,10,-34,5,7,-34,-20,94,15,108,30,224,108,30,224,15,31,-1,0,0,0,0,0,2053
22.556159973,5,10,-34,5,7,-34,-20,94,15,108,30,224,108,30,224,15,31,-1,0,0,0,0,0,2054
22.565732002,5,12,-34,5,9,-34,-22,103,11,88,23,224,88,23,224,15,31,-1,0,0,0,0,0,2055
22.576541901,5,12,-34,5,9,-34,-22,103,11,88,23,224,88,23,224,15,31,-1,0,0,0,0,0,2056
22.587656021,5,13,-34,5,11,-34,-24,110,7,70,19,218,70,19,218,42,32,0,0,0,0,0,0,2057
22.598739863,5,13,-34,5,11,-34,-24,110,7,70,19,218,70,19,218,42,32,0,0,0,0,0,0,2058
22.60966897,5,14,-34,5,13,-34,-24,116,3,55,16,217,55,16,217,42,32,0,0,0,0,0,0,2059
22.620720864,5,14,-34,5,13,-34,-24,116,3,55,16,217,55,16,217,42,32,0,0,0,0,0,0,2060
22.631705046,4,15,-34,5,14,-34,-24,120,0,39,15,219,39,15,219,41,33,0,0,0,0,0,0,2061
22.642575026,4,15,-34,5,14,-34,-24,120,0,39,15,219,39,15,219,41,33,0,0,0,0,0,0,2062
22.654022932,4,15,-34,5,15,-34,-22,118,-2,30,17,218,30,17,218,41,33,0,0,0,0,0,0,2063
22.66465807,4,15,-34,5,15,-34,-22,118,-2,30,17,218,30,17,218,41,33,0,0,0,0,0,0,2064
22.679185867,4,15,-34,4,16,-34,-20,112,-1,17,10,214,17,10,214,41,34,0,0,0,0,0,0,2065
22.686650992,4,15,-34,4,15,-34,-19,106,0,17,10,214,17,10,214,41,34,0,0,0,0,0,0,2066
22.697685003,4,15,-34,4,15,-34,-19,106,0,17,10,214,17,10,214,41,34,0,0,0,0,0,0,2067
22.709483862,3,14,-34,4,16,-34,-19,103,3,8,3,217,8,3,217,41,34,0,0,0,0,0,0,2068
22.719733954,3,14,-34,3,15,-34,-20,102,6,8,3,217,8,3,217,41,35,0,0,0,0,0,0,2069
22.731056929,3,14,-34,4,16,-34,-20,102,6,3,0,217,3,0,217,41,35,0,0,0,0,0,0,2070
22.741652966,2,14,-34,3,15,-34,-20,102,9,3,0,217,3,0,217,41,35,0,0,0,0,0,0,2071
22.752665997,2,14,-34,3,16,-34,-20,102,9,-1,-8,216,-1,-8,216,41,35,0,0,0,0,0,0,2072
22.763793945,2,13,-34,3,15,-34,-21,104,12,-1,-8,216,-1,-8,216,41,35,0,0,0,0,0,0,2073
22.775399924,2,13,-34,3,15,-34,-21,104,12,-9,-11,213,-9,-11,213,41,35,0,0,0,0,0,0,2074
22.786401034,2,13,-34,2,15,-34,-19,107,13,-9,-11,213,-9,-11,213,41,35,0,0,0,0,0,0,2075
22.79665494,1,13,-34,2,15,-34,-19,107,13,-27,-11,210,-27,-11,210,41,36,0,0,0,0,0,0,2076
22.807841063,1,12,-34,2,15,-34,-15,111,13,-27,-11,210,-27,-11,210,41,36,0,0,0,0,0,0,2077
22.818819046,1,12,-34,2,15,-34,-15,111,13,-38,-7,205,-38,-7,205,41,36,0,0,0,0,0,0,2078
22.830445051,1,12,-34,2,14,-34,-9,115,10,-38,-7,205,-38,-7,205,41,36,0,0,0,0,0,0,2079
22.840928078,1,11,-34,2,14,-34,-9,115,10,-52,-10,199,-52,-10,199,42,36,0,0,0,0,0,0,2080
22.851825953,1,11,-34,2,14,-34,-4,121,6,-52,-10,199,-52,-10,199,42,36,0,0,0,0,0,0,2081
22.867176056,0,10,-34,1,13,-34,-4,121,6,-57,-8,192,-57,-8,192,42,36,0,0,0,0,0,0,2082
22.873653889,0,10,-34,1,13,-34,0,127,3,-57,-8,192,-57,-8,192,42,36,0,0,0,0,0,0,2083
22.884641886,0,8,-34,1,12,-34,0,127,3,-69,-9,192,-69,-9,192,41,37,0,0,0,0,0,0,2084
22.89574194,0,9,-34,1,12,-34,0,132,1,-69,-9,192,-69,-9,192,41,37,0,0,0,0,0,0,2085
22.906594038,0,7,-34,1,11,-34,0,132,1,-88,-3,183,-88,-3,183,41,37,0,0,0,0,0,0,2086
22.917794943,0,7,-34,1,11,-34,0,136,1,-88,-3,183,-88,-3,183,41,37,0,0,0,0,0,0,2087
22.928627968,0,6,-34,1,10,-34,3,137,1,-100,2,172,-100,2,172,39,37,0,0,0,0,0,0,2088
22.939702034,0,6,-34,1,10,-34,6,138,3,-100,2,172,-100,2,172,39,37,0,0,0,0,0,0,2089
22.953932047,0,6,-34,1,10,-34,6,138,3,-100,2,172,-100,2,172,39,37,0,0,0,0,0,0,2090
22.961894989,0,4,-34,1,8,-34,7,138,5,-136,4,168,-136,4,168,39,37,0,0,0,0,0,0,2091
22.972737074,0,4,-34,1,9,-34,5,135,7,-136,4,168,-136,4,168,36,37,0,0,0,0,0,0,2092
22.990114927,0,1,-34,1,6,-34,5,135,7,-149,3,163,-149,3,163,36,37,0,0,0,0,0,0,2093
22.998854876,0,2,-33,1,7,-33,4,130,8,-149,3,163,-149,3,163,36,37,0,0,0,0,0,0,2094
23.007174015,0,0,-33,1,4,-33,5,123,8,-158,1,155,-158,1,155,34,36,0,0,0,0,0,0,2095
23.01650095,0,0,-33,1,5,-33,7,115,9,-158,1,155,-158,1,155,34,36,0,0,0,0,0,0,2096
23.027739048,0,-2,-33,1,2,-33,7,115,9,-163,2,147,-163,2,147,34,36,0,0,0,0,0,0,2097
23.038646937,0,-2,-33,1,2,-33,8,108,9,-163,2,147,-163,2,147,34,36,0,0,0,0,0,0,2098
23.049616099,0,-5,-33,1,0,-33,8,108,9,-169,6,145,-169,6,145,34,36,0,0,0,0,0,0,2099
23.060678959,0,-4,-33,1,0,-33,9,101,11,-169,6,145,-169,6,145,34,36,0,0,0,0,0,0,2100
23.071907997,1,-8,-33,1,-2,-33,9,101,11,-171,9,142,-171,9,142,34,36,0,0,0,0,0,0,2101
23.08266902,1,-6,-33,1,-1,-33,9,95,13,-171,9,142,-171,9,142,34,36,0,0,0,0,0,0,2102
23.093621016,1,-10,-33,1,-5,-33,9,95,13,-175,11,138,-175,11,138,34,36,0,0,0,0,0,0,2103
23.10453105,1,-9,-33,1,-4,-33,9,90,15,-175,11,138,-175,11,138,34,36,0,0,0,0,0,0,2104
23.115603924,1,-12,-33,1,-7,-33,9,90,15,-183,10,137,-183,10,137,34,36,0,0,0,0,0,0,2105
23.126676083,1,-11,-33,1,-6,-33,8,85,15,-183,10,137,-183,10,137,34,36,0,0,0,0,0,0,2106
23.137696982,1,-14,-33,1,-9,-33,7,83,13,-196,10,130,-196,10,130,34,36,0,0,0,0,0,0,2107
23.148590088,1,-12,-33,1,-8,-33,6,80,10,-196,10,130,-196,10,130,34,36,0,0,0,0,0,0,2108
23.1595819,1,-16,-33,1,-11,-33,6,80,10,-223,16,125,-223,16,125,34,36,0,0,0,0,0,0,2109
23.170613051,1,-15,-33,1,-10,-33,5,75,8,-223,16,125,-223,16,125,34,36,0,0,0,0,0,0,2110
23.181847096,1,-19,-33,1,-14,-33,5,75,8,-240,20,124,-240,20,124,34,35,0,0,0,0,0,0,2111
