TiempoEjecucion,AnguloPitch,AnguloRoll,AnguloYaw,G_Pitch,G_Roll,G_Yaw,G_Pitch_filtrada,G_Roll_filtrada,G_Yaw_filtrada,Ax,Ay,Az,Ax_filtrada,Ay_filtrada,Az_filtrada,posZ,posZ_filtrada,velZ,motorDelantero,motorTrasero,motorDerecho,motorIzquierdo,EstadoEncendido,MensajesRecibidos
75.703815937,0,1,-4,4,0,-4,2,0,-4,22,-91,33,-2,1,223,118,0,0,111,116,120,122,1,6622
75.731986999,0,1,-4,1,-1,0,2,-1,-2,156,-156,61,2,-1,224,118,0,0,112,118,116,124,1,6623
75.741003036,0,1,-4,2,1,1,1,0,0,-11,-114,97,2,-1,225,118,0,0,115,117,119,120,1,6624
75.750072002,0,1,-4,5,0,0,3,0,0,198,-23,165,6,-5,227,118,0,0,110,121,120,119,1,6625
75.759861946,0,1,-4,-1,-3,1,1,-1,0,119,87,117,13,-5,226,118,0,0,115,116,114,125,1,6626
75.787001133,0,1,-4,4,0,-2,1,-2,0,-151,-90,169,8,-6,224,118,0,0,114,115,117,124,1,6627
75.797044038,0,1,-4,3,-3,3,3,-1,0,20,-20,194,11,-5,222,118,0,0,111,123,115,121,1,6628
75.805964946,0,1,-4,4,0,-2,3,-1,0,-153,98,130,8,1,225,118,0,0,111,118,119,123,1,6629
75.815006017,0,1,-4,-2,1,3,0,1,0,-2,100,36,3,1,223,118,0,0,118,115,120,116,1,6630
75.84325695,0,1,-4,3,0,0,0,1,1,101,39,128,12,0,223,118,0,0,115,115,120,120,1,6631
75.851881027,0,1,-4,-2,2,-4,0,1,-2,-157,-100,4,7,-7,227,118,0,0,113,114,121,121,1,6632
75.861185073,0,1,-4,-3,0,-6,-2,1,-5,130,-239,243,16,-14,230,118,0,0,118,108,122,123,1,6633
75.871004104,0,1,-4,-2,0,-3,-3,0,-5,64,-33,55,16,-12,233,118,0,0,117,111,119,123,1,6634
75.898918151,0,1,-4,-5,-2,6,-4,0,1,-43,-11,239,12,-11,232,118,0,0,123,113,114,121,1,6635
75.907959938,0,1,-4,1,0,0,-2,0,3,-182,70,92,6,-6,228,118,0,0,115,115,118,122,1,6636
75.916988134,0,1,-4,-5,0,-1,-2,0,-1,-83,129,55,0,-4,222,118,0,0,117,112,120,121,1,6637
75.925914049,0,1,-4,-1,0,1,-3,0,0,25,16,49,7,-3,227,118,0,0,120,112,117,121,1,6638
75.953952074,0,1,-4,-5,1,0,-3,0,1,193,148,175,10,0,225,118,0,0,119,113,119,119,1,6639
75.962968111,0,1,-4,0,-4,0,-3,-1,0,136,56,185,15,-2,228,118,0,0,118,113,115,124,1,6640
75.972794055,0,1,-4,-1,1,-5,0,-1,-2,-7,-63,45,13,-2,227,118,0,0,112,114,119,124,1,6641
75.981924057,0,1,-4,0,-2,-1,0,0,-3,-48,-176,122,10,-7,224,118,0,0,115,114,119,122,1,6642
76.009952068,0,1,-4,3,2,-3,2,0,-2,-107,-118,21,10,-7,226,118,0,0,110,118,120,123,1,6643
76.018814086,0,1,-4,1,1,1,2,2,0,-43,26,62,6,-4,225,118,0,0,113,120,121,116,1,6644
76.028066158,0,1,-4,1,-2,0,1,0,0,39,24,214,7,-4,227,118,0,0,114,116,116,124,1,6645
76.037883043,0,1,-4,0,-1,1,0,-2,0,132,104,255,10,-6,228,118,0,0,116,116,114,124,1,6646
76.06497693,0,1,-4,0,-1,-1,0,-1,0,6,-102,235,12,-6,230,118,0,0,116,114,117,123,1,6647
76.074794054,0,1,-4,4,1,2,2,0,0,-94,-106,10,15,-9,230,118,0,0,112,121,118,119,1,6648
76.085034132,0,1,-4,3,-3,0,4,0,0,123,59,181,17,-6,230,118,0,0,110,120,117,123,1,6649
76.093008041,0,2,-4,2,1,2,2,0,1,-149,79,191,10,-6,230,118,0,0,115,118,116,121,1,6650
76.120975017,0,2,-4,3,-2,0,3,0,1,97,31,164,11,-10,229,118,0,0,112,118,118,122,1,6651
76.13007307,0,2,-4,2,3,0,3,0,0,-255,29,185,6,-10,229,118,0,0,112,118,119,120,1,6652
76.138935089,0,2,-4,3,1,-3,2,2,-2,54,-136,195,5,-9,231,118,0,0,112,116,123,119,1,6653
76.148859977,0,2,-4,4,-3,3,3,0,0,163,-148,55,11,-14,231,118,0,0,112,121,113,124,1,6654
76.17685008,0,2,-4,0,0,3,2,-1,3,70,-30,24,12,-11,231,118,0,0,116,118,114,123,1,6655
76.185981035,0,2,-4,2,0,2,1,0,2,138,121,217,15,-7,228,118,0,0,116,117,117,120,1,6656
76.194976091,0,2,-4,0,0,1,0,0,2,-163,142,102,10,-2,225,118,0,0,116,116,118,120,1,6657
76.204821109,0,2,-4,2,-1,4,0,0,2,-71,186,12,5,1,228,118,0,0,117,117,115,120,1,6658
76.232115984,0,2,-4,-2,2,5,0,0,4,-21,121,50,6,0,231,118,0,0,119,117,116,118,1,6659
76.241073131,0,2,-4,0,-2,-3,-1,0,1,18,50,121,4,1,232,118,0,0,116,112,119,123,1,6660
76.250815153,0,2,-4,-7,0,-3,-3,-1,-3,-91,-64,87,4,-2,235,118,0,0,120,109,117,125,1,6661
76.259901046,0,2,-4,-2,3,3,-5,1,0,141,-29,46,7,-7,229,118,0,0,123,111,120,116,1,6662
76.287874937,0,2,-4,0,0,0,-1,2,1,-33,-7,222,2,-3,226,118,0,0,114,116,121,119,1,6663
76.297034978,0,2,-4,-7,-1,0,-4,0,0,152,45,20,6,0,231,118,0,0,121,109,116,124,1,6664
76.306146144,0,1,-4,0,-1,0,-3,-1,0,3,117,141,1,3,230,118,0,0,118,112,116,124,1,6665
76.31588912,0,1,-4,-3,-1,3,-1,-1,1,-143,53,229,-4,3,233,118,0,0,117,117,115,122,1,6666
76.343807935,0,1,-4,1,-2,-2,0,-1,0,110,-90,224,1,3,234,118,0,0,115,114,117,124,1,6667
76.35289812,0,1,-4,1,0,2,1,-1,0,-70,-72,225,0,1,235,118,0,0,113,120,117,121,1,6668
76.362118005,0,1,-4,7,0,-1,4,0,0,154,25,8,7,0,232,118,0,0,109,121,119,121,1,6669
76.371844053,0,1,-4,-1,-1,3,2,0,1,-80,7,156,5,-2,229,118,0,0,116,118,115,121,1,6670
76.399083137,0,1,-4,3,1,-1,1,0,1,-123,-54,176,0,-4,230,118,0,0,115,114,120,121,1,6671
76.408962965,0,1,-4,3,1,-1,3,1,-1,-116,2,154,0,-2,227,118,0,0,110,120,121,119,1,6672
76.417977094,0,1,-4,0,-1,1,1,0,0,21,-45,174,-2,2,225,118,0,0,116,115,116,122,1,6673
76.426990032,0,1,-4,11,-1,0,5,-1,0,-78,-94,6,-5,1,224,118,0,0,107,124,116,123,1,6674
76.454877138,0,1,-4,2,-1,-2,6,-1,0,123,-220,132,-1,-4,222,118,0,0,107,123,118,123,1,6675
76.464198112,0,1,-4,8,-2,5,5,-1,1,-45,-6,120,1,-6,222,118,0,0,114,122,114,121,1,6676
76.473219156,0,1,-4,1,0,6,5,-1,5,179,201,169,8,-4,225,118,0,0,114,122,115,119,1,6677
76.482833147,0,1,-4,4,0,3,3,0,4,-8,104,56,7,-2,225,118,0,0,116,118,117,119,1,6678
76.510873079,0,1,-4,1,2,2,3,1,3,-149,120,232,0,-2,227,118,0,0,114,119,119,117,1,6679
76.519952058,0,1,-4,2,-2,-1,2,0,0,-42,100,232,-5,-1,221,118,0,0,114,116,118,122,1,6680
76.528898954,0,1,-4,0,2,1,1,0,0,-179,-41,101,-9,-1,216,118,0,0,115,117,118,120,1,6681
76.53886795,0,1,-4,0,0,0,0,1,0,156,25,65,-4,3,221,118,0,0,115,115,121,118,1,6682
76.565999031,0,1,-4,2,1,-2,1,0,-1,-76,2,163,-3,6,219,118,0,0,112,117,119,122,1,6683
76.57586193,0,1,-4,-1,1,-1,0,1,-1,2,-68,104,-2,4,220,118,0,0,116,114,120,120,1,6684
76.584813118,0,0,-4,0,0,-4,-1,0,-2,63,-126,32,-2,0,221,118,0,0,116,111,119,123,1,6685
76.594033002,0,0,-4,-1,1,-1,-1,0,-2,102,6,12,-2,-1,222,118,0,0,116,114,119,121,1,6686
76.622009038,0,0,-4,-4,0,-5,-2,1,-3,-106,-52,1,-5,0,222,118,0,0,117,109,122,121,1,6687
76.631011962,0,0,-4,-4,0,5,-4,0,0,-60,192,206,-4,7,221,118,0,0,123,112,116,119,1,6688
76.640115022,0,0,-4,-1,0,0,-3,0,2,-176,43,167,-12,6,214,118,0,0,117,113,118,121,1,6689
76.64982295,0,0,-4,-9,1,-1,-5,0,0,-113,81,242,-11,6,215,118,0,0,123,107,120,120,1,6690
76.677953004,0,0,-4,0,-2,-2,-5,0,-1,168,140,31,-9,9,218,118,0,0,119,110,118,123,1,6691
76.687018156,0,0,-4,-2,2,-3,-1,0,-2,54,-77,68,-1,6,222,118,0,0,113,116,120,121,1,6692
76.696013927,0,0,-4,0,1,-3,-1,2,-3,89,-104,166,0,7,221,118,0,0,115,113,123,118,1,6693
76.705876112,0,0,-4,0,0,-3,0,0,-3,-45,-114,243,-6,8,219,118,0,0,113,115,120,122,1,6694
76.733046054,0,0,-4,3,0,-2,2,0,-3,89,-90,21,-5,6,219,118,0,0,111,118,119,122,1,6695
76.742846012,0,0,-4,6,-1,0,4,0,0,-78,18,114,-11,4,217,118,0,0,109,123,116,122,1,6696
76.751969099,0,0,-4,2,0,5,4,0,3,26,126,53,-6,3,222,118,0,0,114,121,116,119,1,6697
76.76119709,0,0,-4,9,-1,-1,6,0,1,16,-2,213,-4,0,221,118,0,0,107,122,118,122,1,6698
76.788957119,0,0,-4,0,0,0,5,0,-1,32,-66,220,-2,-5,218,118,0,0,111,119,118,122,1,6699
76.797950983,0,0,-4,8,-1,-1,4,0,-1,140,-15,17,0,-7,216,118,0,0,111,119,119,122,1,6700
76.806964159,0,0,-4,1,3,-4,5,1,-2,43,9,151,3,-5,211,118,0,0,108,120,123,120,1,6701
76.816923141,0,0,-4,6,1,-2,4,2,-3,-137,161,167,-3,5,214,118,0,0,111,118,124,117,1,6702
76.844820976,0,0,-4,0,0,1,3,0,0,-97,-30,202,-4,5,214,118,0,0,113,119,117,121,1,6703
76.853951931,0,0,-4,-5,1,-3,-2,0,0,-18,-47,75,-9,2,208,118,0,0,121,107,120,122,1,6704
76.862847089,0,0,-4,1,0,-3,-1,0,-3,87,-96,59,-7,-2,213,118,0,0,115,113,121,121,1,6705
76.87285304,0,0,-4,-5,-2,-3,-2,-1,-3,17,-70,169,3,-5,218,118,0,0,116,112,117,125,1,6706
76.900114059,0,0,-4,0,-1,4,-2,-1,0,-63,-153,165,-1,-7,216,118,0,0,120,114,115,120,1,6707
76.912706136,0,0,-4,-7,0,5,-3,0,4,-4,85,139,0,-3,214,118,0,0,122,113,116,119,1,6708
76.919013023,0,0,-4,-3,-3,-3,-5,-1,0,64,75,19,-1,-1,214,118,0,0,121,107,117,125,1,6709
76.927910089,0,0,-4,-8,2,-4,-6,0,-3,12,193,249,0,2,217,118,0,0,120,107,121,122,1,6710
76.956031084,0,0,-4,-3,-1,0,-5,0,-2,46,181,23,4,8,219,118,0,0,120,110,120,120,1,6711
76.965093135,0,0,-4,0,3,-4,-1,0,-2,-249,-1,249,1,8,222,118,0,0,111,116,122,121,1,6712
76.974940061,0,0,-4,-1,1,0,0,2,-2,60,-163,250,2,5,224,118,0,0,115,115,123,117,1,6713
76.983901023,0,0,-4,3,2,-3,0,1,-2,-30,-114,245,3,5,223,118,0,0,112,116,121,121,1,6714
77.011899948,0,0,-4,0,-1,0,1,0,-2,69,-73,116,2,8,223,118,0,0,112,118,118,122,1,6715
77.021019935,0,0,-4,5,0,-2,2,-1,-1,143,59,173,7,10,224,118,0,0,111,118,117,124,1,6716
77.033348083,0,0,-4,0,0,2,2,0,0,-18,84,219,2,7,225,118,0,0,114,119,118,119,1,6717
77.039992094,0,0,-4,0,-4,0,0,-1,1,-158,-40,243,-1,3,224,118,0,0,117,114,115,124,1,6718
77.067985057,0,0,-4,-1,0,3,0,-2,2,107,69,106,4,2,227,118,0,0,117,116,115,121,1,6719
77.077167034,0,0,-4,0,0,-3,0,0,0,-27,130,177,5,3,232,118,0,0,114,114,122,120,1,6720
77.08596301,0,0,-4,0,3,0,0,1,-1,-34,-7,197,8,4,234,118,0,0,114,117,122,117,1,6721
77.095886945,0,0,-4,2,0,-2,1,2,-1,126,51,60,8,4,228,118,0,0,111,117,122,119,1,6722
77.124781131,0,0,-4,3,2,3,3,1,0,-170,53,77,5,6,226,118,0,0,113,121,118,119,1,6723
77.132981061,0,0,-4,1,0,-7,2,1,-1,106,-36,140,8,0,226,118,0,0,111,114,123,123,1,6724
77.142522096,0,0,-4,3,-1,-4,2,0,-5,15,-116,39,7,0,227,118,0,0,111,116,119,124,1,6725
77.150968074,0,0,-4,1,1,-8,2,0,-6,-168,-70,38,0,-1,227,118,0,0,109,115,122,123,1,6726
77.179064989,0,0,-4,1,-1,4,1,0,-1,110,-244,240,5,-5,227,118,0,0,116,118,117,119,1,6727
77.188279151,0,0,-4,0,1,6,0,0,5,-153,154,137,3,-6,225,118,0,0,118,118,116,118,1,6728
77.197911024,0,0,-4,0,-1,-6,0,0,0,96,31,64,10,-7,229,118,0,0,113,112,121,123,1,6729
77.206889152,0,0,-4,-7,0,0,-3,-1,-3,11,96,7,13,-6,230,118,0,0,122,109,116,123,1,6730
77.234975099,0,0,-4,-1,0,-3,-4,0,-1,-83,90,57,7,-7,230,118,0,0,119,109,119,123,1,6731
77.243999004,0,0,-4,-3,1,0,-2,0,-1,-15,-53,47,5,-7,230,118,0,0,116,115,119,120,1,6732
77.252880096,0,0,-4,2,1,-3,0,1,-1,-17,-122,86,2,-7,228,118,0,0,113,116,122,120,1,6733
77.262916088,0,0,-4,0,0,1,1,0,0,-55,83,168,2,-2,226,118,0,0,113,118,118,120,1,6734
77.290811061,0,0,-4,-4,0,3,-2,0,2,81,19,84,2,0,221,118,0,0,122,111,116,121,1,6735
77.299806118,0,0,-4,1,0,-3,-1,0,0,-54,-48,201,2,-1,223,118,0,0,114,113,120,122,1,6736
77.312682151,0,0,-4,-2,-1,-3,0,0,-3,-20,-77,239,1,-6,221,118,0,0,113,114,119,123,1,6737
77.318979024,0,0,-4,3,0,-1,0,-1,-2,82,-132,37,3,-10,223,118,0,0,113,117,117,123,1,6738
77.346019029,0,0,-4,-8,-2,6,-2,-1,2,86,110,86,4,-5,226,118,0,0,123,113,114,120,1,6739
77.356136083,0,0,-4,3,0,-3,-2,-1,1,62,71,25,2,-3,227,118,0,0,117,111,119,123,1,6740
77.365000963,0,0,-4,-4,2,1,0,0,-1,-174,82,75,-2,-1,225,118,0,0,115,117,120,118,1,6741
77.374099969,0,0,-4,4,0,2,0,0,1,-60,83,44,0,-3,228,118,0,0,116,116,118,119,1,6742
77.401948928,0,0,-4,-5,1,3,0,0,3,136,39,71,5,-1,231,118,0,0,118,116,117,119,1,6743
77.410933971,0,0,-4,-1,-1,-2,-3,0,0,39,-164,11,6,-4,236,118,0,0,119,109,119,122,1,6744
77.421030998,0,0,-4,0,2,-6,0,0,-4,-39,-34,51,3,-3,236,118,0,0,111,115,121,123,1,6745
77.433548927,0,0,-4,-4,0,7,-1,1,0,192,-28,131,1,-2,228,118,0,0,121,115,118,116,1,6746
77.457921981,0,0,-4,0,1,0,-1,1,3,-150,-25,87,0,0,226,118,0,0,117,114,119,119,1,6747
77.466978073,0,0,-4,-5,0,0,-2,0,0,30,82,69,0,0,225,118,0,0,118,112,119,121,1,6748
77.476048946,0,0,-4,1,-4,-6,-1,-2,-2,-31,95,35,-2,1,225,118,0,0,115,111,116,128,1,6749
77.486001014,0,0,-4,-7,-1,1,-2,-2,-2,-13,56,64,-3,-2,227,118,0,0,120,112,115,123,1,6750
77.513949155,0,0,-4,0,-2,0,-3,-2,0,136,24,129,0,-5,230,118,0,0,120,110,118,122,1,6751
77.52295494,0,0,-4,0,2,-4,0,0,-2,-126,-162,11,2,-10,230,118,0,0,110,117,122,121,1,6752
77.532089948,0,0,-4,0,-2,-2,0,0,-3,2,-148,38,7,-9,231,118,0,0,114,114,120,122,1,6753
77.54195404,0,0,-4,2,1,-1,1,0,-1,-172,55,228,3,-5,231,118,0,0,113,117,117,123,1,6754
77.569072961,0,0,-4,-3,1,4,0,1,1,178,-125,50,6,-6,229,118,0,0,119,115,119,116,1,6755
77.578846931,0,0,-4,0,2,0,-1,2,2,-240,112,194,-3,1,230,118,0,0,118,113,121,118,1,6756
77.588087081,0,0,-4,-22,2,-9,-10,2,-4,139,-75,118,0,-9,233,118,0,0,130,93,125,122,1,6757
77.597097158,0,0,-4,-98,10,-10,-60,6,-9,110,-27,58,7,-9,229,118,0,0,210,12,132,116,1,6758
77.624933958,-1,0,-4,-116,16,-6,-107,13,-8,-17,253,99,4,-4,222,118,0,0,240,0,140,105,1,6759
77.633962154,-4,0,-5,-149,9,-15,-132,12,-10,213,-149,91,10,-11,220,118,0,0,240,0,137,115,1,6760
77.648707151,-4,1,-5,-110,-3,-37,-130,3,-26,-9,-221,97,4,-23,224,118,0,0,222,0,128,141,1,6761
77.652966976,-5,1,-5,-135,-14,-16,-123,-8,-27,214,-215,233,6,-29,235,118,0,0,222,0,107,146,1,6762
77.669938087,-5,1,-5,-102,0,-30,-118,-7,-23,-12,-147,245,10,-41,245,118,11,75,214,0,124,140,1,6763
77.68012309,-7,1,-5,-87,13,-25,-94,6,-27,-25,-186,205,7,-45,253,118,11,75,178,32,146,114,1,6764
77.688926935,-7,1,-5,-80,0,-11,-83,6,-18,97,-62,-204,9,-43,241,118,11,75,184,37,129,120,1,6765
77.697948932,-7,1,-5,-34,0,-17,-57,0,-14,-48,53,66,12,-40,235,118,11,75,143,73,121,134,1,6766
77.72598195,-7,1,-5,-12,-3,-3,-23,-1,-10,39,74,131,10,-32,232,118,10,-31,110,117,117,125,1,6767
77.735105991,-7,1,-5,44,-2,1,16,-2,0,-14,-8,26,14,-36,236,118,10,-31,71,160,114,125,1,6768
77.744120121,-7,1,-5,61,0,8,52,-1,5,-100,39,51,9,-36,236,118,10,-31,40,196,116,118,1,6769
77.754025936,-7,1,-5,69,-6,4,65,-3,6,159,-13,192,12,-39,240,118,10,-31,47,187,111,125,1,6770
77.76821208,-6,1,-5,93,-4,8,81,-5,6,-251,-83,199,8,-43,237,118,10,-12,30,206,108,126,1,6771
77.774039983,-6,1,-5,94,-6,11,94,-5,9,128,86,-20,12,-40,229,118,10,-12,22,217,109,122,1,6772
77.782799005,-6,1,-5,116,-7,0,105,-6,5,-223,-94,179,7,-39,232,118,10,-12,7,222,111,130,1,6773
77.792104005,-5,1,-5,109,-6,8,113,-6,3,142,70,136,12,-39,231,118,10,-12,7,229,109,124,1,6774
77.809953928,-5,1,-5,106,0,4,108,-2,6,-120,174,-21,7,-35,228,118,20,48,20,213,117,120,1,6775
77.818901062,-4,1,-5,94,-5,4,100,-2,4,132,33,227,11,-33,229,118,20,48,30,204,115,121,1,6776
77.828202009,-4,1,-5,79,-4,3,87,-4,4,-106,-89,65,9,-34,231,118,20,48,47,186,111,126,1,6777
77.837826967,-4,1,-5,85,-1,-4,82,-3,0,24,-59,142,14,-38,234,118,20,48,40,186,119,125,1,6778
77.848989963,-3,1,-5,74,0,14,80,-1,5,17,136,28,12,-38,232,118,20,-1,48,193,113,115,1,6779
77.86115694,-3,1,-5,45,-3,-7,60,-2,3,32,-78,93,12,-48,234,118,20,-1,73,151,119,128,1,6780
77.86788702,-3,1,-5,21,0,20,33,-1,6,137,-171,98,19,-54,234,118,20,-1,115,132,109,115,1,6781
77.877139091,-4,1,-5,19,-2,6,20,-1,13,83,5,239,23,-56,233,118,20,-1,110,125,116,119,1,6782
77.905084133,-4,1,-5,0,1,-2,9,0,1,141,61,4,23,-55,231,118,18,-56,116,112,120,122,1,6783
77.914101123,-4,1,-5,-38,0,-5,-19,0,-4,14,16,52,23,-51,232,118,18,-56,158,68,122,122,1,6784
77.92301011,-5,1,-5,-44,2,3,-41,0,0,-17,102,202,23,-47,230,118,18,-56,176,57,118,119,1,6785
77.932835102,-5,2,-5,-62,2,0,-53,2,2,135,14,64,22,-46,228,118,18,-56,178,53,121,118,1,6786
77.942944049,-6,2,-5,-66,3,-2,-64,2,0,-100,36,29,23,-38,233,118,17,-48,186,42,122,120,1,6787
77.952422142,-6,2,-5,-68,0,-12,-67,1,-7,2,-55,250,29,-42,237,118,17,-48,179,41,124,126,1,6788
77.961126089,-7,2,-5,-75,0,-11,-72,0,-12,133,-107,34,33,-47,237,118,17,-48,185,35,121,128,1,6789
77.970942974,-7,2,-5,-76,2,-18,-76,1,-15,-161,-233,251,29,-54,236,118,17,-48,186,29,128,127,1,6790
77.987954139,-7,2,-5,-69,1,-15,-73,1,-16,44,-92,112,27,-57,235,118,26,29,179,39,127,126,1,6791
77.997385978,-8,2,-5,-70,0,4,-70,1,-5,153,116,255,34,-50,235,118,26,29,184,49,117,120,1,6792
78.010071039,-9,3,-5,-53,4,-9,-62,2,-2,-133,-79,142,24,-48,237,118,26,29,166,56,126,122,1,6793
78.016085147,-9,3,-5,-55,-1,-2,-54,1,-6,152,-160,42,32,-54,239,118,26,29,163,65,120,123,1,6794
78.043931007,-9,3,-5,-31,6,-10,-43,2,-6,-10,-169,227,27,-61,250,118,24,-73,147,75,125,123,1,6795
78.053118944,-10,3,-6,-3,-2,-2,-17,2,-6,144,-91,181,37,-73,250,118,24,-73,112,115,121,122,1,6796
78.061933994,-10,3,-6,3,0,6,0,-1,1,-34,2,130,33,-64,244,118,24,-73,107,128,111,124,1,6797
78.072005033,-10,3,-6,18,-2,7,10,-1,6,-87,-149,160,28,-68,246,118,24,-73,102,133,113,122,1,6798
78.099836111,-10,3,-6,40,-5,3,29,-4,5,-184,41,39,24,-73,251,118,22,-66,76,156,110,128,1,6799
78.108947038,-9,3,-5,62,-1,8,51,-3,5,53,-10,228,20,-69,248,118,22,-66,55,181,112,122,1,6800
78.117902994,-9,3,-5,62,-3,9,62,-2,8,-30,-93,238,25,-60,245,118,22,-66,54,183,113,120,1,6801
78.127872943,-9,3,-5,73,-2,2,68,-3,5,-88,48,201,18,-53,238,118,22,-66,49,182,113,126,1,6802
78.15508604,-9,3,-5,73,-3,2,73,-3,2,-120,-180,240,15,-48,232,118,19,-60,45,186,114,124,1,6803
78.165050029,-7,3,-5,66,-10,-6,70,-6,-2,116,27,205,19,-36,232,118,19,-60,52,172,111,135,1,6804
78.173979997,-7,3,-5,62,2,0,64,-4,-3,-170,-134,73,12,-38,245,118,19,-60,61,169,116,124,1,6805
78.183002948,-7,3,-5,54,0,3,58,0,1,190,45,54,18,-38,251,118,19,-60,68,165,121,116,1,6806
78.211152076,-7,3,-5,39,1,8,47,0,6,-66,121,157,15,-37,252,118,18,-54,86,151,114,119,1,6807
78.22008109,-6,3,-5,20,0,-2,29,1,3,-102,-88,60,13,-39,252,118,18,-54,103,125,120,122,1,6808
78.230128049,-6,3,-5,-3,-2,10,8,0,4,-72,-82,2,14,-42,251,118,18,-54,132,107,111,121,1,6809
78.239048957,-6,3,-5,-4,0,-2,-4,-1,3,110,-25,96,13,-48,249,118,18,-54,131,97,116,126,1,6810
78.266878128,-6,3,-5,-23,1,0,-14,0,-1,115,-70,227,22,-48,250,118,16,-49,139,91,120,120,1,6811
78.276167154,-7,3,-5,-37,1,5,-30,1,2,-91,48,42,16,-49,251,118,16,-49,162,72,118,118,1,6812
78.286474943,-7,3,-5,-43,4,1,-40,2,3,-47,-7,16,21,-47,253,118,16,-49,165,66,121,118,1,6813
78.294939994,-8,3,-5,-43,1,0,-43,3,1,56,31,54,18,-48,2,118,16,-49,162,68,120,119,1,6814
78.32290101,-8,3,-5,-41,1,-8,-42,1,-3,123,-161,107,25,-56,11,118,14,-44,155,68,121,126,1,6815
78.331898927,-9,3,-5,-44,4,-5,-43,2,-7,154,-99,98,25,-60,15,118,14,-44,157,68,124,121,1,6816
78.340935945,-9,3,-5,-33,5,-11,-38,4,-8,-152,69,140,24,-56,10,118,14,-44,147,74,128,121,1,6817
78.350847959,-9,3,-5,-32,1,-3,-33,3,-7,50,173,238,18,-43,6,118,14,-44,144,83,121,123,1,6818
78.37808609,-10,3,-6,-23,3,-6,-28,2,-5,-145,-60,113,14,-48,2,118,13,-40,139,85,122,124,1,6819
78.387836933,-10,3,-6,-10,1,-1,-17,2,-4,131,155,245,17,-36,255,118,13,-40,125,104,121,121,1,6820
78.397012949,-10,4,-6,0,2,2,-5,2,0,-51,30,194,12,-31,2,118,13,-40,115,117,118,120,1,6821
78.40596199,-10,3,-6,0,-1,5,0,0,3,-19,115,109,9,-28,254,118,13,-40,118,116,115,121,1,6822
78.433985948,-10,3,-6,9,0,0,4,0,2,-5,-67,78,0,-31,0,118,12,-36,110,119,116,125,1,6823
78.44501996,-9,3,-5,27,-1,11,18,0,6,148,102,19,3,-29,255,118,12,-36,94,145,112,119,1,6824
78.453352928,-9,3,-5,27,-2,8,27,-1,10,58,-136,118,4,-35,253,118,12,-36,88,149,111,122,1,6825
78.462042093,-9,3,-5,42,0,6,35,-1,7,-227,-112,170,-4,-38,0,118,12,-36,82,153,114,121,1,6826
78.489982128,-9,3,-5,39,-4,10,40,-2,8,212,-153,189,3,-50,253,118,10,-32,79,159,111,121,1,6827
78.499343156,-8,3,-5,55,-3,4,47,-3,7,-115,-117,59,-5,-51,255,118,10,-32,69,164,111,125,1,6828
78.508008003,-8,3,-5,38,-3,10,47,-3,7,199,28,238,-4,-48,254,118,10,-32,78,160,110,122,1,6829
78.517967939,-7,2,-5,53,-2,0,46,-3,4,-149,177,102,-3,-37,0,118,10,-32,75,155,115,126,1,6830
78.545864105,-7,2,-5,40,1,4,47,0,2,-39,-65,145,-5,-37,251,118,9,-29,74,159,118,118,1,6831
78.554804086,-6,2,-5,31,-3,-3,36,-1,0,192,141,127,-4,-36,254,118,9,-29,92,136,118,125,1,6832
78.564034938,-6,2,-5,20,0,7,26,-1,2,-235,199,105,-7,-29,247,118,9,-29,105,132,112,121,1,6833
78.573189973,-6,2,-5,12,0,-4,16,0,1,94,118,26,-8,-22,246,118,9,-29,107,119,122,122,1,6834
78.600949049,-6,2,-5,4,0,2,8,0,-1,-143,-47,105,-12,-13,243,118,8,-26,117,115,116,122,1,6835
78.610188961,-6,2,-5,-13,3,0,-4,1,1,-102,166,11,-18,-6,246,118,8,-26,133,97,121,119,1,6836
78.623391151,-6,2,-5,-19,0,-1,-16,1,0,-166,180,244,-21,-2,248,118,8,-26,142,87,120,121,1,6837
78.629063129,-6,1,-5,-27,-1,5,-23,0,2,-46,91,212,-20,3,250,118,8,-26,148,87,113,122,1,6838
78.656965971,-6,1,-5,-29,2,4,-28,0,5,74,-5,104,-14,2,245,118,8,-24,150,83,118,118,1,6839
78.666049003,-6,1,-5,-35,0,-8,-32,1,-2,-18,-155,14,-15,-1,246,118,8,-24,148,75,124,123,1,6840
78.674968004,-6,1,-5,-36,0,-8,-35,0,-8,93,-157,189,-12,-2,251,118,8,-24,151,72,121,126,1,6841
78.68521595,-6,1,-5,-27,5,0,-31,2,-4,44,-59,177,-9,-5,251,118,8,-24,144,85,123,117,1,6842
78.712223053,-6,1,-5,-29,1,0,-28,3,0,-179,-127,19,-11,-4,251,118,7,-22,142,88,122,118,1,6843
78.722296953,-7,1,-5,-19,3,-4,-24,2,-1,-90,154,14,-16,0,247,118,7,-22,135,91,122,121,1,6844
78.730955123,-6,0,-5,-13,2,0,-16,2,-2,125,26,64,-8,3,246,118,7,-22,126,103,122,118,1,6845
78.739876985,-6,0,-5,-4,2,-3,-9,2,-1,-173,-83,-19,-17,0,238,118,7,-22,119,109,122,121,1,6846
78.767874956,-6,0,-5,2,0,1,-1,0,0,36,180,82,-15,1,243,118,6,-20,113,118,118,122,1,6847
78.777104139,-6,0,-5,14,1,-1,8,0,0,-184,-133,32,-17,0,242,118,6,-20,101,128,119,122,1,6848
78.786947965,-5,0,-5,19,0,1,16,0,0,3,-52,17,-15,0,236,118,6,-20,95,136,118,121,1,6849
78.795956134,-5,0,-5,18,-3,3,18,-2,2,-109,-37,179,-20,7,232,118,6,-20,99,134,113,124,1,6850
78.823899984,-5,0,-5,21,-1,9,19,-2,6,149,201,84,-20,13,234,118,6,-18,101,136,113,120,1,6851
78.833071947,-4,0,-5,29,-3,7,25,-2,8,51,121,179,-16,15,244,118,6,-18,91,145,114,120,1,6852
78.842033147,-4,0,-5,26,0,3,28,-1,5,-28,38,47,-16,16,245,118,6,-18,89,143,117,121,1,6853
78.852270126,-3,0,-5,26,-2,-1,26,-1,1,-64,-240,83,-19,9,239,118,6,-18,93,137,119,122,1,6854
78.879153013,-3,0,-5,25,0,1,25,-1,0,-178,-18,77,-26,13,239,118,5,-16,93,138,117,121,1,6855
78.888967037,-2,0,-5,14,0,0,19,0,0,71,-33,93,-28,15,232,118,5,-16,102,128,120,119,1,6856
78.896980047,-2,0,-5,16,0,1,15,0,1,-194,31,163,-29,14,233,118,5,-16,106,125,119,120,1,6857
78.905920028,-2,0,-5,11,-1,-2,13,0,0,29,-56,230,-30,8,232,118,5,-16,103,125,119,123,1,6858
78.933984041,-2,-1,-5,11,-3,0,11,-2,-1,99,-127,245,-24,6,236,118,4,-14,108,123,115,124,1,6859
78.943092107,-2,-1,-5,-3,0,2,3,-2,1,30,110,23,-26,5,237,118,4,-14,120,113,117,121,1,6860
78.952950954,-1,-1,-5,-3,-2,-2,-3,-1,0,51,-59,73,-24,3,240,118,4,-14,125,104,119,123,1,6861
78.96214509,-1,-1,-5,-9,2,2,-6,0,0,38,-32,138,-22,0,241,118,4,-14,125,107,120,118,1,6862
78.989938974,-1,-1,-5,-11,0,-1,-10,1,0,8,109,237,-15,4,238,118,4,-13,129,101,123,118,1,6863
78.999005079,-2,-1,-5,-19,1,-4,-15,0,-2,112,-31,4,-16,0,238,118,4,-13,133,94,122,122,1,6864
79.008053064,-2,-1,-5,-17,0,-6,-18,0,-5,0,76,250,-18,6,241,118,4,-13,133,91,124,122,1,6865
79.023035049,-2,-1,-5,-18,0,0,-18,0,-3,-197,-48,206,-17,7,242,118,4,-13,133,97,119,121,1,6866
79.045083046,-2,-2,-5,-14,4,-7,-16,1,-3,99,-147,137,-20,7,247,118,4,-12,127,97,126,120,1,6867
79.054968118,-2,-2,-5,-12,0,1,-13,2,-3,104,-40,125,-14,9,243,118,4,-12,127,104,122,117,1,6868
79.063951015,-2,-2,-5,-12,2,-2,-12,1,0,-13,126,219,-20,12,242,118,4,-12,126,102,121,121,1,6869
79.073091983,-2,-2,-5,-13,0,-2,-13,0,-2,-7,174,37,-16,12,234,118,4,-12,127,100,121,121,1,6870
79.100882053,-1,-2,-5,-9,2,3,-11,0,0,-192,65,143,-20,15,234,118,3,-10,127,106,119,118,1,6871
79.11008501,-1,-2,-5,0,0,-6,-4,1,-1,-3,84,235,-25,14,230,118,3,-10,112,113,124,121,1,6872
79.119902133,-1,-2,-5,0,0,-4,0,0,-5,5,-64,220,-19,7,233,118,3,-10,110,116,120,124,1,6873
79.128877162,-1,-2,-5,6,0,-7,3,0,-6,70,-171,164,-19,0,230,118,3,-10,107,117,123,123,1,6874
79.156872987,-1,-2,-5,8,0,0,7,0,-4,-34,-18,69,-17,0,229,118,3,-9,105,124,121,120,1,6875
79.165869951,-1,-2,-5,16,0,0,12,0,0,-121,-105,177,-17,-5,227,118,3,-9,100,130,120,120,1,6876
79.174870967,-1,-2,-5,14,-2,0,15,0,0,57,72,50,-12,-8,229,118,3,-9,98,132,119,122,1,6877
79.184975147,-1,-2,-5,16,0,6,15,0,3,20,112,208,-10,-8,229,118,3,-9,103,132,116,118,1,6878
79.212038993,-1,-2,-5,17,-2,2,16,-1,4,-123,72,30,-15,-6,233,118,2,-8,99,133,117,121,1,6879
79.222162008,0,-2,-5,16,0,-1,17,-1,0,-56,47,116,-16,-1,229,118,2,-8,98,130,118,123,1,6880
79.230931997,0,-2,-5,13,-1,-6,15,-1,-3,67,-21,197,-16,2,223,118,2,-8,100,125,122,123,1,6881
79.239928007,0,-2,-5,10,0,0,12,0,-3,18,30,72,-17,4,227,118,2,-8,106,124,120,120,1,6882
79.268064022,0,-2,-5,10,0,-6,10,0,-2,57,-163,184,-11,3,225,118,2,-8,104,121,122,123,1,6883
79.277094125,0,-2,-5,4,0,3,7,0,-1,-117,-76,168,-12,-2,222,118,2,-8,112,121,117,119,1,6884
79.286888122,0,-2,-5,1,2,-1,2,0,1,168,-160,146,-11,-6,218,118,2,-8,116,113,123,118,1,6885
79.295938968,0,-2,-5,0,-1,0,0,0,0,193,88,143,-2,-2,222,118,2,-8,116,114,120,120,1,6886
79.323922157,0,-2,-5,-6,-1,0,-3,-1,0,-99,155,49,-5,-3,214,118,2,-7,121,109,117,123,1,6887
79.333069086,0,-2,-5,-11,0,-5,-9,0,-2,0,21,240,0,0,213,118,2,-7,126,99,123,122,1,6888
79.342054128,0,-2,-5,-12,1,0,-12,0,-2,-140,-109,4,-4,0,219,118,2,-7,129,101,122,118,1,6889
79.35187602,0,-2,-5,-10,1,-3,-11,1,-2,-66,-106,130,-3,-2,225,118,2,-7,124,103,124,120,1,6890
79.379910945,0,-2,-5,-17,0,-1,-13,0,-2,10,-147,65,-6,-11,224,118,2,-6,130,99,121,121,1,6891
79.389009952,-2,-2,-5,-126,13,-3,-71,6,-2,-19,139,150,-8,-10,217,118,2,-6,231,0,133,110,1,6892
79.39805603,-2,-2,-5,-122,9,-6,-124,11,-4,44,54,-66,-6,-10,208,118,2,-6,240,0,138,108,1,6893
79.407864093,-3,-2,-5,-139,17,-15,-130,13,-11,10,247,-101,1,2,203,118,2,-6,240,0,141,112,1,6894
79.424956083,-3,-2,-5,-168,14,-28,-153,15,-22,199,-132,11,10,0,201,118,13,72,240,0,149,114,1,6895
79.434009075,-5,-1,-6,-179,0,-22,-173,7,-25,-24,68,-182,8,1,195,118,13,72,240,0,130,129,1,6896
79.443011999,-6,-1,-6,-147,0,-3,-163,0,-13,-87,179,-232,4,5,185,118,13,72,240,0,116,127,1,6897
79.452979087,-6,-1,-6,-167,0,-38,-157,0,-21,112,-148,58,13,3,180,118,13,72,240,0,136,136,1,6898
79.470057964,-6,-1,-6,-113,3,-7,-140,1,-22,-149,-159,25,0,2,181,118,24,41,233,0,126,121,1,6899
79.479112148,-7,-1,-6,-91,-3,-9,-102,0,-8,-175,-198,184,-4,-5,185,118,24,41,179,43,122,126,1,6900
79.488865137,-7,-1,-6,-69,3,2,-80,0,-3,-98,-58,159,-8,-11,181,118,24,41,177,54,119,120,1,6901
79.497950077,-8,-1,-6,-34,6,-16,-52,4,-6,225,-168,20,-3,-15,178,118,24,41,137,79,135,118,1,6902
79.525942087,-8,-1,-6,2,-4,-5,-16,1,-10,78,-17,12,-1,-18,172,118,21,-65,101,124,120,125,1,6903
79.535022974,-7,-1,-6,56,-3,7,29,-3,1,-84,14,54,-6,-17,167,118,21,-65,55,180,109,126,1,6904
79.544193983,-7,-1,-6,74,0,13,65,-1,10,-187,158,187,-11,-15,166,118,21,-65,31,209,115,115,1,6905
79.55382204,-6,-1,-6,72,-8,4,73,-3,9,166,3,152,-2,-13,164,118,21,-65,42,190,113,125,1,6906
79.581809043,-6,-1,-6,106,-3,0,89,-6,2,-52,-178,178,-6,-21,165,118,19,-59,19,210,112,129,1,6907
79.590909004,-3,-1,-6,128,-3,7,117,-3,3,-63,47,35,-10,-18,169,118,19,-59,0,240,116,120,1,6908
79.608855962,-3,-1,-6,111,-4,12,119,-4,9,243,-106,110,-3,-31,173,118,19,-59,6,233,111,120,1,6909
79.61322093,-3,-1,-6,136,-2,13,123,-3,13,-101,74,81,-12,-33,181,118,19,-59,0,240,112,117,1,6910
79.626840114,-2,-1,-6,113,-8,11,125,-5,12,4,-143,112,-1,-38,186,118,29,21,1,238,109,123,1,6911
79.636058092,-1,-1,-6,92,-1,20,103,-4,15,187,151,23,3,-30,187,118,29,21,43,202,108,117,1,6912
79.644870042,-1,-1,-6,83,-5,23,88,-3,21,-68,154,157,-4,-25,186,118,29,21,54,195,109,113,1,6913
79.654951095,-1,-1,-6,86,-2,3,85,-3,13,29,96,6,0,-18,188,118,29,21,39,194,114,123,1,6914
79.665027141,-1,-1,-6,57,-7,-1,71,-4,1,-74,126,45,0,-14,188,118,26,-80,57,171,115,126,1,6915
79.673850059,-1,-1,-6,51,-3,1,54,-5,0,-26,-176,49,1,-16,191,118,26,-80,79,152,114,125,1,6916
79.68296504,-1,-1,-6,21,-5,13,36,-4,7,38,-164,65,1,-22,191,118,26,-80,100,140,112,118,1,6917
79.692830085,-1,-1,-5,0,0,5,11,-2,9,-233,136,182,-4,-21,191,118,26,-80,128,106,117,119,1,6918
79.720895052,-1,-1,-5,-16,0,7,-7,0,6,-146,26,199,-5,-16,188,118,24,-72,142,94,119,115,1,6919
79.730059146,-2,-1,-5,-58,-1,-6,-37,0,0,129,-81,144,0,-19,196,118,24,-72,173,52,121,124,1,6920
79.739084005,-2,-1,-5,-53,1,-9,-55,0,-8,89,36,198,0,-18,196,118,24,-72,180,42,124,124,1,6921
79.748831033,-3,-1,-6,-71,3,-9,-62,2,-9,57,20,170,7,-12,192,118,24,-72,177,45,128,120,1,6922
79.775951147,-3,-1,-6,-77,4,-12,-74,3,-10,-125,41,-36,2,0,186,118,21,-65,192,28,130,121,1,6923
79.78590703,-5,-1,-6,-78,3,-10,-78,4,-11,-38,-120,190,4,-8,187,118,21,-65,189,32,128,121,1,6924
79.794938087,-5,-1,-6,-79,4,-12,-78,3,-11,86,-52,60,2,-12,191,118,21,-65,187,33,129,122,1,6925
79.804015159,-5,-1,-6,-74,7,-22,-76,5,-17,-1,-117,86,-2,-23,196,118,21,-65,179,32,136,123,1,6926
79.821001052,-5,-1,-6,-62,0,-15,-68,3,-18,52,-212,131,1,-32,204,118,31,16,169,48,128,125,1,6927
79.831126928,-6,-1,-6,-55,0,5,-58,0,-4,58,-108,17,9,-36,205,118,31,16,167,66,114,123,1,6928
79.839926958,-6,0,-6,-41,4,-5,-48,1,0,54,-8,202,14,-39,210,118,31,16,152,73,125,120,1,6929
79.850785017,-7,0,-6,-31,-4,1,-36,0,-2,58,-68,24,23,-38,207,118,31,16,143,88,117,122,1,6930
79.880862951,-7,0,-6,-12,2,0,-21,-1,0,93,-77,166,25,-43,210,118,28,-85,126,103,118,123,1,6931
79.886034011,-7,0,-6,16,0,9,2,1,4,-144,-93,38,22,-49,207,118,28,-85,98,138,119,114,1,6932
79.895866155,-7,0,-6,31,-5,2,24,-2,5,-116,-131,224,18,-54,214,118,28,-85,78,153,113,126,1,6933
79.905014038,-7,0,-6,40,-5,2,35,-5,2,-79,-141,133,9,-63,220,118,28,-85,75,157,111,128,1,6934
79.932909011,-7,0,-6,56,-4,5,48,-4,4,78,74,113,6,-58,223,118,25,-77,63,171,113,123,1,6935
79.942090988,-6,0,-6,68,-3,0,62,-3,2,-35,-19,47,6,-60,235,118,25,-77,47,182,117,125,1,6936
79.951040983,-6,0,-6,66,-5,-1,67,-4,-1,-2,-126,173,15,-68,245,118,25,-77,49,179,115,127,1,6937
79.960863113,-6,0,-6,72,-1,1,69,-3,0,-199,-58,231,0,-66,249,118,25,-77,50,180,116,123,1,6938
79.98813796,-6,0,-6,67,-3,10,70,-2,6,-65,-104,251,9,-64,249,118,23,-69,54,184,114,118,1,6939
79.998022079,-5,0,-6,53,-8,5,60,-5,7,63,-45,167,15,-61,248,118,23,-69,70,164,108,128,1,6940
80.006904125,-5,0,-6,40,1,14,46,-3,10,-111,100,222,15,-50,250,118,23,-69,90,151,112,117,1,6941
80.016266107,-5,0,-6,43,0,2,41,0,8,105,-38,152,12,-47,253,118,23,-69,82,149,123,116,1,6942
80.044080019,-5,0,-6,23,0,12,33,0,7,94,51,28,12,-45,254,118,21,-63,97,142,114,116,1,6943
80.053097963,-5,0,-5,8,-1,3,15,0,7,-123,-32,57,11,-46,4,118,21,-63,118,114,116,121,1,6944
80.062901973,-5,0,-5,-9,0,10,0,-1,6,-120,-56,105,13,-52,2,118,21,-63,136,102,114,119,1,6945
80.072155952,-5,0,-5,-13,0,-1,-11,0,4,-21,-38,11,8,-53,5,118,21,-63,137,91,121,121,1,6946
80.100038051,-5,0,-5,-22,0,0,-18,0,0,115,5,101,12,-42,253,118,19,-57,140,90,120,120,1,6947
80.109038114,-6,0,-5,-39,1,-9,-31,0,-4,-114,-101,216,11,-46,251,118,19,-57,153,68,124,124,1,6948
80.11792016,-6,0,-6,-37,2,-13,-38,1,-11,-49,-103,28,4,-39,249,118,19,-57,154,65,126,124,1,6949
80.127942085,-7,0,-6,-40,2,-2,-38,2,-8,137,-104,141,16,-44,250,118,19,-57,153,74,123,120,1,6950
80.155838966,-7,0,-6,-38,3,-9,-39,2,-6,-18,-128,140,9,-43,244,118,17,-51,151,71,126,122,1,6951
80.164934158,-8,0,-6,-38,0,-11,-38,1,-10,139,88,25,8,-51,238,118,17,-51,149,71,125,125,1,6952
80.174149036,-8,0,-6,-32,2,-3,-35,1,-7,-114,145,177,13,-51,239,118,17,-51,148,79,121,122,1,6953
80.183105945,-8,1,-6,-29,1,0,-31,2,-1,201,8,137,11,-47,235,118,17,-51,144,85,122,119,1,6954
80.210924148,-8,1,-6,-17,4,2,-23,3,0,-199,-30,30,8,-51,229,118,15,-46,135,96,122,117,1,6955
80.221137046,-9,1,-6,-2,0,1,-9,2,1,101,62,84,11,-45,223,118,15,-46,117,114,120,120,1,6956
80.229948043,-9,1,-6,5,0,3,1,0,2,-5,-82,246,10,-43,221,118,15,-46,109,124,117,121,1,6957
80.239030122,-9,1,-6,7,0,6,6,0,5,-18,-110,15,15,-49,217,118,15,-46,110,124,116,119,1,6958
80.267148971,-9,1,-6,17,-5,4,12,-2,5,-197,-37,191,14,-57,217,118,14,-42,103,130,112,125,1,6959
80.277527093,-9,1,-6,35,-2,3,26,-3,3,-16,19,74,10,-55,215,118,14,-42,83,149,113,125,1,6960
80.285076141,-9,1,-6,37,-3,3,36,-2,3,39,-5,48,9,-56,218,118,14,-42,77,156,115,122,1,6961
80.295042038,-9,1,-6,46,-1,0,42,-2,1,-222,-49,131,-3,-64,217,118,14,-42,74,156,116,124,1,6962
80.322833061,-9,1,-6,44,-5,0,45,-3,0,223,14,216,4,-71,230,118,12,-38,72,158,114,126,1,6963
80.332008123,-8,1,-6,50,1,3,47,-2,2,-123,-17,91,2,-62,233,118,12,-38,73,160,116,121,1,6964
80.340927124,-8,1,-6,43,0,0,47,0,2,68,-31,114,2,-55,228,118,12,-38,74,156,122,119,1,6965
80.350950956,-8,1,-6,36,2,2,40,1,1,-76,-49,146,0,-47,223,118,12,-38,87,145,120,119,1,6966
80.378775119,-8,1,-6,29,-2,2,32,0,2,84,-80,70,1,-44,216,118,11,-34,94,138,117,121,1,6967
80.38790512,-7,1,-6,7,0,-3,18,-1,0,13,-187,68,-6,-46,217,118,11,-34,111,115,117,126,1,6968
80.401652097,-8,1,-6,5,1,16,6,0,6,136,-140,47,-4,-43,213,118,11,-34,129,114,114,113,1,6969
80.406929016,-8,0,-5,6,-1,4,5,0,10,84,39,249,-9,-40,212,118,11,-34,114,119,116,120,1,6970
80.433951139,-8,0,-5,-2,1,10,2,0,7,-61,70,195,-13,-30,206,118,10,-31,123,115,115,118,1,6971
80.443830967,-8,0,-5,-8,-3,-3,-5,-1,3,173,-50,18,-5,-29,212,118,10,-31,128,99,118,125,1,6972
80.453001022,-8,0,-5,-23,0,0,-15,-1,-1,39,-32,193,-1,-26,212,118,10,-31,142,88,117,123,1,6973
80.462424993,-8,0,-5,-21,0,-8,-22,0,-4,-64,-118,41,-1,-26,216,118,10,-31,141,81,125,123,1,6974
80.489973068,-8,0,-5,-28,2,-7,-25,1,-8,-100,-52,33,-6,-29,214,118,9,-28,141,82,124,123,1,6975
80.499289035,-9,0,-6,-20,2,-3,-24,2,-5,-80,2,62,-7,-28,208,118,9,-28,140,86,123,120,1,6976
80.508945941,-9,0,-6,-29,1,-3,-25,2,-3,-63,40,106,-8,-24,206,118,9,-28,141,86,122,121,1,6977
80.518121004,-9,0,-6,-20,1,-5,-24,1,-4,-85,-25,171,-5,-23,204,118,9,-28,139,86,123,122,1,6978
80.54598999,-9,0,-6,-22,0,-4,-21,1,-4,-29,226,104,-4,-15,201,118,8,-25,134,92,122,122,1,6979
80.554948091,-9,0,-6,-13,-1,-5,-18,0,-5,-56,37,207,-7,-13,195,118,8,-25,130,95,120,125,1,6980
80.563949108,-9,0,-6,-1,0,-6,-7,0,-6,172,14,11,0,-15,197,118,8,-25,114,110,121,125,1,6981
80.573864936,-9,0,-6,-4,0,0,-3,0,-2,60,-71,97,-1,-16,195,118,8,-25,118,113,119,121,1,6982
80.601877927,-8,0,-6,5,1,0,0,0,0,-164,-138,249,-8,-21,201,118,7,-23,114,114,121,120,1,6983
80.610953092,-8,0,-6,11,-3,7,8,-1,3,20,103,46,-4,-17,200,118,7,-23,107,129,114,121,1,6984
80.619982957,-8,0,-6,25,-1,-1,18,-2,3,-77,-122,108,-3,-19,207,118,7,-23,92,136,116,126,1,6985
80.629891157,-8,0,-6,23,1,5,24,0,2,-68,-124,243,-4,-21,206,118,7,-23,92,142,119,117,1,6986
80.65696311,-8,0,-6,29,-1,1,26,0,3,139,40,170,-4,-20,214,118,7,-21,91,139,119,121,1,6987
80.666900157,-7,0,-6,34,-2,6,32,-1,3,-142,26,163,-5,-17,213,118,7,-21,85,150,113,122,1,6988
80.677402973,-7,0,-6,25,0,0,30,-1,3,62,30,224,-2,-14,212,118,7,-21,91,138,118,123,1,6989
80.684992075,-6,0,-6,34,0,-4,29,0,-2,-141,-75,240,-9,-13,208,118,7,-21,87,139,121,123,1,6990
80.712845087,-6,0,-6,26,-2,0,30,-1,-2,86,-23,218,-6,-10,210,118,6,-19,87,142,117,123,1,6991
80.722233057,-6,0,-6,23,-2,0,25,-2,0,108,-54,226,-7,-14,215,118,6,-19,98,132,116,125,1,6992
80.731950998,-5,0,-6,10,0,4,17,-1,2,78,-37,165,-2,-18,214,118,6,-19,109,124,116,120,1,6993
80.74091506,-5,0,-6,13,0,-1,11,0,1,-44,-114,200,-8,-28,216,118,6,-19,110,119,121,121,1,6994
80.769030094,-5,0,-6,1,2,7,7,1,3,0,-8,172,-3,-27,219,118,5,-17,117,118,119,116,1,6995
80.777999162,-5,0,-5,-4,1,1,-1,1,4,-212,100,29,-11,-26,218,118,5,-17,126,105,121,118,1,6996
80.786921024,-6,0,-5,-11,1,0,-7,1,1,-147,-30,224,-15,-25,218,118,5,-17,130,100,120,120,1,6997
80.796855926,-6,0,-5,-9,0,0,-10,0,0,162,-35,68,-10,-23,225,118,5,-17,129,100,119,122,1,6998
80.824929952,-6,0,-5,-17,0,-4,-13,0,-2,178,-45,225,-1,-23,226,118,5,-15,131,95,120,123,1,6999
80.833919048,-6,0,-6,-17,1,0,-17,0,-1,83,-16,56,1,-24,226,118,5,-15,138,92,121,119,1,7000
80.843623161,-6,0,-6,-17,1,0,-17,1,0,-6,127,215,0,-21,223,118,5,-15,134,96,121,119,1,7001
80.8532691,-6,0,-5,-19,0,5,-18,0,2,65,228,246,7,-14,226,118,5,-15,137,97,117,119,1,7002
80.88008809,-6,0,-5,-15,1,0,-17,0,2,-23,72,139,-5,-13,218,118,4,-14,133,97,120,120,1,7003
80.889914989,-6,0,-5,-10,0,-1,-13,1,0,-6,111,47,-2,-9,210,118,4,-14,126,103,122,120,1,7004
80.89887309,-6,0,-5,-7,4,0,-9,2,0,-98,-64,119,-6,-10,211,118,4,-14,123,107,123,117,1,7005
80.90794897,-6,0,-6,-7,0,-5,-7,2,-2,92,-67,74,-2,-11,209,118,4,-14,121,105,123,121,1,7006
80.935963153,-6,0,-6,-4,-2,-1,-5,-1,-3,-21,40,32,-4,-8,214,118,4,-12,121,108,116,126,1,7007
80.945014953,-6,0,-6,4,0,3,0,0,0,7,-31,137,-5,-4,216,118,4,-12,114,118,118,120,1,7008
80.954905033,-6,0,-5,9,-2,4,6,0,3,146,68,1,-4,1,215,118,4,-12,107,126,117,120,1,7009
80.963910102,-5,0,-5,9,-1,3,9,-1,3,-146,29,244,-10,0,215,118,4,-12,108,125,116,122,1,7010
80.992013931,-5,0,-5,14,-5,2,11,-3,3,-85,15,176,-11,0,221,118,3,-11,105,127,114,124,1,7011
81.001058101,-5,0,-5,19,2,0,16,-1,1,-19,17,253,-22,1,220,118,3,-11,96,133,120,121,1,7012
81.011173963,-4,0,-5,21,-3,0,20,0,0,190,-102,8,-18,0,222,118,3,-11,95,135,120,121,1,7013
81.019860029,-4,-1,-5,20,-1,3,20,-2,1,64,12,225,-15,2,220,118,3,-11,98,134,114,124,1,7014
81.047212123,-4,-1,-5,14,0,0,17,0,2,-1,48,40,-12,5,214,118,3,-10,103,127,121,119,1,7015
81.05689001,-4,-1,-5,15,1,-3,15,0,-1,-12,-111,110,-11,2,215,118,3,-10,102,124,123,120,1,7016
81.065905094,-3,-1,-5,9,0,6,12,0,1,4,-108,173,-9,-1,217,118,3,-10,110,125,117,118,1,7017
81.074965,-3,-1,-5,14,-2,5,11,-1,5,35,-82,0,-6,-2,219,118,3,-10,108,126,114,122,1,7018
81.102915048,-3,-1,-5,6,-1,4,10,-2,5,68,21,211,-4,-8,222,118,3,-9,109,124,116,121,1,7019
81.112885952,-3,-1,-5,1,0,1,3,0,3,-50,164,234,-3,-4,222,118,3,-9,119,112,119,120,1,7020
81.12195611,-3,-1,-5,-3,0,4,-1,0,2,-73,68,15,-10,-3,222,118,3,-9,123,110,118,118,1,7021
81.130943059,-3,-1,-5,-6,-2,1,-5,-1,3,249,160,26,-5,2,227,118,3,-9,125,106,117,121,1,7022
81.158972978,-3,-1,-5,-10,0,-6,-8,0,-2,-246,77,109,-7,7,223,118,2,-8,125,100,122,123,1,7023
81.167907953,-3,-1,-6,-12,0,-12,-11,0,-9,-1,-138,160,-7,1,220,118,2,-8,125,95,125,125,1,7024
81.176846027,-3,-1,-6,-16,0,0,-14,0,-5,-130,-118,237,-9,1,217,118,2,-8,132,98,119,121,1,7025
81.18682003,-3,-1,-6,-13,4,0,-14,2,0,-43,-4,149,-8,4,214,118,2,-8,131,99,124,116,1,7026
81.215074062,-3,-1,-6,-15,1,-2,-14,3,0,96,-21,3,-9,3,210,118,2,-7,129,99,124,118,1,7027
81.22607398,-3,-1,-6,-21,0,4,-18,1,0,-84,168,156,-8,6,210,118,2,-7,138,94,118,119,1,7028
81.232989072,-3,-1,-6,-13,-1,-2,-17,0,0,17,100,125,-9,8,208,118,2,-7,131,97,119,124,1,7029
81.243042945,-3,-1,-6,-15,0,4,-14,0,0,-28,145,238,-6,14,207,118,2,-7,129,103,118,119,1,7030
81.269962072,-3,-1,-5,-11,-1,1,-13,0,2,202,27,187,-3,15,213,118,2,-7,129,102,119,120,1,7031
81.279881954,-3,-1,-5,-5,0,0,-8,0,1,-45,-34,241,-7,15,213,118,2,-7,120,110,119,122,1,7032
81.288955926,-2,-1,-5,1,-1,-4,-2,-1,-2,190,-103,89,-4,14,218,118,2,-7,111,115,120,124,1,7033
81.29787898,-2,-1,-5,3,0,0,2,-1,-2,-171,-105,118,-7,14,222,118,2,-7,110,119,119,122,1,7034
81.326004028,-2,-1,-5,3,0,0,3,0,0,2,-4,231,-7,8,224,118,2,-6,111,119,121,119,1,7035
81.335065126,-2,-1,-5,10,-1,1,7,0,0,-114,-37,207,-5,4,228,118,2,-6,106,125,118,121,1,7036
81.344820976,-1,-1,-5,6,1,10,8,0,5,66,-36,184,0,4,227,118,2,-6,111,127,116,117,1,7037
81.353904962,-1,-1,-5,12,-2,3,9,0,6,219,14,22,1,12,226,118,2,-6,108,125,118,120,1,7038
81.381855964,-1,-1,-5,8,0,9,10,0,6,-172,235,179,-7,19,225,118,1,-5,108,129,115,118,1,7039
81.390911102,-1,-1,-5,11,-1,-3,9,0,2,179,47,204,-4,20,222,118,1,-5,105,122,121,122,1,7040
81.400038957,-1,-1,-5,9,2,-1,10,0,-2,-9,-65,247,-11,15,223,118,1,-5,105,123,122,120,1,7041
81.410020113,0,-1,-5,4,0,6,6,1,2,139,-175,224,-9,5,223,118,1,-5,114,121,119,116,1,7042
81.439762115,0,-1,-5,3,-1,-2,3,0,2,4,-92,57,-2,1,227,118,1,-5,113,115,119,123,1,7043
81.446942091,-1,-1,-5,-32,2,-3,-14,0,-2,210,40,15,2,0,232,118,1,-5,143,83,123,120,1,7044
81.456050157,-1,-1,-5,-39,0,-3,-36,0,-3,-72,-21,235,3,1,235,118,1,-5,166,61,122,121,1,7045
81.465153932,-1,-1,-5,-46,4,0,-43,1,-1,-68,136,164,0,6,238,118,1,-5,162,67,122,119,1,7046
81.492927074,-1,-1,-5,-68,1,-1,-57,2,0,224,66,23,5,6,237,118,1,-4,181,47,124,118,1,7047
81.502404928,-2,-1,-6,-71,1,-9,-69,1,-5,-241,-63,92,0,5,230,118,1,-4,188,34,124,124,1,7048
81.511893987,-2,-1,-6,-71,1,-15,-71,1,-12,16,-213,78,2,-1,232,118,1,-4,179,38,128,125,1,7049
81.520853042,-3,-1,-6,-58,3,-8,-65,2,-11,-108,-23,53,3,-2,233,118,1,-4,170,53,127,121,1,7050
81.548949003,-3,-1,-6,-58,4,-7,-58,4,-7,141,-179,38,9,-7,230,118,1,-4,163,60,127,119,1,7051
81.557896137,-4,0,-6,-47,-1,-9,-53,1,-8,-90,-118,63,13,-10,225,118,1,-4,158,63,123,125,1,7052
81.567209005,-4,0,-6,-49,3,-5,-48,1,-7,-4,-59,25,9,-9,226,118,1,-4,156,69,123,122,1,7053
81.576997041,-4,0,-6,-51,0,-1,-50,1,-3,-25,150,100,6,-6,223,118,1,-4,165,63,122,120,1,7054
81.605005025,-4,0,-6,-57,5,0,-54,2,0,120,62,29,9,-5,229,118,1,-3,172,57,122,118,1,7055
81.613919019,-5,0,-6,-48,0,-1,-53,3,0,-92,-31,144,7,-3,230,118,1,-3,165,63,124,118,1,7056
81.623090982,-5,0,-6,-67,3,-1,-58,2,-1,169,2,132,12,0,235,118,1,-3,175,53,121,120,1,7057
81.632903099,-6,0,-6,-58,3,-15,-63,3,-8,-29,-243,254,10,-4,235,118,1,-3,175,42,130,123,1,7058
81.644081115,-6,0,-6,-66,2,-9,-62,2,-12,89,-91,45,10,-7,237,118,3,64,172,50,126,123,1,7059
81.656717062,-6,0,-6,-70,5,-9,-68,4,-9,-28,-243,98,11,-18,234,118,3,64,183,38,128,120,1,7060
81.663247108,-6,0,-6,-46,1,-7,-58,3,-8,-220,21,-61,7,-19,225,118,3,64,162,61,126,121,1,7061
81.672218084,-6,0,-6,-69,3,-13,-58,2,-10,9,0,111,1,-23,221,118,3,64,167,52,127,125,1,7062
81.699968099,-6,0,-6,-44,1,-13,-57,2,-13,-240,-123,118,1,-28,221,118,3,-9,165,53,127,124,1,7063
81.708831071,-8,0,-6,-64,5,0,-54,3,-7,-16,-29,182,1,-25,222,118,3,-9,167,62,124,117,1,7064
81.719141006,-8,0,-6,-58,4,-7,-61,4,-4,32,-39,106,5,-29,225,118,3,-9,178,44,128,119,1,7065
81.728018999,-8,0,-6,-60,0,-7,-59,2,-7,-28,-50,79,6,-31,223,118,3,-9,170,53,122,125,1,7066
81.755825996,-8,0,-6,-68,4,-4,-64,2,-6,3,-4,127,3,-37,220,118,2,-8,181,44,124,121,1,7067
81.765083074,-10,0,-7,-46,2,-13,-57,3,-9,-33,-139,101,5,-44,219,118,2,-8,161,57,129,122,1,7068
81.77396202,-10,0,-7,-58,4,-3,-52,3,-8,224,108,35,10,-44,223,118,2,-8,162,64,124,120,1,7069
81.783848047,-10,0,-7,-45,-1,-8,-51,1,-6,73,-134,185,12,-51,228,118,2,-8,164,58,123,126,1,7070
81.811917066,-10,0,-7,-58,4,0,-51,1,-4,114,-108,243,10,-54,223,118,2,-7,167,61,121,121,1,7071
81.820937156,-12,0,-7,-48,5,-5,-53,4,-2,-8,-190,184,11,-58,221,118,2,-7,168,56,129,117,1,7072
81.829873085,-12,0,-7,-41,1,-10,-44,3,-7,-128,-26,-53,3,-56,211,118,2,-7,150,70,125,124,1,7073
81.839832067,-12,0,-7,-56,8,-6,-48,4,-8,-22,21,71,7,-53,204,118,2,-7,166,57,128,119,1,7074
81.86698699,-12,0,-7,-30,1,-6,-43,4,-6,-144,-141,157,3,-50,202,118,2,-7,154,70,127,120,1,7075
81.876909017,-13,1,-7,-34,4,-1,-32,3,-3,139,-109,27,9,-52,204,118,2,-7,141,87,122,121,1,7076
81.886018037,-13,1,-7,-29,2,-5,-32,3,-3,94,-50,109,10,-59,208,118,2,-7,147,77,126,120,1,7077
81.894959926,-13,1,-7,-17,-2,-5,-23,0,-5,-12,-155,150,4,-70,205,118,2,-7,132,92,119,127,1,7078
81.923099994,-14,1,-7,-7,-1,-1,-12,-1,-3,153,-19,152,12,-82,205,118,2,-6,122,105,117,127,1,7079
81.932038068,-13,1,-7,38,0,3,15,0,1,-20,-87,71,7,-86,201,118,2,-6,84,148,119,120,1,7080
81.941885948,-14,1,-7,44,1,-2,41,1,0,32,-70,134,15,-86,198,118,2,-6,57,169,123,121,1,7081
81.950911045,-14,1,-7,53,-1,3,49,0,0,37,-109,131,12,-84,196,118,2,-6,68,163,117,122,1,7082
81.979010105,-14,1,-7,84,-2,0,68,-1,1,-130,-35,23,9,-83,195,118,1,-5,38,190,116,125,1,7083
81.988029956,-12,1,-7,97,0,5,91,-1,2,126,-65,23,7,-85,195,118,1,-5,17,216,116,121,1,7084
81.996925115,-12,1,-7,100,-5,-1,99,-3,1,-51,-20,242,7,-92,196,118,1,-5,18,209,115,128,1,7085
82.006926059,-12,1,-7,95,-1,2,97,-3,0,-1,-61,143,9,-97,201,118,1,-5,28,202,114,125,1,7086
82.024002075,-12,1,-7,89,-4,-1,92,-3,0,-54,-72,191,2,-107,206,118,13,73,35,192,117,125,1,7087
82.03393507,-11,1,-7,90,-4,18,89,-4,8,184,47,18,13,-104,210,118,13,73,43,200,106,120,1,7088
82.042917966,-11,1,-7,82,-1,10,86,-3,14,14,125,-181,6,-95,197,118,13,73,44,193,113,120,1,7089
82.053679943,-12,1,-7,50,-5,12,66,-3,11,38,-33,207,16,-96,195,118,13,73,77,162,110,121,1,7090
82.079971075,-12,1,-7,69,-5,-4,60,-5,4,-137,-3,35,9,-91,195,118,12,-36,66,160,114,131,1,7091
82.088950157,-11,1,-7,25,0,2,47,-2,0,72,186,243,13,-84,199,118,12,-36,86,145,117,122,1,7092
82.09880805,-11,1,-7,3,-1,13,14,0,8,-49,192,202,12,-77,197,118,12,-36,139,101,114,116,1,7093
82.108441114,-12,1,-7,4,-4,6,3,-2,10,23,-242,41,13,-87,202,118,12,-36,127,107,112,124,1,7094
82.135818958,-12,1,-7,-18,-4,1,-7,-4,3,0,-16,4,10,-95,201,118,11,-33,136,94,113,128,1,7095
82.145040988,-13,1,-7,-38,-1,-3,-28,-3,-1,84,-123,174,15,-98,202,118,11,-33,163,63,119,126,1,7096
82.153936147,-14,1,-7,-41,2,-11,-40,0,-7,3,-151,132,11,-102,196,118,11,-33,162,57,128,123,1,7097
82.164160013,-14,1,-7,-43,2,-9,-42,2,-10,146,-190,226,15,-100,195,118,11,-33,159,62,127,122,1,7098
82.19198203,-15,1,-7,-42,3,-9,-43,2,-9,-111,-20,7,10,-99,188,118,9,-29,158,63,126,123,1,7099
82.205665111,-16,1,-7,-37,5,-8,-40,4,-9,148,-80,81,14,-94,187,118,9,-29,152,69,128,120,1,7100
82.210088968,-16,1,-7,-40,0,-7,-39,3,-8,-10,-212,78,20,-100,191,118,9,-29,154,68,124,124,1,7101
82.219839096,-17,2,-7,-30,3,-10,-35,1,-9,212,-116,53,25,-103,196,118,9,-29,147,73,124,126,1,7102
82.247108936,-17,2,-7,-24,3,-8,-27,3,-9,-98,-104,189,28,-103,198,118,9,-27,137,85,126,122,1,7103
82.256901979,-18,2,-7,0,-1,-5,-11,0,-6,32,-103,3,30,-105,199,118,9,-27,117,107,120,127,1,7104
82.266093969,-18,2,-7,5,-3,0,3,-2,-2,-7,-49,215,29,-98,196,118,9,-27,106,123,113,128,1,7105
82.27493596,-18,2,-7,22,-2,1,14,-2,0,33,-73,162,30,-99,198,118,9,-27,99,130,116,125,1,7106
82.303082943,-18,2,-7,26,-4,14,24,-3,7,-162,-109,133,26,-95,198,118,8,-24,95,145,110,121,1,7107
82.312175035,-18,2,-7,48,-2,8,37,-3,11,108,-62,18,30,-93,202,118,8,-24,78,157,112,123,1,7108
82.322284936,-18,2,-7,56,-2,5,52,-2,7,-49,-104,55,23,-99,203,118,8,-24,61,172,115,123,1,7109
82.331586122,-18,3,-7,52,-3,11,54,-2,8,9,-168,27,21,-99,193,118,8,-24,73,165,111,121,1,7110
82.358999013,-18,3,-7,68,-4,4,60,-3,8,-203,-134,251,13,-100,193,118,7,-22,61,171,113,125,1,7111
82.367933988,-17,3,-7,52,-1,2,60,-2,3,65,66,81,15,-94,190,118,7,-22,64,166,116,124,1,7112
82.376953125,-17,3,-7,65,-4,-7,59,-2,-2,-193,112,69,13,-90,200,118,7,-22,63,159,119,129,1,7113
82.386779069,-17,3,-7,35,-2,5,50,-3,-1,-10,-137,152,14,-94,202,118,7,-22,82,150,113,124,1,7114
82.414803028,-17,3,-7,54,-2,-7,44,-2,0,28,-11,160,18,-91,208,118,6,-20,80,143,120,127,1,7115
82.423979997,-16,3,-7,21,1,16,37,0,4,-133,249,14,11,-82,201,118,6,-20,97,144,113,116,1,7116
82.433035135,-16,3,-7,24,0,7,22,0,11,70,41,100,11,-73,201,118,6,-20,115,120,116,119,1,7117
82.442832946,-16,3,-7,17,0,0,20,0,4,-222,67,216,5,-68,203,118,6,-20,103,126,116,124,1,7118
82.472278118,-16,3,-7,12,-4,5,14,-2,3,11,-238,168,8,-67,210,118,6,-18,114,119,113,124,1,7119
82.480057954,-16,2,-6,-7,0,2,2,-2,3,-35,70,111,8,-63,211,118,6,-18,130,100,116,123,1,7120
82.488997936,-16,2,-6,-9,-1,0,-8,0,1,-19,-35,93,6,-62,210,118,6,-18,139,91,119,122,1,7121
82.49814105,-16,2,-6,-21,0,7,-15,-1,4,-74,192,209,4,-54,212,118,6,-18,144,91,114,121,1,7122
82.525938987,-16,2,-6,-14,0,0,-18,0,4,-86,-212,33,5,-59,212,118,5,-16,140,89,119,122,1,7123
82.534871101,-17,2,-6,-26,1,-1,-20,0,0,-66,-80,216,0,-59,210,118,5,-16,142,86,120,122,1,7124
82.544779062,-17,2,-6,-12,1,-1,-19,1,-1,-105,70,108,0,-50,213,118,5,-16,138,90,121,121,1,7125
82.553873062,-17,2,-6,-21,0,0,-17,0,0,108,-3,155,1,-49,207,118,5,-16,135,93,119,123,1,7126
82.581880092,-17,2,-6,-15,1,-6,-18,0,-3,41,-62,203,4,-42,201,118,4,-14,137,86,122,125,1,7127
82.590925931,-17,2,-7,-1,0,-2,-8,1,-4,8,-157,249,0,-47,200,118,4,-14,120,107,121,122,1,7128
82.600100994,-17,2,-7,0,0,-1,0,0,-1,32,-195,251,0,-55,211,118,4,-14,114,113,118,124,1,7129
82.610002994,-17,2,-7,9,1,-4,4,0,-2,75,-195,100,-5,-60,215,118,4,-14,110,115,121,124,1,7130
82.637906074,-16,2,-7,10,-1,-3,9,0,-3,101,-187,182,0,-64,212,118,4,-13,106,120,119,125,1,7131
82.647006034,-16,2,-7,27,-3,6,18,-2,1,105,-104,115,1,-71,209,118,4,-13,97,136,112,124,1,7132
82.655951976,-16,2,-7,23,-2,8,25,-2,7,30,50,220,3,-75,210,118,4,-13,94,142,113,122,1,7133
82.665871143,-16,2,-7,37,-1,8,30,-2,8,-222,-11,37,-2,-69,209,118,4,-13,91,144,114,120,1,7134
82.696073055,-16,2,-7,37,0,7,37,0,7,-30,26,214,-3,-62,208,118,4,-12,83,152,116,119,1,7135
82.703474044,-15,1,-6,36,-5,5,36,-2,6,23,-3,161,-4,-59,214,118,4,-12,88,145,113,124,1,7136
82.711965084,-15,1,-6,42,-1,6,39,-3,5,-6,-55,107,-5,-56,220,118,4,-12,83,151,113,123,1,7137
82.72094798,-15,1,-6,36,0,1,39,0,4,167,13,163,-4,-51,219,118,4,-12,84,146,119,121,1,7138
82.749014139,-15,1,-6,33,2,-1,34,0,0,-191,-49,171,-6,-52,223,118,3,-11,90,137,122,121,1,7139
82.758088111,-14,1,-6,24,0,5,28,0,1,58,-128,135,-2,-53,224,118,3,-11,100,133,117,120,1,7140
82.767910957,-14,1,-6,19,0,-5,21,0,0,12,-40,8,-1,-49,229,118,3,-11,103,121,119,126,1,7141
82.777148962,-14,1,-6,17,0,-4,18,0,-4,33,-181,210,-6,-51,226,118,3,-11,104,122,122,123,1,7142
82.804914951,-14,1,-6,12,0,0,14,0,-1,-152,0,31,-7,-48,229,118,3,-9,109,120,119,121,1,7143
82.815318107,-13,1,-6,-2,2,-1,4,0,0,143,-150,120,-4,-49,225,118,3,-9,123,105,121,121,1,7144
82.822930097,-13,1,-6,-3,0,-3,-2,1,-2,59,-89,246,-3,-50,226,118,3,-9,127,98,122,122,1,7145
82.833086967,-13,1,-6,-9,0,3,-6,0,0,-34,-23,162,-4,-49,226,118,3,-9,130,102,117,122,1,7146
82.860815048,-13,1,-6,-8,0,-3,-8,0,0,-209,-85,233,-6,-48,228,118,3,-9,129,97,119,124,1,7147
82.870109081,-14,0,-6,-17,0,-4,-12,0,-3,35,-99,6,-7,-49,228,118,3,-9,134,92,120,124,1,7148
82.879009008,-14,0,-6,-10,1,0,-14,0,-1,-22,-1,54,-7,-47,222,118,3,-9,134,95,120,121,1,7149
82.888869047,-14,0,-6,-16,2,3,-13,1,2,19,109,145,-6,-40,225,118,3,-9,134,98,121,117,1,7150
82.915944099,-13,0,-6,-6,2,0,-11,2,1,-77,7,120,-3,-36,221,118,2,-8,129,100,122,119,1,7151
82.925920963,-13,0,-6,-4,0,-3,-5,1,-1,-108,-164,36,-8,-42,227,118,2,-8,119,107,122,123,1,7152
82.934967041,-13,0,-6,0,-2,-5,-2,0,-4,104,-219,71,0,-50,227,118,2,-8,117,108,119,127,1,7153
82.944139957,-13,0,-6,0,0,-3,0,-1,-4,23,-108,8,0,-49,230,118,2,-8,115,110,119,125,1,7154
82.971887111,-13,0,-6,5,0,2,3,0,0,35,-8,28,0,-49,226,118,2,-7,116,115,118,121,1,7155
82.980941057,-13,0,-6,20,1,0,13,0,1,-92,29,234,1,-55,232,118,2,-7,99,130,120,121,1,7156
82.990086078,-13,0,-6,17,-1,5,19,0,2,90,-24,120,1,-57,226,118,2,-7,99,134,117,120,1,7157
83.00092411,-13,0,-6,22,-1,5,19,-1,5,-16,-147,128,7,-62,224,118,2,-7,102,131,114,122,1,7158
83.027960062,-13,0,-6,21,0,5,21,0,5,49,74,152,1,-54,217,118,2,-6,100,134,117,120,1,7159
83.037001133,-12,0,-6,29,-5,0,25,-2,2,77,-58,169,4,-57,225,118,2,-6,93,136,115,126,1,7160
83.045943021,-12,0,-6,24,0,8,26,-3,4,-55,132,253,3,-53,229,118,2,-6,96,140,113,122,1,7161
83.055978059,-12,0,-6,30,-4,6,27,-2,7,-22,7,40,4,-51,231,118,2,-6,95,139,115,121,1,7162
83.08288908,-12,0,-6,29,0,10,30,-1,8,33,-27,218,7,-47,229,118,2,-6,93,144,114,119,1,7163
83.093054056,-11,0,-6,25,-2,1,27,0,6,-19,-37,104,8,-46,226,118,2,-6,96,134,119,121,1,7164
83.102102994,-11,0,-6,23,1,4,24,0,3,18,-101,51,12,-50,225,118,2,-6,101,132,117,120,1,7165
83.111145019,-11,0,-6,16,0,3,19,0,4,186,-64,169,14,-51,225,118,2,-6,105,126,119,120,1,7166
83.139187097,-11,0,-6,10,0,-5,13,0,-1,71,-85,245,14,-52,226,118,1,-5,109,115,121,125,1,7167
83.148093938,-11,0,-6,1,0,4,6,0,0,192,-202,210,19,-53,225,118,1,-5,121,111,119,119,1,7168
83.158064127,-11,0,-6,1,0,0,1,0,1,-6,-36,205,18,-49,224,118,1,-5,121,107,120,122,1,7169
83.166904926,-11,1,-6,-1,3,-2,0,1,-1,139,-216,157,20,-50,219,118,1,-5,119,108,123,120,1,7170
83.194994926,-11,1,-6,-2,1,-2,-2,2,-2,-99,0,11,15,-45,221,118,1,-4,122,105,123,120,1,7171
83.203830957,-11,1,-6,-15,0,1,-9,0,0,119,-23,47,15,-43,226,118,1,-4,134,96,118,122,1,7172
83.213948965,-11,1,-6,-4,0,-1,-10,0,0,-59,4,128,13,-44,224,118,1,-4,129,98,119,123,1,7173
83.222862958,-11,1,-6,-12,0,-3,-8,0,-2,51,217,217,19,-38,222,118,1,-4,124,102,121,123,1,7174
83.250929117,-11,1,-6,-10,0,-3,-11,0,-3,-49,111,100,19,-36,219,118,1,-4,130,95,121,123,1,7175
83.260159015,-11,1,-6,-3,1,0,-7,1,-1,-114,53,231,16,-35,214,118,1,-4,123,107,120,120,1,7176
83.269143104,-11,1,-6,-6,0,0,-4,0,0,-21,30,63,15,-33,213,118,1,-4,122,107,119,122,1,7177
83.278941154,-11,1,-6,-3,0,-1,-4,0,0,-45,-138,5,10,-36,216,118,1,-4,123,105,119,123,1,7178
83.306041956,-11,1,-6,-3,-3,1,-3,-1,0,152,-30,132,18,-36,221,118,1,-4,122,108,116,124,1,7179
83.316000938,-11,1,-6,5,1,-2,1,0,0,-74,-51,127,9,-34,221,118,1,-4,113,114,120,123,1,7180
83.324820041,-11,1,-6,8,0,2,7,1,0,-20,101,30,8,-30,215,118,1,-4,108,122,121,118,1,7181
83.333975076,-11,1,-6,14,1,0,11,1,1,-106,46,142,4,-25,213,118,1,-4,105,125,119,121,1,7182
83.361904144,-11,1,-6,10,-2,3,12,0,2,74,-120,102,10,-28,209,118,1,-3,107,124,116,123,1,7183
83.371606111,-10,1,-6,15,-3,1,12,-2,2,45,40,35,8,-23,213,118,1,-3,107,123,114,126,1,7184
83.380785942,-10,1,-6,17,0,2,16,-1,1,-18,15,211,6,-20,212,118,1,-3,101,130,118,121,1,7185
83.38994193,-10,1,-6,18,0,-1,18,0,0,21,171,86,7,-16,217,118,1,-3,99,129,120,122,1,7186
83.418138027,-10,1,-6,11,1,4,14,0,1,-239,62,241,6,-12,217,118,1,-3,109,124,118,120,1,7187
83.427091121,-9,1,-6,12,0,-3,12,0,0,57,8,173,7,-9,214,118,1,-3,108,118,121,122,1,7188
83.435935974,-9,1,-6,7,0,-4,10,0,-4,-166,-45,0,3,-10,220,118,1,-3,109,116,121,124,1,7189
83.446057081,-9,1,-6,11,0,-5,9,0,-5,108,-198,1,6,-18,222,118,1,-3,107,117,121,125,1,7190
83.472829103,-9,1,-6,9,-3,-2,10,-1,-4,83,-98,38,10,-21,227,118,1,-3,106,121,117,126,1,7191
83.482949018,-8,1,-6,0,1,5,5,0,1,-27,68,174,12,-15,224,118,1,-3,120,114,117,120,1,7192
83.492429971,-8,1,-6,4,-2,0,2,0,2,-18,-69,136,8,-11,219,118,1,-3,117,111,119,123,1,7193
83.500957965,-8,1,-6,-2,-2,4,0,-2,1,104,-15,241,11,-9,218,118,1,-3,120,112,113,124,1,7194
83.529058933,-8,1,-6,0,0,-2,-1,-1,0,-8,54,231,9,-7,217,118,0,-2,120,108,119,124,1,7195
83.537969112,-8,1,-6,-3,0,0,-1,0,0,156,-32,124,16,-9,221,118,0,-2,120,110,120,121,1,7196
83.547806024,-8,2,-6,-3,0,-1,-3,0,0,67,91,219,15,-6,223,118,0,-2,122,106,121,121,1,7197
83.556971073,-7,2,-6,-8,2,1,-5,1,0,-17,83,78,15,0,222,118,0,-2,126,104,120,120,1,7198
83.584941148,-7,2,-6,-5,0,1,-6,1,1,24,104,255,14,0,225,118,0,-2,125,105,119,121,1,7199
83.594009161,-7,2,-6,-5,1,-4,-5,1,-1,-42,2,207,11,1,219,118,0,-2,119,106,121,123,1,7200
83.603067159,-7,2,-6,-9,1,-4,-7,1,-4,-59,-59,201,11,-3,218,118,0,-2,124,101,123,122,1,7201
83.613146066,-7,2,-6,-3,-1,4,-6,0,0,-16,-123,246,11,-12,217,118,0,-2,124,108,116,122,1,7202
83.639940023,-7,2,-6,-5,-2,2,-4,-1,3,141,-8,80,14,-12,220,118,0,-2,121,110,114,125,1,7203
83.649929046,-7,2,-6,-1,0,0,-3,-1,1,37,2,203,16,-11,222,118,0,-2,120,109,118,123,1,7204
83.658864975,-6,2,-6,2,0,-1,0,0,0,-27,142,109,14,-5,217,118,0,-2,113,115,120,122,1,7205
83.667998075,-6,2,-6,3,0,3,2,0,1,38,200,55,11,1,221,118,0,-2,114,118,117,121,1,7206
83.696079969,-6,2,-6,2,1,0,2,0,2,-31,-95,18,8,1,221,118,0,-2,115,115,119,121,1,7207
83.705666065,-6,2,-6,2,-1,2,2,0,1,101,-52,200,6,4,221,118,0,-2,116,115,116,123,1,7208
83.714784145,-5,2,-6,11,2,-4,7,0,-1,-68,-178,211,4,1,221,118,0,-2,104,121,122,123,1,7209
83.724193096,-5,2,-6,4,0,0,8,1,-2,91,-76,13,3,4,224,118,0,-2,108,120,121,120,1,7210
83.751857042,-5,2,-6,10,0,2,7,0,0,-71,-14,206,4,4,223,118,0,-1,111,120,116,123,1,7211
83.761037111,-5,2,-6,8,1,5,9,0,4,71,15,138,3,11,218,118,0,-1,108,125,117,119,1,7212
83.769900083,-4,2,-6,6,-3,-5,7,0,0,-94,43,252,2,19,222,118,0,-1,109,115,119,126,1,7213
83.779848098,-4,2,-6,8,-1,-1,7,-2,-3,-56,-88,255,0,11,222,118,0,-1,109,119,116,127,1,7214
83.806936025,-4,2,-6,6,-4,-2,7,-2,-2,157,-7,167,4,8,231,118,0,-1,108,119,117,126,1,7215
83.817060947,-3,2,-6,9,2,0,7,-1,0,-79,-90,252,5,5,231,118,0,-1,109,121,119,121,1,7216
83.826003074,-3,2,-6,0,0,0,4,0,0,53,-100,229,13,1,229,118,0,-1,114,115,121,120,1,7217
83.834921121,-3,2,-6,3,2,0,2,1,0,12,38,179,15,6,227,118,0,-1,116,112,120,121,1,7218
83.862894058,-3,2,-6,-3,1,0,0,2,0,56,-90,12,12,4,217,118,0,-1,118,111,122,119,1,7219
83.872061014,-3,2,-6,-3,1,-4,-3,1,-2,0,-209,2,14,0,221,118,0,-1,120,106,121,123,1,7220
83.88193202,-3,2,-6,-5,1,4,-4,1,0,-40,91,37,14,0,227,118,0,-1,123,110,119,119,1,7221
83.890912056,-3,2,-6,-7,-1,5,-6,0,4,-87,163,53,14,3,231,118,0,-1,126,107,115,121,1,7222
83.918904066,-3,2,-6,-4,0,6,-6,0,5,-59,40,248,11,7,235,118,0,-1,124,110,114,122,1,7223
83.927874088,-3,2,-6,-7,1,-7,-6,0,0,-27,20,158,9,6,232,118,0,-1,119,105,124,123,1,7224
83.937080144,-2,2,-6,-4,1,-4,-5,1,-5,-18,-85,201,9,4,231,118,0,-1,120,106,122,122,1,7225
83.946821928,-2,2,-6,-5,0,-5,-5,0,-5,200,-52,147,14,-1,227,118,0,-1,117,107,121,125,1,7226
83.974100112,-2,2,-6,-7,-2,1,-6,0,-1,-219,80,12,14,0,227,118,0,-1,124,107,115,124,1,7227
83.983849048,-2,2,-6,-2,0,-2,-4,0,0,-11,-46,189,12,-2,228,118,0,-1,118,109,119,124,1,7228
83.992814064,-2,2,-6,0,-2,-2,-1,0,-2,-146,-89,183,13,-3,226,118,0,-1,113,114,119,124,1,7229
84.002074956,-2,2,-6,-1,1,6,0,0,2,-56,56,255,9,3,226,118,0,-1,118,116,116,120,1,7230
84.030153036,-2,2,-6,0,-1,1,0,0,3,222,159,208,12,9,224,118,0,-1,117,113,119,122,1,7231
84.038943052,-2,2,-6,0,0,-2,0,0,0,25,-64,200,13,6,224,118,0,-1,114,113,119,124,1,7232
84.04797101,-2,2,-6,6,0,-5,3,0,-3,153,23,244,18,8,227,118,0,-1,107,118,121,125,1,7233
84.057959079,-2,2,-6,4,0,-4,5,0,-5,-184,-101,32,11,6,228,118,0,-1,106,119,120,125,1,7234
84.08594203,-2,2,-6,9,-2,-6,7,-1,-5,-15,-18,65,10,-1,230,118,0,-1,105,119,119,127,1,7235
84.094902992,-1,2,-6,8,1,3,8,0,-1,-188,-17,62,2,-1,222,118,0,-1,107,125,117,121,1,7236
84.10406208,-1,2,-6,9,0,4,8,0,3,-38,31,177,0,-2,221,118,0,-1,108,124,119,119,1,7237
84.113758087,-1,2,-6,10,-3,-1,9,-1,1,83,-21,101,2,-5,222,118,0,-1,104,123,116,126,1,7238
84.141101121,-1,2,-6,0,0,5,5,-1,1,52,103,187,2,-5,220,118,0,0,116,117,115,122,1,7239
84.15110898,-1,2,-6,8,0,0,4,0,2,-24,-43,79,3,-6,223,118,0,0,111,117,120,122,1,7240
84.159909963,-1,2,-6,-3,1,0,2,0,0,108,-214,236,7,-10,224,118,0,0,115,114,120,121,1,7241
84.169259071,-1,2,-6,6,0,-5,1,0,-3,-16,-22,214,7,-7,224,118,0,0,112,112,122,124,1,7242
84.196969032,-1,2,-6,-3,0,2,1,0,-1,-193,71,216,0,-5,221,118,0,0,114,117,117,122,1,7243
84.205924987,-1,2,-6,-6,2,-1,-4,1,0,138,0,53,1,-6,217,118,0,0,124,103,122,121,1,7244
84.21510601,-1,2,-6,-8,2,-3,-7,2,-2,-140,-58,179,-1,-11,219,118,0,0,123,103,123,121,1,7245
84.224981069,-1,2,-6,-12,0,-3,-10,0,-3,0,-74,59,-2,-17,219,118,0,0,126,100,120,124,1,7246
84.252947092,-1,2,-6,-3,-1,0,-8,-1,-1,40,-134,229,0,-18,218,118,0,0,121,108,116,125,1,7247
84.262248992,-2,1,-6,-15,0,2,-9,-1,1,39,51,232,-1,-16,218,118,0,0,127,104,116,123,1,7248
84.270910978,-2,1,-6,-6,0,-1,-11,0,0,4,28,198,0,-11,218,118,0,0,127,101,120,122,1,7249
84.280858993,-2,1,-6,-13,0,-2,-10,0,-1,28,-36,80,-1,-10,213,118,0,0,123,104,121,122,1,7250
84.307875156,-2,1,-6,-2,0,-1,-8,0,-1,-164,147,16,-3,-6,215,118,0,0,121,106,120,122,1,7251
84.318302154,-2,1,-6,-4,1,-7,-3,0,-4,-74,-68,196,-7,-14,216,118,0,0,112,111,123,124,1,7252
84.326910972,-2,1,-6,-6,-1,-1,-5,0,-4,13,6,21,-4,-21,217,118,0,0,122,106,119,123,1,7253
84.336038112,-2,1,-6,0,1,-4,-3,0,-2,7,-46,194,-3,-20,215,118,0,0,115,110,121,124,1,7254
84.363908052,-2,1,-6,-3,0,3,-2,0,0,20,-87,239,-6,-22,211,118,0,0,118,114,119,120,1,7255
84.373480081,-2,1,-6,7,0,2,1,0,2,131,65,131,-1,-18,208,118,0,0,111,119,119,121,1,7256
84.382915973,-2,1,-6,3,0,-1,5,0,0,52,38,51,-7,-15,203,118,0,0,106,121,121,122,1,7257
84.392079114,-2,1,-6,4,0,-3,4,0,-2,-207,76,44,-13,-14,206,118,0,0,111,115,120,124,1,7258
84.419867992,-2,1,-6,5,0,-3,5,0,-3,82,6,251,-12,-12,212,118,0,0,109,117,120,124,1,7259
84.429111957,-2,0,-6,6,0,0,5,0,-1,40,-38,2,-11,-7,212,118,0,0,110,119,119,123,1,7260
84.438017129,-2,0,-6,12,0,-4,9,0,-2,44,-132,173,-9,-13,209,118,0,0,102,124,121,123,1,7261
84.447834014,-2,0,-6,5,-1,-4,8,0,-4,129,31,224,-4,-16,207,118,0,0,106,119,121,124,1,7262
84.475058078,-2,0,-6,11,1,-1,8,0,-2,-174,-70,180,-7,-19,206,118,0,0,107,120,120,123,1,7263
84.48594594,-2,0,-6,-1,0,4,5,0,1,49,-115,51,-5,-22,203,118,0,0,115,118,119,118,1,7264
84.494044065,-2,0,-6,9,0,4,4,0,4,-95,-3,7,-7,-20,204,118,0,0,115,118,117,120,1,7265
84.503198146,-2,0,-6,8,0,3,8,0,4,-2,10,85,-12,-19,209,118,0,0,105,127,118,120,1,7266
84.531058073,-2,0,-6,7,-3,3,7,-1,3,53,-153,33,-5,-25,210,118,0,0,110,122,115,123,1,7267
84.540540933,-2,0,-6,23,0,3,15,-1,3,-255,-31,207,-11,-24,210,118,0,0,96,135,117,122,1,7268
84.549998998,-2,0,-6,26,-1,4,25,0,3,118,-79,226,-4,-24,211,118,0,0,86,147,118,119,1,7269
84.559445142,-2,0,-6,33,0,0,30,0,2,24,-71,167,-2,-27,209,118,0,0,82,147,118,122,1,7270
84.587070941,-2,0,-6,38,-3,2,36,-1,1,-78,95,168,-10,-29,208,118,0,0,77,153,117,123,1,7271
84.596223115,-1,0,-6,45,-3,-2,41,-3,0,15,-166,2,-10,-31,210,118,0,0,70,157,116,127,1,7272
84.605113983,-1,0,-6,45,-1,-1,45,-2,-2,91,60,254,-12,-30,210,118,0,0,69,158,118,124,1,7273
84.614915132,-1,0,-6,51,-2,5,48,-2,1,-195,100,171,-12,-25,207,118,0,0,69,164,116,121,1,7274
84.642922163,-1,0,-6,47,-3,2,49,-2,4,-19,213,201,-12,-13,204,118,0,0,68,163,115,124,1,7275
84.6509521,0,0,-6,56,-2,1,51,-3,2,0,-142,0,-7,-16,209,118,0,0,65,166,116,124,1,7276
84.660190105,0,0,-6,54,-1,8,55,-1,5,137,148,234,-3,-13,210,118,0,0,63,173,115,119,1,7277
84.669857025,0,0,-6,59,-3,1,56,-2,5,22,19,140,-4,-12,211,118,0,0,60,170,116,123,1,7278
84.697935104,0,0,-6,62,-1,4,61,-2,2,-21,137,215,-6,-12,212,118,0,0,55,177,116,122,1,7279
84.707040071,0,0,-6,58,-2,8,60,-2,6,-111,98,152,-8,-8,207,118,0,0,61,174,115,120,1,7280
84.716105938,0,0,-6,62,-2,4,60,-2,6,-24,32,145,-12,-2,205,118,0,0,59,174,115,123,1,7281
84.725816965,1,0,-6,55,-2,7,59,-2,5,-77,6,226,-13,-1,205,118,0,0,62,173,115,121,1,7282
84.736062049,1,0,-6,63,-3,4,59,-2,5,-91,-150,96,-11,-7,209,118,0,2,59,174,115,122,1,7283
84.745006084,1,-1,-6,48,-2,11,55,-2,8,-14,-10,29,-14,-7,214,118,0,2,69,170,113,119,1,7284
84.754884004,1,-1,-6,55,-2,4,51,-2,8,-41,51,182,-12,-4,215,118,0,2,70,163,116,121,1,7285
84.763942956,1,-1,-6,49,-5,0,52,-4,2,88,27,138,-10,-2,217,118,0,2,64,166,114,126,1,7286
84.791108131,1,-1,-6,44,-2,2,47,-4,1,-64,39,151,-12,2,215,118,0,0,75,157,115,124,1,7287
84.800892114,2,-1,-6,43,-2,-3,43,-2,0,55,38,130,-12,1,212,118,0,0,73,153,120,124,1,7288
84.810061931,2,-1,-6,30,-1,2,37,-2,0,115,180,185,-9,5,212,118,0,0,85,146,117,122,1,7289
84.818819999,2,-1,-6,30,-1,-1,30,-1,0,-26,133,37,-11,9,217,118,0,0,90,139,119,123,1,7290
84.847011089,2,-1,-6,26,0,5,28,0,2,75,68,211,-5,8,216,118,0,0,90,143,118,119,1,7291
84.856091022,3,-1,-6,15,0,2,20,0,3,-21,41,115,-3,10,220,118,0,0,101,130,121,118,1,7292
84.865111112,3,-1,-6,13,0,6,14,0,4,-105,-46,213,-6,9,218,118,0,0,108,127,117,118,1,7293
84.87722516,3,-1,-6,10,0,4,11,0,5,-59,55,165,-8,12,218,118,0,0,106,127,117,120,1,7294
84.902961969,3,-1,-6,14,0,-2,12,0,1,19,36,51,-8,15,213,118,0,0,100,127,120,122,1,7295
84.91184616,3,-1,-6,15,1,0,15,0,-1,173,69,229,-7,15,215,118,0,0,97,133,121,120,1,7296
84.921015977,3,-1,-6,25,0,1,20,1,0,11,154,138,-8,18,218,118,0,0,90,140,121,119,1,7297
84.931025981,4,-1,-6,24,0,6,24,0,3,91,13,22,0,16,217,118,0,0,88,146,116,119,1,7298
84.958009004,4,-1,-6,34,1,1,29,0,4,-195,14,17,-7,16,218,118,0,0,82,148,119,120,1,7299
84.967031955,4,-1,-6,38,-2,4,36,0,2,-72,74,199,-10,19,216,118,0,0,75,158,117,120,1,7300
84.976876974,5,-1,-6,42,-1,11,40,-1,7,-9,-100,134,-12,20,221,118,0,0,76,163,113,119,1,7301
84.985944032,5,-1,-5,38,-3,11,40,-2,11,145,-14,213,-11,19,221,118,0,0,78,160,112,119,1,7302
85.014111995,5,-1,-5,42,-4,6,40,-3,8,55,-24,1,-5,20,223,118,0,0,76,158,113,123,1,7303
85.023077011,6,-1,-5,47,-1,5,45,-2,5,-39,145,218,-8,26,227,118,0,0,68,165,116,120,1,7304
85.031967163,6,-1,-5,51,-3,11,49,-2,8,-98,78,231,-8,28,227,118,0,0,67,172,114,118,1,7305
85.041960001,6,-1,-5,57,-4,8,54,-3,10,-55,119,4,-9,31,224,118,0,0,60,176,112,122,1,7306
85.069849014,7,-1,-5,55,-2,11,56,-3,9,-66,127,176,-12,38,222,118,0,0,61,177,113,119,1,7307
85.07904005,8,-1,-5,59,-5,2,57,-3,6,-27,-20,176,-6,38,221,118,0,0,57,175,115,123,1,7308
85.08805108,8,-1,-5,52,-2,14,56,-3,8,80,144,219,-7,44,221,118,0,0,66,175,110,118,1,7309
85.097859144,9,-1,-5,60,-3,3,56,-3,9,-85,114,115,-10,49,219,118,0,0,59,173,116,121,1,7310
85.108283042,9,-2,-5,50,-2,5,55,-3,4,125,73,237,-5,48,221,118,0,2,62,172,115,121,1,7311
85.11708498,9,-2,-5,51,-1,2,50,-2,3,23,21,190,-5,53,219,118,0,2,68,164,117,121,1,7312
85.126876115,9,-2,-5,46,-3,-4,49,-2,0,156,0,189,-3,51,218,118,0,2,64,162,119,125,1,7313
85.136229038,10,-1,-5,41,-3,2,44,-3,0,11,229,202,1,55,219,118,0,2,74,158,115,123,1,7314
85.163957119,10,-1,-5,39,-4,-3,40,-4,0,67,112,143,3,52,217,118,0,0,74,153,116,126,1,7315
85.172862052,11,-1,-5,26,-1,1,32,-3,0,96,180,181,6,60,215,118,0,0,87,145,117,122,1,7316
85.182223081,11,-1,-5,25,-1,-2,25,-1,0,9,-57,31,2,55,217,118,0,0,91,137,120,122,1,7317
85.191767931,11,-1,-5,19,1,1,22,0,0,118,-28,226,5,54,219,118,0,0,93,138,120,119,1,7318
85.218879938,11,-1,-5,16,0,2,17,1,1,17,96,31,6,53,221,118,0,0,99,133,121,117,1,7319
85.228023052,12,-1,-5,10,2,-1,13,1,0,37,66,93,9,52,219,118,0,0,101,128,123,119,1,7320
85.241428136,12,-1,-5,9,4,3,9,3,1,68,183,200,12,56,220,118,0,0,105,128,123,114,1,7321
85.247210025,12,-1,-5,5,2,5,7,3,4,40,131,59,15,59,216,118,0,0,107,127,120,116,1,7322
85.274964094,12,-1,-5,3,1,3,4,1,4,119,137,40,20,66,215,118,0,0,110,123,118,119,1,7323
85.283864021,12,0,-5,3,0,2,3,0,2,-114,87,188,18,68,212,118,0,0,109,123,119,120,1,7324
85.292899131,12,0,-5,-2,1,4,0,0,3,-15,62,55,18,69,216,118,0,0,115,119,118,118,1,7325
85.302816152,12,0,-5,-4,0,4,-3,0,4,-81,16,47,14,68,213,118,0,0,118,115,118,119,1,7326
85.330927133,13,0,-5,-2,-1,2,-3,0,3,52,38,184,17,68,214,118,0,0,114,118,116,122,1,7327
85.339898109,13,0,-5,-18,-3,-11,-10,-2,-4,30,32,161,16,75,215,118,0,0,121,100,120,130,1,7328
85.349034071,13,0,-5,-23,0,-3,-21,-2,-7,-203,7,216,8,77,216,118,0,0,137,90,119,124,1,7329
85.361220121,13,0,-5,-24,-1,-3,-24,-1,-3,-73,26,150,7,80,212,118,0,0,134,93,120,123,1,7330
85.385978937,13,0,-5,-34,2,-4,-29,0,-3,129,132,61,8,82,215,118,0,0,140,86,122,121,1,7331
85.395914077,12,0,-5,-48,4,-6,-41,3,-5,-46,189,29,8,86,213,118,0,0,156,68,128,118,1,7332
85.404786109,12,0,-5,-45,2,-8,-46,3,-7,-19,-9,88,10,87,216,118,0,0,156,67,126,121,1,7333
85.413968086,12,0,-5,-60,4,1,-53,3,-3,92,-142,225,14,82,217,118,0,0,166,65,122,117,1,7334
85.44196701,12,0,-5,-44,5,-6,-52,5,-2,-8,-22,222,13,80,222,118,0,0,157,67,128,118,1,7335
85.451089143,11,0,-5,-66,4,-2,-55,4,-4,84,210,118,11,84,219,118,0,0,164,63,125,118,1,7336
85.460215091,11,0,-5,-46,4,-4,-56,4,-3,-21,162,148,4,84,219,118,0,0,163,63,124,119,1,7337
85.46988511,11,0,-5,-55,3,1,-51,3,-1,33,214,185,2,89,217,118,0,0,155,76,122,118,1,7338
85.498027086,12,0,-5,-39,3,-2,-47,3,0,-112,116,87,4,92,212,118,0,0,152,76,123,119,1,7339
85.506991148,11,0,-5,-30,1,0,-35,2,-1,14,205,8,6,95,207,118,0,0,133,96,121,120,1,7340
85.51595211,11,0,-5,-24,5,3,-27,3,1,-164,20,-9,2,104,197,118,0,0,131,101,121,117,1,7341
85.525815963,12,0,-5,-24,-1,-14,-24,1,-5,81,117,176,1,114,197,118,0,0,125,93,125,127,1,7342
85.553050041,12,0,-5,-14,0,-12,-19,0,-13,-6,94,64,0,117,198,118,0,0,120,100,121,129,1,7343
85.563030004,13,0,-6,0,1,-1,-7,0,-6,163,0,158,4,113,197,118,0,0,107,121,122,120,1,7344
85.572416067,13,0,-6,6,0,0,2,0,-1,-162,50,43,3,113,198,118,0,0,98,131,119,122,1,7345
85.58102107,14,0,-6,7,0,3,7,0,1,-71,-46,184,2,108,196,118,0,0,100,132,116,122,1,7346
85.608967065,14,0,-6,15,0,1,11,0,2,-160,157,226,0,109,198,118,0,0,95,136,117,122,1,7347
85.618036031,15,0,-5,19,0,2,17,0,2,-149,60,144,-2,111,197,118,0,0,89,143,118,120,1,7348
85.627875089,15,0,-5,19,0,1,19,0,2,-31,17,137,-5,108,195,118,0,0,90,141,120,119,1,7349
85.637398004,16,0,-5,19,1,2,19,1,2,149,121,121,0,108,195,118,0,0,91,141,119,119,1,7350
85.665356159,16,0,-5,15,-1,0,17,0,1,-61,42,180,-4,114,194,118,0,0,94,136,117,122,1,7351
85.674030065,17,0,-5,8,0,4,11,-1,2,186,233,253,0,119,195,118,0,0,104,129,115,122,1,7352
85.683058977,17,0,-5,6,1,-2,7,0,0,-164,174,214,-7,123,196,118,0,0,104,124,121,121,1,7353
85.693367958,18,0,-5,2,0,-1,4,0,-1,82,-141,9,-6,114,197,118,0,0,105,123,120,122,1,7354
85.720137119,18,0,-5,-6,0,-5,-2,0,-3,148,10,153,-4,112,204,118,0,0,113,112,121,124,1,7355
85.730020999,18,0,-5,-13,2,4,-9,1,0,-10,77,203,-6,109,205,118,0,0,126,108,120,117,1,7356
85.738906145,19,0,-5,-22,0,0,-18,0,2,96,75,101,-4,112,200,118,0,0,132,98,119,121,1,7357
85.747986078,19,0,-5,-23,3,-1,-23,1,0,21,104,22,-7,116,201,118,0,0,133,95,122,120,1,7358
85.775921106,19,0,-5,-25,0,-1,-24,1,-1,93,181,205,-5,118,199,118,0,0,131,98,122,120,1,7359
85.789031028,19,0,-5,-42,0,-4,-33,0,-2,189,55,178,-1,118,208,118,0,0,145,81,120,125,1,7360
85.794979095,19,0,-5,-32,5,-8,-37,2,-6,-92,126,150,-5,116,206,118,0,0,142,80,127,120,1,7361
85.803928136,19,0,-6,-36,3,-4,-34,4,-6,-25,59,197,-7,114,210,118,0,0,136,90,126,118,1,7362
85.832036018,19,0,-6,-30,4,-3,-33,3,-4,37,2,154,-9,111,206,118,0,0,137,90,124,120,1,7363
85.84109807,19,0,-6,-35,0,-3,-33,2,-3,26,166,192,-5,113,206,118,0,0,137,89,122,122,1,7364
85.850023984,19,0,-6,-34,2,0,-34,1,-2,-71,202,182,-7,116,203,118,0,0,141,87,120,122,1,7365
85.859790086,19,0,-6,-32,0,0,-33,1,0,170,190,128,0,121,199,118,0,0,138,92,121,119,1,7366
85.887104034,19,0,-6,-24,4,2,-28,2,1,-50,233,189,-3,126,199,118,0,0,132,100,122,117,1,7367
85.896891117,19,0,-6,-20,0,-8,-22,2,-3,131,-72,249,0,117,201,118,0,0,120,102,124,123,1,7368
85.905915021,19,0,-6,-14,1,-2,-17,0,-5,28,18,14,5,111,202,118,0,0,118,109,120,123,1,7369
85.914960146,20,0,-6,-10,3,1,-12,2,0,28,-196,47,7,99,206,118,0,0,115,115,123,117,1,7370
85.943123102,20,0,-6,-8,-2,4,-9,0,3,-9,-54,16,4,94,205,118,0,0,115,118,116,121,1,7371
85.951842069,20,0,-6,2,1,-1,-3,0,1,-7,101,89,5,92,207,118,0,0,104,124,119,123,1,7372
85.962042093,20,0,-6,2,-1,-1,2,0,-1,-29,81,22,4,94,205,118,0,0,100,128,121,121,1,7373
85.971415996,20,0,-6,7,0,-1,4,0,-1,-220,-71,10,-2,96,206,118,0,0,100,128,119,123,1,7374
85.998990058,20,0,-6,3,-3,-3,5,-1,-2,204,-29,94,2,95,209,118,0,0,100,127,118,126,1,7375
86.012969017,20,0,-6,9,1,0,6,-1,-1,-46,-7,146,0,90,210,118,0,0,100,130,118,122,1,7376
86.016937017,21,0,-6,3,0,3,6,0,2,163,182,135,10,91,210,118,0,0,102,131,120,118,1,7377
86.028739929,21,0,-6,2,-3,1,3,-1,2,-90,158,137,6,89,208,118,0,0,107,124,115,124,1,7378
86.054886102,21,0,-6,1,0,3,1,-1,2,-11,23,222,9,87,212,118,0,0,107,125,117,121,1,7379
86.063915014,21,0,-6,-2,0,1,0,0,2,-97,72,208,6,84,217,118,0,0,110,121,119,120,1,7380
86.073029995,21,0,-6,-2,3,0,-2,1,0,-142,-44,239,7,76,223,118,0,0,110,119,122,119,1,7381
86.08287096,21,0,-6,-9,0,0,-6,1,0,255,126,57,11,69,226,118,0,0,115,114,122,120,1,7382
86.110072135,20,0,-6,-5,3,-1,-7,1,0,-137,143,141,8,71,222,118,0,0,114,114,121,121,1,7383
86.119071006,20,0,-6,-20,1,-3,-13,2,-2,126,49,169,7,72,222,118,0,0,122,104,124,120,1,7384
86.129027128,20,0,-6,-17,0,-6,-19,0,-5,26,50,55,12,72,223,118,0,0,127,97,121,125,1,7385
86.137985944,20,0,-6,-24,0,-5,-20,0,-6,105,93,12,16,75,225,118,0,0,126,98,120,125,1,7386
86.165939092,20,0,-6,-26,-1,0,-25,0,-3,-94,50,4,18,73,225,118,0,0,135,94,118,123,1,7387
86.174896001,19,0,-6,-22,2,-1,-24,0,-1,-199,166,164,16,75,226,118,0,0,129,99,121,121,1,7388
86.18542695,19,1,-6,-28,1,-6,-25,1,-3,96,59,194,20,76,227,118,0,0,129,95,124,122,1,7389
86.193876028,19,1,-6,-22,4,-2,-25,2,-4,-47,-25,85,15,73,226,118,0,0,130,97,123,120,1,7390
86.221892118,19,1,-6,-28,2,-4,-25,3,-3,229,10,108,22,72,225,118,0,0,130,96,125,120,1,7391
86.230947017,18,1,-6,-22,-2,-3,-25,0,-4,2,-20,0,17,66,225,118,0,0,129,96,118,126,1,7392
86.240098953,18,1,-6,-19,2,-5,-20,0,-4,6,-22,12,22,61,226,118,0,0,121,103,121,124,1,7393
86.249979019,18,1,-6,-14,-1,-2,-16,0,-3,69,-5,249,21,64,226,118,0,0,119,108,121,122,1,7394
86.278828144,18,1,-6,-17,0,-4,-15,0,-3,-88,-57,224,15,62,221,118,0,0,120,106,119,126,1,7395
86.286808013,17,1,-6,-10,0,-1,-13,0,-2,58,98,218,24,63,221,118,0,0,119,109,119,123,1,7396
86.296178102,17,1,-6,-1,2,0,-6,0,0,-8,76,132,14,63,222,118,0,0,107,122,120,120,1,7397
86.306499958,17,1,-6,-8,0,0,-5,1,0,10,-21,24,14,60,222,118,0,0,112,117,120,121,1,7398
86.332915067,17,1,-6,0,1,2,-3,0,0,-5,13,211,12,56,222,118,0,0,111,119,119,121,1,7399
86.341834068,17,2,-6,1,0,-4,0,0,-1,23,57,148,8,56,215,118,0,0,101,124,121,123,1,7400
86.350861072,17,2,-6,0,-3,-2,0,-1,-3,136,117,34,13,55,219,118,0,0,107,120,116,127,1,7401
86.360857009,17,2,-6,0,0,-2,0,-1,-2,-66,100,34,12,56,221,118,0,0,108,119,119,124,1,7402
86.38898611,17,2,-6,1,-3,-2,0,-1,-2,-43,8,62,10,57,225,118,0,0,106,121,119,124,1,7403
86.398005008,17,2,-6,3,3,0,2,0,-1,-213,65,200,4,54,225,118,0,0,103,125,120,121,1,7404
86.407051086,16,2,-6,0,-1,-1,1,1,0,27,-37,98,7,48,223,118,0,0,106,122,121,121,1,7405
86.417094945,16,2,-6,0,-1,2,0,-1,0,0,-5,192,2,43,225,118,0,0,111,120,114,125,1,7406
86.44385004,16,2,-6,-4,0,1,-2,-1,1,84,150,173,6,41,224,118,0,0,113,117,117,123,1,7407
86.453895092,16,2,-6,-5,0,-2,-4,0,0,118,27,94,6,44,227,118,0,0,114,113,121,122,1,7408
86.462942123,16,2,-6,-6,2,-1,-5,1,-2,-17,7,233,4,43,226,118,0,0,113,114,122,121,1,7409
86.472746133,16,1,-6,-11,-1,-3,-8,0,-2,-48,-38,120,2,47,228,118,0,0,118,108,119,124,1,7410
86.5000391,15,1,-6,-11,1,1,-11,0,0,-96,118,6,0,52,228,118,0,0,122,108,118,122,1,7411
86.509397029,15,1,-6,-16,0,-4,-13,0,-1,36,196,0,1,54,225,118,0,0,122,103,122,123,1,7412
86.519011974,15,1,-6,-14,2,-1,-15,1,-3,-191,125,232,-2,55,224,118,0,0,124,104,121,122,1,7413
86.52822709,15,1,-6,-20,1,-6,-17,1,-4,121,-172,194,6,53,222,118,0,0,124,99,124,122,1,7414
86.555958986,15,1,-6,-14,-2,0,-17,0,-3,-14,29,80,0,54,222,118,0,0,125,104,116,125,1,7415
86.565118074,14,1,-6,-16,1,-6,-15,0,-3,-79,-47,189,0,53,223,118,0,0,119,104,121,126,1,7416
86.573918104,14,1,-6,-17,0,-1,-16,0,-4,167,81,83,0,50,228,118,0,0,125,102,122,121,1,7417
86.584125042,14,1,-6,-12,3,1,-14,1,0,-234,208,213,-3,52,230,118,0,0,122,108,121,119,1,7418
86.612143993,14,1,-6,-13,0,2,-13,1,1,77,143,176,-1,55,229,118,0,0,121,110,119,121,1,7419
86.62098813,14,1,-6,-7,0,-5,-10,0,-1,-89,102,38,0,55,231,118,0,0,115,110,119,127,1,7420
86.629910945,14,1,-6,-13,0,-6,-10,0,-5,121,-129,173,5,53,230,118,0,0,116,108,121,125,1,7421
86.639104127,14,1,-6,-8,1,-5,-10,0,-5,-1,-98,230,0,48,227,118,0,0,117,107,122,123,1,7422
86.667058944,13,1,-6,-6,1,-5,-7,1,-5,-57,0,71,1,44,232,118,0,0,111,113,124,122,1,7423
86.677257061,13,1,-6,-2,-3,1,-4,0,-2,46,-58,131,0,41,238,118,0,0,112,118,116,125,1,7424
86.685876131,13,1,-6,-1,0,0,-2,-1,0,-160,62,36,-5,42,237,118,0,0,109,119,117,124,1,7425
86.694983005,13,1,-6,0,0,-1,0,0,0,85,160,240,0,43,236,118,0,0,108,119,122,121,1,7426
86.723103046,13,1,-6,2,3,-1,1,1,-1,-167,64,107,-1,44,233,118,0,0,106,121,123,120,1,7427
86.732053995,13,1,-7,-2,0,0,0,1,-1,216,50,139,9,41,232,118,0,0,110,118,121,121,1,7428
86.74124813,13,1,-7,1,-2,-1,0,-1,0,-116,61,206,3,41,232,118,0,0,109,118,116,126,1,7429
86.75101304,13,1,-7,-2,0,0,0,-1,-1,-98,-44,246,2,40,236,118,0,0,109,119,118,124,1,7430
86.778836965,13,1,-7,0,0,-2,-1,0,-1,206,-103,45,1,31,241,118,0,0,111,116,120,123,1,7431
86.78798294,12,1,-6,0,1,7,0,0,2,-194,123,213,-3,35,240,118,0,0,113,122,118,118,1,7432
86.797136068,12,1,-6,-3,-2,2,-2,0,5,172,151,178,1,39,238,118,0,0,113,117,117,123,1,7433
86.806007146,12,1,-6,-4,1,-3,-3,0,0,-99,36,126,-3,40,235,118,0,0,113,113,120,124,1,7434
86.833944082,12,1,-6,-7,0,-8,-6,1,-5,126,172,159,2,46,233,118,0,0,114,108,125,123,1,7435
86.843230962,12,0,-7,-5,-2,4,-6,0,-1,98,-172,80,-3,39,236,118,0,0,119,114,115,123,1,7436
86.852894067,12,0,-6,-7,3,0,-6,0,2,-12,-15,243,3,37,239,118,0,0,116,113,120,121,1,7437
86.862259149,12,0,-6,-8,-1,2,-8,0,1,-35,21,214,1,38,237,118,0,0,120,111,120,120,1,7438
86.890119075,11,0,-6,-9,0,0,-8,0,1,-125,54,193,-1,39,237,118,0,0,119,110,118,123,1,7439
86.899135112,11,0,-7,-11,0,-2,-10,0,-1,-24,225,174,-2,43,237,118,0,0,120,106,122,122,1,7440
86.908092021,11,0,-7,-12,1,1,-12,0,0,-83,3,198,-7,40,235,118,0,0,123,107,120,121,1,7441
86.924652099,11,0,-7,-11,0,0,-12,1,0,248,48,217,0,39,233,118,0,0,121,107,121,121,1,7442
86.945934057,11,0,-7,-14,-1,-6,-13,0,-3,-200,130,205,-3,42,230,118,0,0,120,103,121,126,1,7443
86.954864978,11,0,-7,-10,0,-8,-12,0,-7,118,-68,227,4,39,231,118,0,0,117,104,122,126,1,7444
86.964007139,10,0,-7,-9,0,3,-9,0,-2,-74,-86,10,1,37,235,118,0,0,119,113,118,120,1,7445
86.973973035,10,0,-7,-10,3,5,-10,1,4,-108,-1,137,0,37,234,118,0,0,122,111,120,117,1,7446
87.001176118,10,0,-7,-6,0,1,-8,1,3,212,134,133,2,37,233,118,0,0,118,112,121,119,1,7447
87.010987997,10,0,-7,-12,0,1,-9,0,1,-62,55,220,-2,38,230,118,0,0,120,109,117,123,1,7448
87.019946098,10,0,-7,-4,-1,-5,-8,0,-2,206,60,197,3,39,229,118,0,0,115,109,121,126,1,7449
87.029092073,10,0,-7,-3,0,0,-3,0,-2,-49,22,249,3,41,226,118,0,0,111,118,119,123,1,7450
87.057146072,10,0,-7,-2,2,0,-3,0,0,-34,-247,110,5,31,228,118,0,0,113,116,122,120,1,7451
87.065940141,10,0,-7,3,0,-2,0,0,0,-159,-43,0,0,25,228,118,0,0,106,121,121,122,1,7452
87.075897932,10,0,-7,-2,1,-5,0,0,-3,13,-24,122,5,22,226,118,0,0,107,117,122,124,1,7453
87.084808111,10,0,-7,4,-2,1,1,0,-1,136,53,160,5,27,225,118,0,0,109,121,117,123,1,7454
87.11284399,9,0,-7,-2,2,6,1,0,4,-62,192,145,4,31,220,118,0,0,112,121,118,119,1,7455
87.122096061,9,0,-7,4,-2,-5,0,0,0,198,69,187,11,34,220,118,0,0,108,116,122,124,1,7456
87.132836103,9,0,-7,-5,-1,0,0,-1,-2,-201,60,210,2,34,217,118,0,0,112,117,116,125,1,7457
87.140902996,9,0,-7,4,-2,-2,0,-1,0,-82,-76,119,5,27,221,118,0,0,110,117,119,125,1,7458
87.167981147,9,0,-7,-2,-1,-1,1,-2,-1,136,-44,121,7,22,226,118,0,0,108,120,118,125,1,7459
87.177930116,9,0,-7,1,1,2,0,0,0,48,0,137,10,19,222,118,0,0,113,118,120,119,1,7460
87.186915159,9,0,-7,0,1,-1,1,1,0,30,68,167,8,24,222,118,0,0,108,120,123,119,1,7461
87.195964098,9,0,-7,-7,-2,1,-3,0,0,116,0,94,11,27,218,118,0,0,118,111,116,124,1,7462
87.223926067,9,0,-7,0,-1,-7,-3,-1,-2,23,114,135,13,30,213,118,0,0,111,111,119,128,1,7463
87.233061075,9,1,-7,-3,1,3,-1,0,-1,158,-47,104,16,30,213,118,0,0,112,119,120,119,1,7464
87.242908001,9,1,-7,0,0,-1,-1,1,1,-120,-23,13,17,28,212,118,0,0,112,116,122,121,1,7465
87.25189805,9,1,-7,-8,0,5,-4,0,2,-231,29,210,3,25,211,118,0,0,119,114,116,121,1,7466
87.279922008,9,1,-7,0,0,0,-4,0,2,42,-12,6,8,23,215,118,0,0,115,113,119,123,1,7467
87.289051055,8,1,-7,-7,1,-4,-4,0,-2,-190,0,50,-1,21,213,118,0,0,113,112,122,123,1,7468
87.298848152,8,1,-7,-8,0,0,-8,0,-2,169,45,73,5,21,216,118,0,0,122,106,120,122,1,7469
87.307862043,8,1,-7,1,2,-2,-3,1,-1,-17,32,89,7,23,219,118,0,0,109,118,122,122,1,7470
87.335906028,8,1,-7,-10,-1,1,-4,0,0,141,-159,236,5,22,217,118,0,0,116,113,119,122,1,7471
87.344859123,8,1,-7,2,3,-5,-3,0,-2,-105,-73,70,7,17,213,118,0,0,112,112,123,124,1,7472
87.353898048,8,1,-7,-7,0,1,-2,1,-2,100,150,102,6,17,212,118,0,0,112,117,121,120,1,7473
87.36394906,8,1,-7,-3,0,0,-5,0,0,-56,101,102,7,18,211,118,0,0,118,110,117,124,1,7474
87.391062021,8,1,-7,-9,0,1,-6,0,0,73,43,201,5,15,212,118,0,0,119,111,119,122,1,7475
87.400907039,7,1,-7,-4,-3,0,-6,-1,0,-59,101,37,1,22,211,118,0,0,118,110,117,125,1,7476
87.409904956,7,1,-7,-6,0,-1,-5,-1,0,-117,-116,246,0,19,211,118,0,0,114,113,119,124,1,7477
87.419034004,7,1,-7,-6,-3,0,-6,-1,0,244,-79,150,6,17,216,118,0,0,118,110,118,125,1,7478
87.446963071,7,1,-7,2,2,-1,-2,0,-1,-151,82,164,5,18,215,118,0,0,109,118,120,123,1,7479
87.456059932,7,1,-7,-4,1,0,-1,1,-1,236,108,58,12,15,212,118,0,0,111,116,123,119,1,7480
87.465012073,7,1,-7,-2,-4,-1,-3,-1,-1,-54,137,178,12,18,212,118,0,0,116,111,116,128,1,7481
87.474882125,7,1,-7,-1,0,0,-2,-2,0,-56,-43,231,5,16,212,118,0,0,113,116,117,125,1,7482
87.502865076,7,1,-7,1,-4,0,0,-2,0,77,-114,17,12,10,214,118,0,0,110,118,117,125,1,7483
87.511898994,7,1,-7,3,3,2,2,0,0,-225,50,184,3,12,213,118,0,0,108,123,119,120,1,7484
87.520895004,6,1,-7,5,-1,1,4,1,2,237,193,65,11,19,214,118,0,0,107,123,121,119,1,7485
87.529956102,6,1,-7,-1,2,4,1,0,3,-63,72,127,12,21,214,118,0,0,114,118,117,121,1,7486
87.557937145,6,1,-7,-2,-2,6,-2,0,5,-10,137,72,7,21,212,118,0,0,119,114,116,121,1,7487
87.566959142,6,1,-7,-2,0,-8,-2,-1,-1,-90,-138,94,6,17,215,118,0,0,110,111,120,129,1,7488
87.576957941,6,1,-7,0,-1,-7,0,0,-8,49,-172,205,2,11,216,118,0,0,108,114,122,126,1,7489
87.586046934,6,1,-7,1,-2,3,0,-1,-2,78,-80,5,5,8,216,118,0,0,111,120,115,124,1,7490
87.613997936,6,1,-7,-1,1,8,0,0,5,-31,22,165,5,15,211,118,0,0,116,119,117,118,1,7491
87.624869108,6,1,-7,0,-1,-7,-1,0,0,-149,4,128,5,22,208,118,0,0,111,112,122,125,1,7492
87.631999015,6,1,-7,-4,0,1,-2,-1,-2,-130,64,231,2,25,210,118,0,0,116,113,117,124,1,7493
87.641927957,6,1,-7,0,-1,-3,-1,-1,-1,180,87,80,3,26,215,118,0,0,111,114,120,125,1,7494
87.670067071,6,1,-7,-9,0,2,-4,-1,0,-76,84,59,3,23,219,118,0,0,119,111,117,123,1,7495
87.678928136,6,1,-7,1,1,-1,-4,0,0,11,-22,172,-1,21,219,118,0,0,114,113,121,122,1,7496
87.688013076,6,1,-7,-7,0,0,-2,0,-1,-60,85,142,1,21,217,118,0,0,113,114,121,121,1,7497
87.697129011,6,1,-7,-11,0,-2,-9,0,-1,-43,70,39,2,25,209,118,0,0,125,101,121,123,1,7498
87.725000143,6,1,-7,0,0,-4,-5,0,-3,75,167,230,1,30,205,118,0,0,112,113,121,125,1,7499
87.734905004,6,1,-7,-10,0,0,-4,0,-2,-6,29,15,0,31,208,118,0,0,116,112,119,123,1,7500
87.744802951,6,1,-7,1,-1,-2,-4,0,-1,-31,-60,25,-1,28,211,118,0,0,115,112,120,124,1,7501
87.752993106,6,1,-7,-7,-2,2,-3,-1,0,86,-125,65,-2,25,217,118,0,0,115,115,115,124,1,7502
87.780941963,6,1,-7,5,0,-2,-1,-1,0,-28,-8,29,-3,21,221,118,0,0,110,116,119,125,1,7503
87.790020942,6,1,-7,1,0,-1,3,0,-2,51,13,69,-6,23,213,118,0,0,104,123,121,121,1,7504
87.798980951,6,1,-7,0,0,1,0,0,0,110,100,49,0,26,214,118,0,0,114,116,120,121,1,7505
87.808869123,6,0,-7,-4,1,2,-2,1,1,-130,56,236,1,27,215,118,0,0,117,113,120,120,1,7506
87.836957931,6,0,-7,-7,0,2,-5,0,2,101,-206,188,3,22,213,118,0,0,121,109,118,122,1,7507
87.846107959,6,0,-7,2,1,-4,-2,0,-1,-22,-52,122,1,21,215,118,0,0,109,115,122,124,1,7508
87.855100154,6,0,-7,-5,1,4,-1,1,0,182,-93,195,1,17,211,118,0,0,114,118,120,118,1,7509
87.86867094,6,0,-7,1,0,1,-1,0,2,59,23,220,3,17,208,118,0,0,114,115,119,122,1,7510
87.891987085,6,0,-7,-2,0,6,0,0,3,28,217,157,0,26,206,118,0,0,114,120,116,121,1,7511
87.90185213,6,0,-7,-2,-4,-2,-2,-2,1,204,108,249,8,31,211,118,0,0,115,111,117,127,1,7512
87.911117076,6,0,-7,0,0,-4,-1,-1,-3,-66,14,187,4,27,213,118,0,0,110,115,120,125,1,7513
87.919968128,6,0,-7,0,-3,0,0,-1,-2,-35,5,50,4,25,218,118,0,0,110,117,119,123,1,7514
87.948086977,6,0,-7,5,3,-2,2,0,-1,-91,-61,127,0,22,223,118,0,0,107,120,121,122,1,7515
87.957062959,6,0,-7,-2,0,3,1,1,0,26,53,100,2,21,218,118,0,0,113,118,121,118,1,7516
87.966880083,6,0,-7,-3,-2,-3,-2,-1,0,-61,-25,123,4,24,215,118,0,0,117,109,117,127,1,7517
87.975921154,6,0,-7,-4,0,2,-3,-1,0,147,-70,90,1,24,207,118,0,0,117,113,117,123,1,7518
88.003970146,6,0,-7,-3,-2,-3,-3,-1,0,13,-1,34,5,22,210,118,0,0,114,111,119,125,1,7519
88.013049125,6,0,-7,-1,3,2,-2,0,0,-106,-71,223,-2,17,214,118,0,0,114,116,121,119,1,7520
88.022443056,6,0,-7,-4,0,-1,-2,1,0,247,178,111,4,18,219,118,0,0,114,113,122,121,1,7521
88.031986951,6,0,-7,-1,2,3,-2,0,1,-214,124,155,0,22,217,118,0,0,116,115,119,120,1,7522
88.059921979,6,0,-7,-3,-3,0,-2,0,1,28,-45,160,0,24,214,118,0,0,114,115,118,124,1,7523
88.068967104,5,0,-7,-3,1,-4,-3,0,-2,-2,37,233,-1,24,215,118,0,0,114,110,120,126,1,7524
88.077913045,5,0,-7,-5,0,-5,-4,0,-5,102,-143,247,-4,15,213,118,0,0,115,109,123,123,1,7525
88.087008953,5,0,-7,-4,-3,2,-5,-1,-1,246,-126,58,3,10,218,118,0,0,118,112,115,125,1,7526
88.114989042,5,0,-7,-7,2,2,-5,0,2,-34,52,224,2,8,222,118,0,0,119,111,119,120,1,7527
88.124233007,5,0,-7,-4,0,3,-6,0,3,170,179,169,9,16,217,118,0,0,119,112,120,119,1,7528
88.133954048,5,0,-7,-7,2,-2,-6,0,0,-108,7,96,5,21,215,118,0,0,117,110,121,122,1,7529
88.143036127,5,0,-7,-4,0,-4,-5,0,-3,-20,-35,180,2,22,213,118,0,0,116,109,122,123,1,7530
88.170870065,5,0,-7,-5,1,-1,-5,0,-2,25,13,59,4,22,216,118,0,0,115,112,120,123,1,7531
88.180416107,5,0,-7,-2,1,-3,-3,1,-2,-18,-105,207,7,13,218,118,0,0,113,112,123,122,1,7532
88.189079046,5,0,-7,-1,-1,-1,-1,0,-2,41,-81,253,11,9,219,118,0,0,112,115,119,124,1,7533
88.198934078,5,0,-7,-5,0,-6,-3,0,-3,-40,3,178,6,7,215,118,0,0,114,109,121,126,1,7534
88.22694993,5,0,-7,0,-1,1,-2,-1,-2,85,-10,234,10,4,213,118,0,0,115,114,117,123,1,7535
88.236032962,4,1,-7,-5,2,5,-3,0,3,-24,32,205,9,6,214,118,0,0,117,115,119,119,1,7536
88.244984149,4,1,-7,-2,0,-8,-4,0,-1,126,148,14,14,7,217,118,0,0,114,108,124,125,1,7537
88.25485897,4,1,-7,-5,0,-5,-3,0,-6,-74,113,15,13,8,223,118,0,0,113,111,119,127,1,7538
88.282057046,4,1,-7,0,0,-4,-2,0,-5,-45,-86,237,10,2,223,118,0,0,112,112,120,125,1,7539
88.290941953,4,1,-7,1,0,2,0,0,-1,-39,33,177,9,2,221,118,0,0,110,120,119,121,1,7540
88.301069021,4,1,-7,-3,2,4,-1,1,3,-106,55,130,7,5,217,118,0,0,116,115,121,118,1,7541
88.309952974,4,1,-7,1,1,0,0,1,2,101,49,175,7,9,213,118,0,0,113,115,121,120,1,7542
88.337922096,4,1,-7,-5,-1,-1,-1,0,0,86,139,202,10,13,211,118,0,0,114,112,118,126,1,7543
88.346884965,4,1,-7,0,-1,-3,-2,-1,-2,95,-83,104,11,11,218,118,0,0,115,111,118,127,1,7544
88.358721017,4,1,-7,0,1,-1,0,0,-2,117,-53,255,12,7,217,118,0,0,109,118,122,122,1,7545
88.365957021,4,1,-7,-2,2,0,0,2,0,-194,16,241,10,6,217,118,0,0,114,114,123,119,1,7546
88.393131017,3,1,-7,-3,1,-1,-3,1,0,-73,-105,211,6,8,218,118,0,0,117,110,122,122,1,7547
88.402902126,3,1,-7,-12,-1,1,-7,0,0,-65,68,82,11,11,217,118,0,0,124,105,117,124,1,7548
88.411868095,3,1,-7,0,-1,-2,-6,-1,0,51,-17,134,8,13,215,118,0,0,116,110,118,126,1,7549
88.421206951,3,1,-7,-12,1,0,-6,0,0,253,82,102,12,15,219,118,0,0,120,109,120,122,1,7550
88.450282096,3,1,-7,-1,0,-1,-7,0,0,-56,87,67,10,12,223,118,0,0,120,107,121,122,1,7551
88.45791912,3,1,-7,-12,0,1,-7,0,0,88,-22,86,7,8,225,118,0,0,120,110,117,123,1,7552
88.467257022,3,1,-7,-10,0,-1,-11,0,0,-15,20,91,9,8,223,118,0,0,126,100,119,125,1,7553
88.481341123,3,1,-7,-2,2,-4,-6,0,-3,-32,64,69,9,10,217,118,0,0,113,111,123,122,1,7554
88.504817009,3,1,-7,-7,0,1,-5,1,-1,83,66,27,13,13,214,118,0,0,117,112,120,120,1,7555
88.513968944,2,1,-7,-33,1,-7,-20,0,-2,-130,4,164,9,12,216,118,0,0,142,80,122,126,1,7556
88.523133039,2,1,-7,-57,3,0,-45,2,-4,166,143,249,15,16,219,118,0,0,177,51,123,119,1,7557
88.531938076,2,1,-7,-56,1,-8,-56,2,-4,8,-74,192,11,16,222,118,0,0,173,48,125,124,1,7558
88.560119152,2,1,-7,-65,0,-6,-60,0,-7,96,-115,223,14,13,220,118,0,0,172,51,122,126,1,7559
88.570613145,0,2,-7,-77,5,-2,-71,3,-4,-36,226,254,15,21,221,118,0,0,189,37,125,119,1,7560
88.578091144,0,2,-7,-83,1,3,-80,3,0,125,249,251,12,22,218,118,0,0,198,32,122,117,1,7561
88.58794403,0,2,-7,-81,3,-3,-82,2,0,-168,229,83,13,25,216,118,0,0,192,32,122,123,1,7562
88.605020046,0,2,-7,-84,3,-7,-83,3,-5,202,247,16,18,32,212,118,11,78,191,32,126,122,1,7563
88.614912033,0,2,-7,-80,4,-9,-82,4,-8,78,142,154,26,35,210,118,11,78,188,32,127,122,1,7564
88.623814106,0,2,-7,-55,-1,-5,-67,1,-7,-248,23,176,17,39,209,118,11,78,164,59,121,125,1,7565
88.637266159,0,2,-8,-64,3,-4,-60,1,-5,62,-58,114,13,41,210,118,11,78,163,61,122,124,1,7566
88.660895109,0,2,-8,-55,2,-13,-60,3,-8,-140,-50,137,10,38,214,118,10,-31,166,51,129,124,1,7567
88.669917106,-1,2,-8,-72,0,-4,-64,1,-8,120,19,97,9,34,213,118,10,-31,177,47,120,126,1,7568
88.678892135,-1,2,-8,-78,7,-8,-75,3,-6,-21,-69,73,11,26,212,118,10,-31,192,29,128,121,1,7569
88.688970089,-1,2,-8,-76,2,-1,-77,5,-4,-159,155,-28,8,31,207,118,10,-31,189,37,126,118,1,7570
88.700928926,-1,2,-8,-84,5,-14,-80,3,-7,-44,-11,-30,6,30,198,118,13,77,188,28,128,126,1,7571
88.710983991,-1,2,-8,-83,0,-10,-84,3,-12,-61,-108,185,5,24,204,118,13,77,193,26,126,125,1,7572
88.720154047,-1,2,-8,-97,5,5,-90,3,-2,-31,111,124,3,28,201,118,13,77,208,24,120,118,1,7573
88.72896409,-1,2,-8,-86,2,-12,-92,4,-3,-36,-116,179,3,19,201,118,13,77,198,19,129,124,1,7574
88.746957063,-1,2,-8,-67,-3,-13,-76,0,-13,-166,181,-27,-2,24,194,118,23,42,169,47,121,133,1,7575
88.755960941,-2,2,-8,-76,-3,-8,-72,-3,-11,-98,60,-23,-10,25,188,118,23,42,176,45,117,132,1,7576
88.764985084,-2,2,-8,-86,7,0,-81,2,-3,114,104,98,-11,23,191,118,23,42,200,28,126,116,1,7577
88.774110078,-2,2,-8,-85,1,-7,-85,4,-3,95,-230,182,-7,15,195,118,23,42,197,24,129,120,1,7578
88.792073965,-2,2,-8,-87,6,-5,-86,3,-6,169,-139,45,-1,14,190,118,33,13,196,28,125,122,1,7579
88.801156044,-3,1,-8,-74,-4,-10,-80,1,-7,-84,69,-31,-2,14,185,118,33,13,183,36,123,129,1,7580
88.81076312,-3,1,-8,-83,11,-6,-78,3,-8,3,-47,23,6,12,182,118,33,13,185,37,128,120,1,7581
88.819195985,-3,1,-8,-69,-1,-9,-76,5,-8,-186,117,64,0,14,179,118,33,13,181,38,130,121,1,7582
88.836997985,-3,1,-8,-65,8,-9,-67,3,-9,123,-103,147,0,7,184,118,41,244,168,51,126,125,1,7583
88.846138,-4,1,-9,-60,11,-9,-62,10,-9,112,-224,47,0,4,183,118,41,244,167,52,138,112,1,7584
88.855702161,-4,1,-9,-34,3,-13,-47,7,-11,137,-120,141,1,-3,186,118,41,244,141,75,130,123,1,7585
88.864912033,-4,1,-9,-31,1,-11,-32,2,-12,-175,23,-51,1,-3,179,118,41,244,130,87,123,130,1,7586
88.893038988,-4,1,-9,-16,10,-7,-24,6,-9,47,-151,-40,4,-4,173,118,37,-113,128,93,132,117,1,7587
88.901955127,-3,1,-9,29,4,0,6,7,-3,17,-131,40,6,-9,178,118,37,-113,84,143,128,115,1,7588
88.91094613,-3,2,-9,52,0,3,40,2,1,-131,-131,204,2,-12,180,118,37,-113,48,181,117,124,1,7589
88.920002937,-3,1,-9,64,0,0,58,0,1,-191,-211,55,-9,-19,179,118,37,-113,45,182,119,124,1,7590
88.931257963,-3,1,-9,73,-2,3,68,0,1,-77,-98,156,-9,-30,174,118,34,-89,42,187,116,124,1,7591
88.940501928,-3,1,-9,103,-1,6,88,-1,4,-110,-67,65,-14,-32,174,118,34,-89,17,215,115,124,1,7592
88.949866056,-2,1,-9,97,-2,10,100,-1,8,27,-178,229,-7,-36,177,118,34,-89,13,222,114,120,1,7593
88.958873987,-2,1,-9,114,-5,15,106,-3,13,-5,-90,95,-6,-40,184,118,34,-89,15,224,109,122,1,7594
88.976202011,-2,1,-9,121,0,10,118,-2,12,39,-106,230,-7,-45,190,118,43,240,0,239,115,120,1,7595
88.98507595,-1,1,-8,113,0,12,117,0,11,-195,-208,130,-9,-50,189,118,43,240,8,229,117,116,1,7596
88.994899988,-1,0,-8,93,-10,19,103,-5,16,94,157,161,-10,-43,186,118,43,240,36,207,102,125,1,7597
89.004023075,-1,0,-8,103,-3,-1,98,-7,9,-155,77,-145,-15,-39,178,118,43,240,24,202,112,132,1,7598
89.021049976,-1,0,-8,57,-6,20,80,-5,9,130,161,210,-7,-33,178,118,50,214,61,182,109,118,1,7599
89.030910015,-1,0,-8,46,0,25,52,-3,22,163,-181,18,-2,-43,178,118,50,214,98,149,109,114,1,7600
89.040231943,-1,0,-8,32,-1,15,39,0,20,-26,111,163,-6,-46,176,118,50,214,93,147,116,115,1,7601
89.048962116,-1,0,-8,18,1,3,25,0,9,204,21,5,2,-45,180,118,50,214,103,127,119,120,1,7602
89.076899051,-2,0,-8,-11,-2,15,3,0,9,30,152,39,-1,-47,187,118,45,-137,136,104,113,117,1,7603
89.086091995,-2,0,-8,-24,4,4,-17,1,10,123,65,60,0,-49,185,118,45,-137,151,80,121,118,1,7604
89.096266031,-3,0,-8,-42,2,-1,-33,3,1,156,15,195,9,-49,186,118,45,-137,159,67,126,118,1,7605
89.104820966,-3,0,-8,-50,0,-6,-46,1,-4,-127,-134,15,4,-51,183,118,45,-137,168,55,122,126,1,7606
89.11500597,-4,0,-8,-47,3,-13,-49,2,-9,-100,-92,149,5,-52,177,118,41,-116,158,58,128,125,1,7607
89.125179052,-5,0,-8,-57,4,-5,-52,4,-9,53,-210,33,4,-58,182,118,41,-116,166,57,128,119,1,7608
89.133929014,-5,0,-8,-54,4,-11,-55,4,-8,122,76,255,7,-48,186,118,41,-116,167,51,130,122,1,7609
89.142825126,-6,0,-8,-66,6,-6,-60,5,-9,178,14,1,16,-52,187,118,41,-116,174,48,129,119,1,7610
89.15675497,-6,0,-8,-64,4,-6,-65,5,-6,-102,93,80,14,-49,190,118,37,-113,180,42,127,120,1,7611
89.162853002,-7,0,-8,-54,4,-20,-59,4,-13,108,12,78,19,-40,181,118,37,-113,160,51,132,128,1,7612
89.172069072,-7,1,-8,-55,3,-12,-55,3,-16,-149,-89,18,16,-45,178,118,37,-113,160,57,128,125,1,7613
89.183755159,-7,1,-8,-47,5,-17,-51,4,-15,-21,-228,127,16,-41,177,118,37,-113,156,57,132,125,1,7614
89.209120988,-8,1,-8,-36,3,-8,-42,4,-12,-41,-100,187,19,-48,182,118,34,-102,146,75,128,121,1,7615
89.219015121,-8,1,-8,-8,-1,-6,-22,0,-7,-41,-231,-66,27,-55,181,118,34,-102,120,102,120,128,1,7616
89.227995157,-9,1,-8,-4,-1,5,-6,-1,0,-240,-46,205,18,-59,177,118,34,-102,112,120,113,125,1,7617
89.237096071,-9,1,-8,11,-4,7,3,-3,6,0,20,221,16,-53,172,118,34,-102,108,125,113,124,1,7618
89.264968156,-9,1,-8,16,-6,0,14,-5,4,43,-59,242,13,-51,177,118,30,-92,96,132,112,130,1,7619
89.274270057,-9,1,-8,53,-3,1,35,-4,1,-70,-60,188,13,-60,182,118,30,-92,67,162,115,127,1,7620
89.283836126,-9,1,-8,56,-2,11,55,-3,6,-19,-198,9,6,-64,188,118,30,-92,53,184,114,120,1,7621
89.293008089,-9,1,-8,59,-6,11,58,-4,11,-139,-43,181,7,-68,191,118,30,-92,64,172,110,124,1,7622
89.320902109,-9,1,-8,70,-6,5,65,-6,8,47,-176,222,5,-70,193,118,27,-83,52,180,110,128,1,7623
89.329918146,-8,1,-8,71,3,12,70,-1,9,-128,191,121,0,-60,189,118,27,-83,50,187,117,115,1,7624
89.338963031,-8,1,-8,71,-1,1,71,0,7,-27,122,-11,-4,-41,178,118,27,-83,49,179,122,120,1,7625
89.349036932,-7,1,-8,49,3,20,60,0,10,35,-96,122,0,-44,183,118,27,-83,77,167,112,114,1,7626
89.376934051,-7,1,-8,56,-3,1,52,0,10,208,93,131,4,-38,187,118,25,-75,73,155,118,123,1,7627
89.386081934,-7,1,-8,15,-3,6,35,-3,4,-65,23,161,2,-34,184,118,25,-75,99,133,111,127,1,7628
89.395029068,-7,1,-8,18,1,-6,16,-1,0,-77,-58,186,4,-32,183,118,25,-75,114,108,123,125,1,7629
89.404808998,-7,1,-8,13,0,9,15,0,1,-46,95,22,7,-24,182,118,25,-75,106,129,118,117,1,7630
89.432105064,-7,1,-8,4,-5,3,8,-2,6,245,-217,43,15,-21,186,118,22,-68,116,115,113,127,1,7631
89.44195199,-7,1,-7,-16,0,11,-6,-2,7,-136,16,187,15,-19,183,118,22,-68,140,97,113,120,1,7632
89.450854063,-7,1,-7,-24,0,4,-20,0,8,7,48,-67,8,-13,175,118,22,-68,150,82,121,118,1,7633
89.459949016,-7,1,-7,-28,2,8,-26,1,6,-92,102,31,6,-8,167,118,22,-68,150,84,119,117,1,7634
89.487959146,-7,1,-7,-28,4,-4,-28,3,1,55,-48,1,6,-7,162,118,20,-62,144,81,126,119,1,7635
89.497594118,-8,1,-7,-43,1,-4,-35,3,-4,-48,-94,247,10,-4,164,118,20,-62,155,69,123,122,1,7636
89.505979061,-8,1,-7,-24,0,-9,-33,0,-6,-152,-34,140,3,-15,164,118,20,-62,144,76,122,127,1,7637
89.515922069,-8,1,-7,-36,2,-8,-30,1,-8,216,156,254,13,-13,174,118,20,-62,140,81,125,125,1,7638
89.543972969,-8,1,-8,-27,3,-4,-31,2,-6,-56,80,66,2,-15,170,118,18,-56,146,78,125,121,1,7639
89.552757024,-8,1,-8,-13,2,-13,-20,2,-9,231,-24,223,3,-11,169,118,18,-56,122,95,127,126,1,7640
89.56192398,-8,1,-8,-16,0,-6,-15,0,-10,-84,-14,125,2,-14,168,118,18,-56,125,98,121,126,1,7641
89.571996927,-8,1,-8,-7,1,-9,-12,0,-7,-116,-127,166,-5,-25,166,118,18,-56,122,98,124,126,1,7642
89.598891019,-8,1,-8,-1,1,0,-4,1,-4,139,-186,113,-2,-33,161,118,16,-50,114,113,122,121,1,7643
89.608807086,-8,1,-8,20,-1,1,9,0,0,-90,-175,164,-8,-39,164,118,16,-50,97,132,117,124,1,7644
89.617942094,-8,1,-8,13,-3,8,16,-2,4,-59,-108,187,-13,-42,164,118,16,-50,98,136,112,124,1,7645
89.626899004,-8,1,-8,27,-1,2,20,-2,5,24,-80,166,-9,-41,167,118,16,-50,96,134,116,124,1,7646
89.654843092,-8,1,-8,33,0,5,30,-1,3,203,24,50,-2,-38,171,118,15,-46,82,150,117,121,1,7647
89.664067983,-7,1,-8,31,-4,5,32,-2,5,229,-91,99,2,-35,167,118,15,-46,87,145,114,125,1,7648
89.67465496,-7,1,-8,46,0,0,39,-2,2,-143,24,95,-4,-36,163,118,15,-46,74,153,119,124,1,7649
89.682925939,-7,1,-8,35,-4,3,41,-1,1,57,-42,140,-7,-38,166,118,15,-46,78,153,117,123,1,7650
89.711043119,-7,0,-8,46,0,-2,40,-2,0,-140,-32,234,-8,-47,170,118,13,-41,77,148,119,126,1,7651
89.719896078,-7,0,-8,32,-1,7,39,0,2,116,-145,2,-8,-51,175,118,13,-41,83,150,118,119,1,7652
89.728978157,-7,0,-8,40,-2,1,36,-1,4,-144,-56,112,-8,-50,177,118,13,-41,85,143,117,125,1,7653
89.739032983,-7,0,-8,20,0,1,30,0,1,109,-161,46,-4,-49,175,118,13,-41,94,135,119,122,1,7654
89.767154932,-7,0,-8,25,-4,2,22,-2,2,175,-103,152,0,-49,174,118,12,-37,103,127,116,124,1,7655
89.775969982,-7,0,-7,3,0,2,14,-2,2,-98,54,239,0,-42,182,118,12,-37,111,118,116,124,1,7656
89.785012006,-7,0,-7,3,0,1,3,0,1,-9,-145,219,4,-44,182,118,12,-37,123,106,122,120,1,7657
89.794055938,-7,0,-7,-3,1,13,0,0,7,10,89,1,5,-42,183,118,12,-37,125,114,116,115,1,7658
89.822149992,-8,0,-7,-4,-1,3,-4,0,8,71,27,161,5,-40,181,118,11,-34,126,105,118,122,1,7659
89.83101511,-8,0,-7,-19,0,-1,-12,0,0,-205,122,10,2,-29,183,118,11,-34,135,92,119,124,1,7660
89.840790987,-8,0,-7,-15,-1,-1,-17,0,-1,60,-172,137,4,-29,186,118,11,-34,138,88,120,124,1,7661
89.849996089,-8,0,-7,-26,0,1,-21,0,0,33,-38,85,8,-29,190,118,11,-34,141,89,118,122,1,7662
89.877947092,-8,0,-7,-16,-1,-4,-21,0,-1,-27,-13,244,6,-24,184,118,10,-30,136,88,121,125,1,7663
89.888831138,-9,0,-7,-23,2,-3,-20,0,-4,125,-98,143,13,-32,185,118,10,-30,134,91,123,123,1,7664
89.895949125,-9,0,-7,-12,1,-1,-17,2,-2,104,-155,253,16,-45,191,118,10,-30,132,95,124,120,1,7665
89.906150102,-9,0,-8,-9,1,-8,-10,1,-5,3,-84,12,15,-45,195,118,10,-30,118,103,124,125,1,7666
89.933817148,-9,1,-8,-14,0,0,-11,0,-3,128,-213,137,13,-52,195,118,9,-27,130,98,119,123,1,7667
89.942928075,-9,1,-8,6,0,1,-4,0,1,48,-135,98,16,-56,200,118,9,-27,116,113,119,122,1,7668
89.952340126,-9,1,-7,2,-1,5,4,0,3,62,-89,33,20,-57,203,118,9,-27,108,123,117,122,1,7669
89.961985111,-10,1,-7,16,-1,0,9,-1,3,-167,-55,8,17,-61,202,118,9,-27,105,123,117,125,1,7670
89.989001989,-10,1,-7,7,-2,6,12,-1,3,-20,-28,69,10,-56,203,118,8,-25,107,126,115,122,1,7671
89.998986959,-10,1,-7,23,-2,4,15,-2,5,-9,-52,44,13,-58,206,118,8,-25,102,129,116,123,1,7672
90.010187149,-10,1,-7,22,1,0,22,0,2,63,-21,231,15,-60,213,118,8,-25,90,138,120,121,1,7673
90.017022132,-10,1,-7,17,-3,5,19,0,3,132,-48,93,20,-63,215,118,8,-25,103,128,116,122,1,7674
90.044975042,-10,1,-7,32,-1,-2,24,-2,1,-42,-174,223,11,-67,214,118,7,-22,89,136,117,127,1,7675
90.053971052,-9,1,-7,20,-3,-3,26,-2,-2,84,-212,166,15,-70,212,118,7,-22,90,135,118,127,1,7676
90.063003063,-10,1,-7,29,-1,8,25,-2,2,-199,-72,165,14,-71,212,118,7,-22,99,136,114,122,1,7677
90.072916984,-10,1,-7,21,-1,12,25,-1,10,-49,115,202,7,-72,211,118,7,-22,98,139,114,118,1,7678
90.104093074,-10,1,-7,30,-2,5,26,-2,8,-72,-40,224,6,-75,215,118,6,-20,95,137,114,124,1,7679
90.110135078,-10,1,-7,19,0,1,24,-1,3,-28,1,56,-5,-74,217,118,6,-20,96,133,117,124,1,7680
90.119176149,-10,1,-7,17,-6,2,18,-3,2,192,-23,178,0,-74,225,118,6,-20,107,123,113,127,1,7681
90.128869056,-10,1,-7,8,0,3,13,-3,3,-101,10,244,1,-71,227,118,6,-20,112,119,115,124,1,7682
90.155997991,-10,1,-7,10,2,0,9,1,1,170,12,8,2,-66,231,118,6,-18,112,116,124,118,1,7683
90.165905952,-10,1,-7,0,2,6,4,2,2,-158,-37,126,0,-62,230,118,6,-18,120,113,120,117,1,7684
90.174844026,-10,1,-7,2,0,-2,0,1,1,212,-86,53,7,-62,233,118,6,-18,120,106,121,124,1,7685
90.184162139,-11,1,-7,1,-1,-4,2,0,-3,-26,-198,90,5,-65,231,118,6,-18,113,111,119,126,1,7686
90.212078094,-11,1,-7,1,0,-8,1,0,-6,-11,-140,81,0,-69,232,118,5,-16,114,107,123,126,1,7687
90.221091032,-11,1,-7,-4,0,0,-1,0,-4,147,-38,110,-1,-67,232,118,5,-16,122,105,120,122,1,7688
90.230961084,-11,1,-7,-8,1,2,-6,0,1,183,5,87,6,-68,232,118,5,-16,130,100,120,120,1,7689
90.239948034,-11,1,-7,-6,0,-1,-7,1,0,-114,-24,146,2,-67,232,118,5,-16,126,101,121,122,1,7690
90.267974138,-11,1,-7,-7,1,3,-6,0,0,-48,-49,27,4,-61,233,118,5,-15,126,104,119,121,1,7691
90.277070999,-12,1,-7,0,0,-4,-3,0,0,-136,-105,67,-1,-60,235,118,5,-15,117,107,121,125,1,7692
90.286884069,-12,1,-7,-7,-1,0,-3,-1,-2,64,-4,50,3,-59,240,118,5,-15,122,106,117,125,1,7693
90.296370029,-12,1,-7,1,1,2,-3,0,1,118,89,140,3,-53,242,118,5,-15,122,107,119,121,1,7694
90.32412815,-12,1,-7,0,1,-2,0,1,0,-131,101,35,-3,-48,239,118,4,-13,115,111,122,122,1,7695
90.332826137,-12,1,-7,3,-2,0,1,0,0,38,35,133,0,-48,236,118,4,-13,116,112,117,125,1,7696
90.341956138,-12,1,-7,12,0,-4,8,0,-1,-136,-138,235,-3,-48,237,118,4,-13,103,121,120,125,1,7697
90.352380037,-12,1,-7,11,-3,1,11,-1,-1,52,-163,70,-2,-54,238,118,4,-13,105,124,117,124,1,7698
90.37929511,-12,1,-7,15,0,-6,13,-1,-2,93,-169,58,-1,-59,242,118,4,-12,102,120,121,127,1,7699
90.388123989,-11,1,-7,19,0,10,17,0,1,69,78,254,4,-60,242,118,4,-12,103,133,117,117,1,7700
90.397011041,-11,1,-7,24,0,5,21,0,7,-13,45,89,3,-55,234,118,4,-12,96,136,117,121,1,7701
90.406847953,-11,1,-7,19,-1,8,22,0,6,-54,57,98,0,-53,228,118,4,-12,100,134,115,120,1,7702
90.434107065,-11,0,-7,20,-3,0,19,-2,4,-50,76,84,0,-50,231,118,3,-11,101,127,116,126,1,7703
90.443935155,-11,0,-7,14,-1,4,17,-2,2,-32,-120,247,-3,-51,233,118,3,-11,106,126,115,123,1,7704
90.452979087,-11,0,-7,17,0,-2,16,0,1,126,190,55,-3,-42,235,118,3,-11,103,123,121,123,1,7705
90.462100982,-11,0,-7,21,4,1,19,1,0,-73,29,225,-11,-39,234,118,3,-11,97,131,123,118,1,7706
90.490206956,-10,0,-7,19,-1,0,20,1,0,177,-26,153,-10,-35,234,118,3,-10,99,130,120,121,1,7707
90.499068021,-10,0,-7,10,-1,-5,14,-1,-2,-85,-39,187,-13,-32,230,118,3,-10,107,117,118,128,1,7708
90.508953094,-10,0,-7,8,0,-3,9,0,-4,-124,-220,60,-18,-36,231,118,3,-10,113,113,121,124,1,7709
90.518057107,-10,0,-7,3,-1,-10,5,0,-6,22,-27,131,-13,-41,234,118,3,-10,111,108,123,128,1,7710
90.545828104,-10,0,-7,0,2,-10,1,0,-10,149,-239,221,-9,-47,231,118,3,-9,115,104,125,125,1,7711
90.555076122,-10,0,-7,0,0,3,0,1,-3,46,1,18,-7,-45,224,118,3,-9,120,111,121,119,1,7712
90.564244031,-10,0,-7,-10,-2,0,-5,-1,1,35,59,199,-8,-43,223,118,3,-9,127,100,117,125,1,7713
90.573900938,-10,0,-7,-2,-2,-2,-6,-2,-1,56,-156,55,-10,-46,229,118,3,-9,124,102,118,126,1,7714
90.601871967,-10,0,-7,-10,-1,1,-6,-2,0,125,0,72,0,-41,231,118,2,-8,124,105,118,124,1,7715
90.611041069,-10,0,-7,-5,2,0,-7,0,0,83,-47,89,0,-37,236,118,2,-8,127,101,122,120,1,7716
90.62008214,-10,0,-7,-3,1,0,-4,2,0,148,30,174,8,-35,236,118,2,-8,120,108,124,119,1,7717
90.629894971,-10,0,-7,-2,1,0,-3,1,0,-76,82,109,8,-36,234,118,2,-8,119,108,122,121,1,7718
90.657895088,-10,0,-7,-4,1,0,-3,1,0,-161,-74,113,5,-36,231,118,2,-7,122,106,121,120,1,7719
90.666849136,-10,0,-7,-2,-2,-1,-3,0,0,38,-96,176,14,-39,227,118,2,-7,121,106,119,125,1,7720
90.675869941,-10,0,-7,7,0,-3,2,0,-2,-224,-109,213,3,-41,222,118,2,-7,109,116,120,125,1,7721
90.68575406,-10,0,-7,0,1,3,4,0,0,177,90,5,10,-39,222,118,2,-7,114,117,121,119,1,7722
90.713029146,-10,0,-7,7,0,3,4,0,3,-65,75,98,4,-37,218,118,2,-6,116,115,119,121,1,7723
90.722936153,-10,0,-7,14,1,4,10,0,3,134,-14,48,11,-37,223,118,2,-6,104,127,118,120,1,7724
90.731950044,-10,0,-7,10,-3,-1,12,0,1,132,-59,7,10,-36,222,118,2,-6,104,122,119,125,1,7725
90.741091966,-10,0,-7,16,1,-4,13,0,-3,-157,-136,225,6,-35,218,118,2,-6,102,122,121,125,1,7726
90.769009113,-10,0,-7,15,-4,0,16,-1,-1,119,-45,107,9,-32,219,118,2,-6,101,127,117,124,1,7727
90.781459093,-9,0,-7,17,1,2,16,-1,1,-69,-3,139,4,-31,220,118,2,-6,103,127,117,123,1,7728
90.787878036,-9,0,-7,14,0,5,16,0,3,-66,77,91,-1,-30,220,118,2,-6,105,127,120,118,1,7729
90.797079086,-9,0,-7,15,2,0,15,0,2,-152,-155,137,-2,-33,220,118,2,-6,104,124,121,121,1,7730
90.824896097,-9,0,-7,9,-1,7,12,0,3,138,-149,216,2,-35,218,118,1,-5,111,122,117,119,1,7731
90.834315061,-9,0,-7,11,-4,2,10,-2,5,7,76,176,5,-31,221,118,1,-5,111,119,113,127,1,7732
90.843135118,-9,0,-7,6,3,1,8,0,1,11,114,10,4,-28,220,118,1,-5,111,118,120,121,1,7733
90.852910041,-8,0,-7,7,0,-1,6,1,0,187,194,173,6,-25,221,118,1,-5,112,115,123,120,1,7734
90.880947113,-8,0,-7,3,3,1,5,1,0,-10,28,111,9,-27,222,118,1,-5,114,116,120,120,1,7735
90.889899969,-8,0,-7,2,0,0,2,1,0,126,-70,192,11,-36,224,118,1,-5,117,111,122,121,1,7736
90.899052143,-8,0,-7,4,0,-2,3,0,-1,122,-209,90,17,-38,227,118,1,-5,113,113,120,124,1,7737
90.908946037,-8,0,-7,0,0,-6,2,0,-4,-10,-139,123,16,-37,222,118,1,-5,113,110,121,126,1,7738
90.936108112,-8,0,-7,1,0,-2,1,0,-4,-183,-120,151,9,-36,218,118,1,-4,116,110,121,124,1,7739
90.945897102,-8,0,-7,-4,1,0,-1,0,-1,111,-14,162,10,-38,215,118,1,-4,121,107,121,121,1,7740
90.955059051,-8,1,-7,0,0,1,-2,0,0,14,34,180,11,-39,218,118,1,-4,120,108,120,121,1,7741
90.963947057,-8,1,-7,-12,0,1,-5,0,1,-69,100,231,10,-38,221,118,1,-4,127,102,118,123,1,7742
90.991930961,-9,1,-7,0,-1,-1,-5,-1,0,-116,-99,64,8,-42,220,118,1,-4,123,104,118,125,1,7743
91.001224041,-9,1,-7,-2,2,-3,-1,0,-2,-219,77,151,4,-37,218,118,1,-4,113,112,122,123,1,7744
91.010946989,-9,1,-7,0,2,0,-1,2,-1,16,-128,186,1,-45,215,118,1,-4,119,109,124,118,1,7745
91.019923925,-9,1,-7,0,2,-2,0,2,-1,183,-31,208,14,-47,214,118,1,-4,115,110,123,121,1,7746
91.047981977,-9,1,-7,4,0,-1,2,1,-2,65,-40,131,11,-47,214,118,1,-3,113,113,120,123,1,7747
91.056983947,-9,1,-7,8,0,-2,6,0,-2,102,-82,227,16,-48,215,118,1,-3,107,119,119,125,1,7748
91.066285133,-9,1,-7,2,-2,3,5,-1,0,-31,90,1,18,-40,213,118,1,-3,115,116,116,123,1,7749
91.075905084,-9,1,-7,10,0,-1,6,-1,1,-54,39,62,10,-32,212,118,1,-3,110,117,118,125,1,7750
91.103063106,-9,1,-7,3,0,4,6,0,1,124,-59,27,9,-28,213,118,1,-3,112,119,118,121,1,7751
91.112857103,-9,1,-7,7,-1,3,5,-1,3,-128,55,86,5,-26,221,118,1,-3,115,115,117,123,1,7752
91.122246027,-9,1,-7,10,0,-3,8,0,0,158,5,15,8,-28,223,118,1,-3,105,120,121,124,1,7753
91.131078958,-8,1,-7,7,-2,-2,8,0,-3,193,19,10,11,-23,222,118,1,-3,108,118,120,125,1,7754
91.158941984,-8,1,-7,12,1,0,9,0,-1,-207,-73,214,3,-25,219,118,1,-3,107,121,120,123,1,7755
91.168066978,-8,1,-7,4,0,3,8,0,1,129,-5,151,4,-24,214,118,1,-3,112,119,119,120,1,7756
91.177883148,-8,1,-7,12,1,1,8,0,2,-102,-47,177,-1,-26,214,118,1,-3,110,119,119,121,1,7757
91.187081098,-8,1,-7,7,0,4,10,0,3,20,183,173,0,-24,216,118,1,-3,108,124,119,120,1,7758
91.215039014,-8,1,-7,10,-3,0,9,-1,1,-143,6,185,1,-21,218,118,0,-2,109,119,116,127,1,7759
91.224180936,-8,1,-7,6,-1,2,8,-2,0,-195,138,30,-4,-16,221,118,0,-2,110,120,115,125,1,7760
91.233046054,-7,1,-7,5,1,0,6,0,0,-55,-32,211,0,-14,221,118,0,-2,113,114,121,121,1,7761
91.24309206,-7,1,-7,4,3,1,4,2,0,25,-121,216,-4,-19,219,118,0,-2,114,115,123,118,1,7762
91.270972967,-7,1,-7,3,0,0,3,1,0,63,46,146,-1,-20,221,118,0,-2,114,113,120,123,1,7763
91.279901981,-7,1,-7,0,-1,-2,2,-1,-1,-81,-44,67,-6,-20,221,118,0,-2,115,111,118,127,1,7764
91.288854122,-7,1,-7,-2,0,-5,0,0,-4,181,-242,195,-5,-25,219,118,0,-2,117,106,121,126,1,7765
91.298964023,-7,0,-7,-2,0,-2,-2,0,-4,143,-117,61,2,-25,222,118,0,-2,119,106,121,123,1,7766
91.326915979,-7,0,-7,1,-2,-4,0,-1,-3,-119,71,202,-3,-22,218,118,0,-2,115,110,119,126,1,7767
91.33595395,-7,0,-7,-2,-1,2,0,-1,0,205,143,196,3,-18,219,118,0,-2,118,111,116,124,1,7768
91.344994068,-7,0,-7,-1,1,6,-2,0,4,-190,193,150,0,-15,221,118,0,-2,123,110,119,118,1,7769
91.354800939,-7,0,-7,1,0,-6,0,0,0,-38,48,40,2,-10,225,118,0,-2,113,110,123,124,1,7770
91.381936073,-7,0,-7,-6,-1,0,-2,0,-3,-14,23,42,0,-6,227,118,0,-2,121,106,118,125,1,7771
91.391855955,-6,0,-7,1,2,2,-2,0,1,-104,-112,119,-3,-10,225,118,0,-2,120,110,121,119,1,7772
91.400980949,-6,0,-7,1,1,1,1,1,1,168,-37,63,0,-14,227,118,0,-2,112,117,122,119,1,7773
91.410124063,-6,0,-7,1,2,0,1,2,0,-15,-12,31,-4,-19,223,118,0,-2,115,113,122,120,1,7774
91.438043117,-6,0,-7,5,0,3,3,1,1,-118,19,77,-7,-20,222,118,0,-1,113,118,119,120,1,7775
91.446939945,-6,0,-7,-1,0,0,2,0,1,9,-87,189,-10,-14,222,118,0,-1,115,112,118,124,1,7776
91.456927061,-6,0,-7,7,-1,-1,3,-1,-1,-96,-38,40,-15,-9,221,118,0,-1,112,115,118,125,1,7777
91.465830087,-6,0,-7,5,0,1,6,-1,0,-50,90,60,-16,-4,226,118,0,-1,108,121,118,122,1,7778
91.493966102,-6,0,-7,11,0,1,8,0,1,-30,-18,219,-13,-1,227,118,0,-1,108,121,119,122,1,7779
91.503123998,-5,0,-7,11,-1,1,11,-1,1,-75,52,221,-17,0,229,118,0,-1,103,125,118,124,1,7780
91.513195991,-5,0,-7,2,0,3,7,0,2,50,-87,125,-16,-2,227,118,0,-1,114,116,118,121,1,7781
91.521902084,-5,0,-7,7,1,-2,5,0,0,13,-31,182,-14,-6,226,118,0,-1,112,114,123,121,1,7782
91.549196004,-5,0,-7,3,0,-1,5,1,-2,130,42,211,-8,-2,223,118,0,-1,109,117,122,121,1,7783
91.559121131,-4,0,-7,9,0,1,6,0,0,133,-130,205,0,-7,225,118,0,-1,109,120,119,121,1,7784
91.567945957,-4,0,-7,-2,1,1,3,1,1,67,50,108,1,-3,223,118,0,-1,115,113,121,120,1,7785
91.576982975,-4,0,-7,7,1,2,2,1,1,-210,-3,152,-8,-2,221,118,0,-1,115,114,121,119,1,7786
91.604952096,-4,0,-7,2,0,-1,4,0,0,92,90,15,-7,0,225,118,0,-1,109,118,120,123,1,7787
91.614019155,-4,0,-7,0,-2,0,0,-1,0,-50,-22,122,-11,2,229,118,0,-1,118,109,117,125,1,7788
91.623907089,-4,0,-7,2,3,0,0,0,0,-109,-20,58,-13,0,230,118,0,-1,115,113,122,120,1,7789
91.63322401,-4,0,-7,0,-2,2,0,0,1,135,-108,29,-2,-4,229,118,0,-1,116,114,120,120,1,7790
91.660906076,-4,0,-7,0,2,-1,0,0,0,-1,-34,141,-5,-3,226,118,0,-1,117,110,121,123,1,7791
91.669886112,-4,0,-7,-3,-1,0,-2,0,0,66,-79,121,0,-7,220,118,0,-1,119,109,121,121,1,7792
91.679075956,-3,0,-7,-2,0,-1,-2,0,0,245,-34,246,1,-8,220,118,0,-1,118,108,119,124,1,7793
91.689037084,-3,0,-7,-5,1,0,-3,0,-1,25,111,239,-2,-5,219,118,0,-1,120,108,122,120,1,7794
91.716854095,-3,0,-7,-2,0,-2,-3,1,-1,-11,-38,225,-4,-4,219,118,0,-1,118,107,122,122,1,7795
91.726222038,-3,0,-7,-2,0,2,-2,0,0,-144,92,149,-10,-2,219,118,0,-1,118,112,119,121,1,7796
91.73510909,-3,0,-7,0,-2,3,-1,-1,2,-26,43,251,-8,0,221,118,0,-1,117,113,117,123,1,7797
91.745025157,-3,0,-7,0,2,-1,0,0,0,73,-17,238,-7,-5,223,118,0,-1,113,113,122,122,1,7798
91.771939039,-3,0,-7,1,-1,-1,1,0,-1,129,93,108,0,-3,221,118,0,-1,113,114,122,122,1,7799
91.781830072,-3,0,-7,3,-1,2,2,-1,0,19,-111,80,4,-9,222,118,0,-1,112,118,117,123,1,7800
91.790997982,-3,0,-7,1,0,1,2,0,2,56,-196,201,7,-13,222,118,0,-1,114,116,119,122,1,7801
91.80004096,-3,0,-7,1,-1,-1,1,0,0,-40,-184,3,5,-15,223,118,0,-1,114,113,120,123,1,7802
91.828031063,-3,0,-7,1,0,0,1,0,-1,-17,68,228,3,-14,225,118,0,0,113,114,120,123,1,7803
91.836956977,-3,0,-7,7,-2,1,4,-1,0,57,233,74,7,-7,225,118,0,0,109,120,118,123,1,7804
91.848711013,-3,0,-7,-1,1,8,3,0,5,-144,147,211,0,2,225,118,0,0,117,118,117,118,1,7805
91.856116056,-3,0,-7,4,0,-4,1,0,2,54,39,203,-3,6,223,118,0,0,113,112,123,122,1,7806
91.883976936,-2,0,-7,4,0,-3,4,0,-3,48,-120,223,1,1,223,118,0,0,107,119,121,124,1,7807
91.893392086,-2,0,-7,-3,1,-6,0,1,-4,68,-199,105,-2,-7,221,118,0,0,116,108,124,123,1,7808
91.90192008,-2,0,-7,4,0,3,0,0,-1,107,-65,224,5,-13,223,118,0,0,116,115,119,120,1,7809
91.912152051,-2,0,-7,-1,0,3,1,0,3,30,79,160,6,-12,219,118,0,0,114,117,118,121,1,7810
91.939141035,-2,0,-7,3,0,2,1,0,3,-220,22,51,1,-12,213,118,0,0,116,114,119,121,1,7811
91.948933124,-2,0,-7,-3,0,0,0,0,1,-129,60,226,1,-8,209,118,0,0,116,113,119,123,1,7812
91.957930088,-2,0,-7,5,-3,-1,1,-2,0,-148,70,91,-6,-5,210,118,0,0,113,114,118,126,1,7813
91.967025995,-2,0,-7,-7,0,3,-1,-2,0,-48,-95,97,-7,-8,218,118,0,0,119,111,117,123,1,7814
91.994976997,-2,0,-7,1,1,0,-3,0,1,183,76,234,0,-6,222,118,0,0,120,108,123,119,1,7815
92.004141092,-2,0,-7,-2,0,0,0,0,0,-4,40,250,0,-3,224,118,0,0,113,114,121,121,1,7816
92.013947963,-2,0,-7,-7,0,3,-5,0,1,171,-57,122,6,-3,219,118,0,0,125,105,119,121,1,7817
92.023018121,-2,0,-7,1,0,0,-3,0,1,-76,-94,98,5,-8,214,118,0,0,116,111,120,123,1,7818
92.051142931,-2,0,-7,-2,0,3,0,0,1,-14,44,1,5,-6,215,118,0,0,115,116,119,121,1,7819
92.059957027,-2,0,-7,4,0,0,0,0,1,-79,-27,44,5,-8,217,118,0,0,112,115,120,122,1,7820
92.069004058,-2,0,-7,-2,0,5,1,0,2,-87,147,3,2,-2,220,118,0,0,116,117,118,120,1,7821
92.07926011,-2,0,-7,5,-1,0,1,0,2,-23,47,194,1,0,220,118,0,0,113,115,119,123,1,7822
92.106966018,-2,0,-7,1,-1,5,3,-1,2,3,-91,163,-1,-4,219,118,0,0,112,120,115,123,1,7823
92.116038084,-2,0,-7,2,0,-3,2,0,0,114,-194,188,-2,-5,219,118,0,0,113,112,121,124,1,7824
92.125106096,-2,0,-7,0,1,-3,1,0,-3,71,-141,215,-2,-10,221,118,0,0,113,112,123,122,1,7825
92.134849071,-2,0,-7,-5,-1,1,-2,0,0,150,13,196,6,-10,222,118,0,0,121,108,119,122,1,7826
92.161916971,-2,0,-7,4,0,0,0,0,0,-202,-44,173,0,-13,220,118,0,0,113,114,119,124,1,7827
92.172017097,-2,0,-7,-4,0,1,0,0,0,-28,131,230,0,-9,216,118,0,0,116,114,119,121,1,7828
92.181030035,-2,0,-7,3,0,2,0,0,2,-223,98,40,-2,-6,216,118,0,0,116,114,119,121,1,7829
92.190005064,-2,0,-7,-1,-1,4,1,0,3,23,-24,221,-5,-4,214,118,0,0,114,117,117,121,1,7830
92.217915058,-2,0,-7,4,0,0,1,0,2,153,121,45,-1,0,218,118,0,0,113,115,119,123,1,7831
92.226948976,-2,0,-7,5,1,-3,5,0,-1,16,-121,41,-2,-1,223,118,0,0,106,119,123,122,1,7832
92.236925125,-2,0,-7,3,0,-3,4,0,-3,187,-98,235,-4,-3,222,118,0,0,110,115,122,123,1,7833
92.246375083,-2,0,-7,7,0,0,5,0,-1,-212,6,216,-10,-6,222,118,0,0,109,119,119,123,1,7834
92.273895025,-2,0,-7,-2,0,2,2,0,1,-18,-116,188,-4,-8,221,118,0,0,115,114,119,121,1,7835
92.282935142,-2,0,-7,3,3,0,0,1,0,-123,-51,223,-3,-11,223,118,0,0,115,112,124,119,1,7836
92.292102098,-2,0,-7,-3,0,1,0,1,0,32,116,20,-2,-9,223,118,0,0,115,114,122,119,1,7837
92.301980972,-2,0,-7,0,-2,2,-1,-1,1,89,65,45,-1,-7,225,118,0,0,119,110,115,125,1,7838
92.329950094,-2,0,-7,-1,0,2,-1,-1,2,-46,-3,226,-6,-10,228,118,0,0,116,113,117,123,1,7839
92.338886022,-2,0,-7,-2,0,-1,-2,0,0,47,12,212,-5,-7,225,118,0,0,117,110,121,123,1,7840
92.347912073,-2,0,-7,1,3,-1,0,1,-1,-44,-154,208,-8,-6,225,118,0,0,113,114,124,120,1,7841
92.358026981,-2,0,-7,0,0,0,0,1,0,237,-8,168,-1,-1,223,118,0,0,113,115,122,120,1,7842
92.384979963,-2,0,-7,0,0,-3,0,0,-1,-213,69,173,-6,-1,221,118,0,0,115,111,119,125,1,7843
92.394899129,-2,0,-7,-5,0,0,-3,0,-2,145,64,177,-3,-5,217,118,0,0,120,108,121,122,1,7844
92.40406394,-2,0,-7,-2,-1,0,-4,0,0,-21,-90,199,-7,-11,217,118,0,0,120,108,119,123,1,7845
92.412898063,-2,0,-7,-6,1,8,-4,0,4,-7,-30,7,-8,-13,219,118,0,0,123,112,117,119,1,7846
92.440842151,-2,0,-7,-6,-3,2,-6,-1,5,201,78,151,-4,-8,223,118,0,0,124,106,117,123,1,7847
92.450106144,-2,0,-7,-6,3,-4,-6,0,-1,10,-36,170,-6,-4,225,118,0,0,119,105,123,123,1,7848
92.459846973,-2,0,-7,-6,0,-8,-6,1,-6,60,143,147,-1,0,223,118,0,0,118,103,126,123,1,7849
92.469015121,-2,0,-7,-4,3,-3,-5,1,-5,-215,14,202,-7,0,224,118,0,0,118,107,123,122,1,7850
92.496869087,-2,0,-7,-2,-1,-3,-3,1,-3,22,-214,215,-1,-6,228,118,0,0,115,110,123,122,1,7851
92.506000042,-2,0,-7,-4,0,1,-3,0,-1,-239,-40,252,-3,-9,229,118,0,0,118,110,117,124,1,7852
92.514999151,-2,0,-7,-1,0,1,-2,0,1,-87,19,239,-2,-10,226,118,0,0,117,111,120,122,1,7853
92.525004148,-2,0,-7,0,-1,0,0,-1,0,204,65,40,3,-6,225,118,0,0,113,114,119,124,1,7854
92.553300142,-2,0,-7,-2,1,1,-1,0,0,-122,141,126,-3,-5,222,118,0,0,117,112,120,120,1,7855
92.562004089,-2,0,-7,2,0,-2,0,0,0,12,74,228,3,-4,221,118,0,0,113,113,122,122,1,7856
92.571148157,-2,0,-7,0,1,-5,1,0,-4,-221,10,1,-6,-2,225,118,0,0,110,114,123,124,1,7857
92.580862999,-2,0,-7,0,0,-5,0,0,-5,-101,-164,94,-7,-4,225,118,0,0,113,110,123,124,1,7858
92.607963085,-2,0,-7,2,1,-4,1,0,-5,97,-186,80,-4,-10,227,118,0,0,111,113,123,124,1,7859
92.617841959,-2,0,-7,0,0,4,1,1,0,-154,88,217,-6,-7,225,118,0,0,115,116,120,119,1,7860
92.626944065,-2,0,-7,1,-2,3,0,0,3,99,94,25,-1,-8,225,118,0,0,116,114,117,123,1,7861
92.636171102,-2,0,-7,2,1,5,1,0,4,34,100,221,0,-7,226,118,0,0,114,118,118,120,1,7862
92.663964033,-2,0,-7,2,-1,-5,2,0,0,2,106,253,0,-2,228,118,0,0,110,114,122,124,1,7863
92.673049926,-1,0,-7,2,1,-2,2,0,-3,-86,-52,208,-5,1,229,118,0,0,111,115,122,122,1,7864
92.683125972,-1,0,-7,2,0,0,2,1,-1,4,-87,168,-7,2,227,118,0,0,112,115,122,121,1,7865
92.691848039,-1,0,-7,2,0,-1,2,0,-1,-54,-29,242,-12,1,228,118,0,0,111,115,120,123,1,7866
92.719975948,-1,0,-7,-1,0,-1,0,0,-1,193,63,203,-2,4,229,118,0,0,114,112,120,123,1,7867
92.729073047,-1,0,-7,0,-1,0,0,-1,0,-5,60,247,-1,2,230,118,0,0,116,112,118,124,1,7868
92.739974975,-1,0,-7,-6,0,3,-3,0,1,-25,71,208,3,1,227,118,0,0,121,109,119,120,1,7869
92.748162984,-1,0,-7,-6,-1,0,-6,0,1,109,-4,251,5,2,228,118,0,0,124,104,120,122,1,7870
92.775954961,-1,0,-7,-5,0,0,-6,0,0,22,4,2,2,0,227,118,0,0,120,107,120,123,1,7871
92.785047054,-1,0,-7,0,0,-4,-3,0,-2,144,-155,184,5,-1,224,118,0,0,114,111,122,123,1,7872
92.794202089,-1,0,-7,-1,0,1,-1,0,-1,-70,20,16,-1,1,225,118,0,0,115,114,118,123,1,7873
92.803843975,-1,0,-7,0,1,5,0,0,3,-88,169,234,1,5,226,118,0,0,117,115,119,119,1,7874
92.830950021,-1,0,-7,5,0,0,3,0,3,35,-113,197,3,5,226,118,0,0,109,120,121,121,1,7875
92.840938091,-1,0,-7,13,0,-2,9,0,0,-144,-66,214,2,5,226,118,0,0,99,127,121,123,1,7876
92.850229024,0,0,-7,23,-1,-5,18,0,-3,54,-166,211,3,-1,224,118,0,0,87,136,121,125,1,7877
92.859179973,0,0,-7,20,0,-2,21,0,-4,66,-43,185,2,-4,221,118,0,0,90,136,121,123,1,7878
92.887099981,0,0,-7,28,-1,-3,24,0,-3,-64,12,181,2,-4,220,118,0,0,88,137,121,124,1,7879
92.89599204,0,0,-7,35,0,3,32,0,0,78,-23,189,3,-4,220,118,0,0,79,152,118,121,1,7880
92.905931949,0,0,-7,43,-3,1,39,-1,2,33,-16,201,5,-1,219,118,0,0,71,158,117,124,1,7881
92.914996147,0,0,-7,45,-1,7,44,-2,4,-85,-11,24,-3,-1,222,118,0,0,71,163,114,123,1,7882
92.942887067,0,0,-7,51,-4,12,48,-3,9,189,36,51,7,-2,226,118,0,0,70,168,112,120,1,7883
92.952060937,1,0,-7,60,-4,3,55,-4,8,-49,131,167,2,0,225,118,0,0,56,175,113,126,1,7884
92.961295127,1,0,-7,67,-3,10,63,-4,7,-91,165,21,6,5,227,118,0,0,51,186,112,122,1,7885
92.970881938,2,0,-7,68,-5,14,67,-4,12,-133,8,210,3,6,226,118,0,0,51,188,110,121,1,7886
92.999068021,2,0,-7,77,-4,4,73,-4,9,-69,-62,23,-3,3,223,118,0,0,41,190,113,125,1,7887
93.018542051,4,0,-7,67,-2,7,72,-3,5,34,-15,6,-2,3,225,122,0,0,52,190,120,125,1,7888
93.023427963,4,0,-7,64,-5,5,65,-3,6,-103,1,195,-13,0,226,122,0,0,62,179,117,128,1,7889
93.032945156,4,0,-7,73,-2,-6,69,-4,0,-98,-57,231,-10,-1,227,122,0,0,45,185,123,133,1,7890
93.060836076,4,0,-7,65,-4,-4,69,-3,-5,-43,-58,161,-11,2,226,122,0,0,48,185,123,131,1,7891
93.076768159,6,0,-7,47,-2,9,56,-3,2,11,148,204,-5,13,224,124,0,0,79,168,119,127,1,7892
93.084984064,6,0,-7,49,0,7,48,-1,8,34,50,189,-2,14,223,124,0,0,81,165,123,125,1,7893
93.095092058,6,0,-7,47,-4,1,48,-2,4,112,68,12,-4,14,222,124,0,0,72,169,123,130,1,7894
93.128210067,6,0,-7,36,-5,5,42,-4,3,34,54,185,0,18,224,126,0,0,87,162,119,134,1,7895
93.138391017,7,0,-7,28,0,6,32,-3,6,-96,103,123,-9,19,221,126,0,0,99,150,123,129,1,7896
93.146947145,7,0,-7,29,0,2,28,0,4,-25,11,197,-5,19,220,126,0,0,96,150,129,127,1,7897
93.155959129,7,0,-6,23,0,6,26,0,4,-10,169,144,-2,27,221,126,0,0,99,150,126,126,1,7898
93.18384695,7,0,-6,26,0,2,24,0,4,-69,7,149,-6,32,216,126,0,0,98,148,127,129,1,7899
93.193315029,7,0,-6,15,0,2,21,0,2,103,130,116,0,33,220,126,0,0,103,143,126,129,1,7900
93.202086925,8,0,-6,15,-1,0,15,0,1,-161,-9,210,-7,30,218,126,0,0,110,135,127,131,1,7901
93.211825132,8,-1,-6,16,-4,-8,15,-3,-4,-22,-61,150,-8,26,223,126,0,0,100,137,126,138,1,7902
93.239984989,8,-1,-6,17,0,-5,17,-2,-6,-102,49,160,-11,25,221,126,0,0,100,141,128,134,1,7903
93.249036073,8,-1,-7,26,-2,-5,21,-1,-5,4,145,159,-8,30,220,126,0,0,92,148,129,133,1,7904
93.258005142,8,-1,-7,24,-4,-6,25,-3,-6,-39,-6,113,-9,32,218,126,0,0,90,149,126,137,1,7905
93.267847061,8,-1,-7,30,-4,-6,27,-4,-6,23,-83,47,-7,31,220,126,0,0,89,150,126,137,1,7906
93.295151948,8,-1,-7,26,-3,-2,28,-4,-4,124,7,136,-9,29,218,126,0,0,90,152,125,135,1,7907
93.304800987,9,-1,-7,30,-4,-8,28,-3,-5,14,112,47,-9,30,219,126,0,0,88,149,128,137,1,7908
93.313904047,9,-1,-7,28,-3,-6,29,-3,-7,18,164,193,-8,33,219,126,0,0,88,152,127,135,1,7909
93.322963953,9,-1,-7,31,-3,2,29,-3,-1,-54,211,51,-12,38,220,126,0,0,90,156,124,132,1,7910
93.350935936,9,-1,-7,34,-4,2,33,-4,2,-52,172,211,-14,42,219,126,0,0,85,161,123,133,1,7911
93.359956026,10,-1,-7,29,-3,1,32,-3,1,-123,10,9,-20,47,221,126,0,0,89,156,125,132,1,7912
93.369979143,10,-1,-7,30,-2,1,29,-2,1,102,-23,137,-16,45,218,126,0,0,92,153,126,131,1,7913
93.384796142,10,-1,-7,24,-2,9,27,-2,5,130,127,245,-10,44,218,126,0,0,98,154,122,128,1,7914
93.407006979,10,-1,-7,29,1,0,27,0,5,124,99,117,-8,50,216,126,0,0,93,152,129,128,1,7915
93.416053056,11,-1,-7,16,0,10,23,0,5,-12,138,67,-5,55,219,126,0,0,104,149,127,123,1,7916
93.424901962,11,-1,-7,17,2,12,17,1,11,-109,135,244,-9,62,220,126,0,0,112,143,125,122,1,7917
93.434988021,11,-1,-6,15,3,16,16,2,14,-96,121,88,-13,67,224,126,0,0,109,148,126,119,1,7918
93.46197009,11,-1,-6,8,1,11,11,2,14,-102,-9,183,-14,66,224,126,0,0,115,139,126,122,1,7919
93.472304105,12,-1,-6,-2,6,17,2,3,14,211,70,214,-11,68,224,126,0,0,129,129,126,117,1,7920
93.481089115,12,-1,-6,-6,9,14,-4,7,16,-23,206,36,-12,74,220,126,0,0,134,123,133,112,1,7921
93.489933013,12,-1,-6,-13,7,16,-9,8,15,107,209,206,-7,79,218,126,0,0,138,120,130,114,1,7922
93.517903089,12,-1,-6,-14,5,9,-13,6,12,-92,119,107,-14,82,213,126,0,0,138,114,129,121,1,7923
93.527045011,12,-1,-6,-44,4,0,-29,4,4,221,48,75,-8,79,211,126,0,0,158,86,132,126,1,7924
93.53690505,12,-1,-6,-39,4,-5,-41,4,-2,-126,166,68,-8,79,206,126,0,0,166,75,134,128,1,7925
93.546043157,12,-1,-6,-54,3,-6,-46,3,-5,30,-33,72,-4,78,202,126,0,0,164,76,134,128,1,7926
93.573971986,12,-1,-6,-49,4,-11,-51,4,-8,48,28,31,-1,81,203,126,0,0,166,69,137,130,1,7927
93.582936048,11,-1,-6,-65,0,-14,-57,2,-12,99,-136,108,0,78,205,126,0,0,171,62,135,134,1,7928
93.591987133,11,-1,-6,-59,-3,-18,-62,-1,-16,-63,-82,108,0,76,209,126,0,0,173,56,131,141,1,7929
93.601901054,11,-1,-6,-65,1,-16,-62,0,-17,-95,-41,9,0,70,210,126,0,0,170,61,134,136,1,7930
93.629013061,11,-1,-6,-58,2,0,-61,1,-8,177,-11,156,6,71,217,126,0,0,176,68,132,126,1,7931
93.638883113,10,-1,-6,-47,4,-10,-53,3,-5,-42,-211,45,5,55,219,126,0,0,157,79,137,129,1,7932
93.647915124,10,-1,-6,-41,0,5,-44,2,-2,-1,-31,75,4,53,222,126,0,0,155,94,128,126,1,7933
93.65696907,10,-1,-6,-26,3,-5,-33,2,0,24,-207,186,1,46,227,126,0,0,139,100,133,130,1,7934
93.684993982,10,-1,-6,-28,-2,0,-27,0,-2,169,-95,7,5,36,229,126,0,0,139,106,127,130,1,7935
93.694045066,9,-1,-6,-7,0,0,-17,0,0,-45,65,194,6,35,231,126,0,0,127,117,126,132,1,7936
93.70385313,9,-1,-6,2,0,-2,-2,0,-1,-175,-63,51,2,33,227,126,0,0,107,135,131,129,1,7937
93.712912082,9,0,-6,8,0,-2,5,0,-2,8,167,67,3,33,231,126,0,0,106,136,129,131,1,7938
93.740968942,9,0,-6,15,1,0,11,0,-1,-88,-15,203,2,33,233,126,0,0,101,143,129,129,1,7939
93.753174066,10,0,-6,21,0,4,18,0,2,13,68,56,0,31,225,126,0,0,97,151,127,128,1,7940
93.759102106,10,0,-6,26,1,0,24,0,2,57,55,86,6,33,228,126,0,0,91,154,128,129,1,7941
93.76910305,10,0,-6,19,-1,1,22,0,1,-9,234,252,6,40,224,126,0,0,98,147,127,130,1,7942
93.796774148,10,0,-6,24,-3,3,21,-2,2,-152,188,243,5,44,226,126,0,0,100,147,122,133,1,7943
93.805956125,10,0,-6,21,0,-2,23,-1,0,-207,161,113,0,44,225,126,0,0,94,148,128,132,1,7944
93.817391157,10,0,-6,15,0,0,18,0,0,56,120,233,2,47,228,126,0,0,105,140,129,128,1,7945
93.823933124,11,0,-6,15,0,0,15,0,0,2,91,58,1,52,228,126,0,0,106,139,128,130,1,7946
93.85187602,11,0,-6,11,-1,0,13,0,0,78,22,156,0,52,229,126,0,0,107,137,127,131,1,7947
93.861274004,11,0,-6,0,0,-6,5,0,-3,-27,-32,205,0,48,227,126,0,0,117,122,131,132,1,7948
93.873134136,11,0,-7,-10,2,-4,-5,1,-5,182,42,203,3,45,227,126,0,0,130,110,133,129,1,7949
93.880896091,11,0,-7,-12,-2,-5,-11,0,-4,-184,165,167,0,44,223,126,0,0,132,108,128,134,1,7950
93.908025026,11,0,-7,-22,0,-5,-17,-1,-5,90,36,236,3,41,224,126,0,0,137,103,128,134,1,7951
93.916980028,10,0,-7,-32,2,-11,-27,1,-8,-7,22,17,6,41,224,126,0,0,148,87,136,131,1,7952
93.932861089,10,0,-7,-40,1,-12,-36,1,-11,84,232,237,6,47,227,128,0,0,158,80,137,135,1,7953
93.966916084,9,0,-7,-37,4,3,-39,2,-4,-93,-168,220,0,40,226,129,0,0,162,91,133,128,1,7954
93.982064008,8,0,-7,-36,5,4,-37,4,3,-164,73,107,-6,39,226,132,0,0,159,100,139,128,1,7955
93.997821092,8,0,-7,-30,0,-4,-33,2,0,4,-18,150,0,35,228,134,0,0,154,102,139,139,1,7956
94.030976057,8,0,-7,-25,-2,5,-28,0,0,77,95,98,11,41,224,134,0,0,151,113,130,140,1,7957
94.046962976,7,0,-7,-15,0,-5,-20,-1,0,-87,-3,166,11,38,220,136,0,0,140,120,138,144,1,7958
94.062109947,7,0,-7,3,2,-7,-6,0,-6,-215,-116,225,8,35,221,138,0,0,122,140,146,142,1,7959
94.096091032,7,0,-7,8,-2,-4,5,0,-6,19,126,91,4,36,224,138,0,0,114,150,141,145,1,7960
94.110871076,8,0,-7,8,-1,8,8,-2,2,82,-52,221,6,30,229,139,0,0,125,152,134,143,1,7961
