TiempoEjecucion,AnguloPitch,AnguloRoll,AnguloYaw,G_Pitch,G_Roll,G_Yaw,G_Pitch_filtrada,G_Roll_filtrada,G_Yaw_filtrada,Ax,Ay,Az,Ax_filtrada,Ay_filtrada,Az_filtrada,posZ,posZ_filtrada,velZ,motorDelantero,motorTrasero,motorDerecho,motorIzquierdo,EstadoEncendido,MensajesRecibidos
116.366782189,-3,0,-90,-10,0,31,-15,0,31,0,-17,242,0,-17,242,27,30,0,0,0,0,0,0,10591
116.377920151,-3,0,-90,-10,0,31,-15,0,31,0,-17,242,0,-17,242,27,30,0,0,0,0,0,0,10592
116.392286063,-3,0,-90,-5,-1,30,-13,0,31,-3,-24,238,-3,-24,238,28,30,0,0,0,0,0,0,10593
116.399917126,-3,0,-90,-5,-1,30,-13,0,31,-3,-24,238,-3,-24,238,28,30,0,0,0,0,0,0,10594
116.410897971,-3,0,-90,1,-2,31,-10,0,31,-2,-31,237,-2,-31,237,28,30,0,0,0,0,0,0,10595
116.421672106,-3,0,-90,1,-2,31,-10,0,31,-2,-31,237,-2,-31,237,28,30,0,0,0,0,0,0,10596
116.432876111,-4,0,-90,10,-2,31,-4,-1,31,-2,-35,235,-2,-35,235,28,29,0,0,0,0,0,0,10597
116.443699122,-4,0,-90,10,-2,31,-4,-1,31,-2,-35,235,-2,-35,235,28,29,0,0,0,0,0,0,10598
116.454873085,-4,0,-89,18,-2,31,2,-2,31,0,-35,229,0,-35,229,28,29,0,0,0,0,0,0,10599
116.465964079,-4,0,-89,18,-2,31,2,-2,31,0,-35,229,0,-35,229,28,29,0,0,0,0,0,0,10600
116.477071047,-4,0,-89,26,0,31,10,-2,31,6,-33,221,6,-33,221,28,29,0,0,0,0,0,0,10601
116.487586976,-4,0,-89,26,0,31,10,-2,31,6,-33,221,6,-33,221,28,29,0,0,0,0,0,0,10602
116.498746157,-4,0,-89,32,2,32,18,-2,31,12,-31,214,12,-31,214,28,29,0,0,0,0,0,0,10603
116.514989138,-3,0,-89,34,5,32,26,0,31,12,-31,214,12,-31,214,28,29,0,0,0,0,0,0,10604
116.520661116,-4,0,-89,34,5,32,26,0,31,20,-16,206,20,-16,206,29,29,0,0,0,0,0,0,10605
116.531759024,-3,0,-89,38,10,31,32,2,32,20,-16,206,20,-16,206,29,29,0,0,0,0,0,0,10606
116.542723179,-3,0,-89,38,10,31,32,2,32,21,-8,196,21,-8,196,29,29,0,0,0,0,0,0,10607
116.553788186,-3,0,-88,39,15,30,36,6,32,21,-8,196,21,-8,196,29,29,0,0,0,0,0,0,10608
116.565138102,-3,1,-88,39,15,30,36,6,32,23,0,209,23,0,209,29,29,0,0,0,0,0,0,10609
116.575807095,-2,1,-88,35,24,29,38,10,31,23,0,209,23,0,209,29,29,0,0,0,0,0,0,10610
116.586961031,-2,1,-88,35,24,29,38,10,31,22,7,224,22,7,224,29,29,0,0,0,0,0,0,10611
116.597666979,-2,1,-88,29,30,28,38,15,30,22,7,224,22,7,224,28,29,0,0,0,0,0,0,10612
116.608671189,-1,2,-88,25,33,27,35,23,29,20,12,241,20,12,241,28,29,0,0,0,0,0,0,10613
116.619774104,-1,2,-88,25,33,27,35,23,29,20,12,241,20,12,241,28,29,0,0,0,0,0,0,10614
116.630689145,-1,2,-87,16,38,25,30,30,28,15,18,249,15,18,249,28,29,0,0,0,0,0,0,10615
116.641838074,-1,2,-87,12,40,24,23,35,26,15,18,249,15,18,249,28,29,0,0,0,0,0,0,10616
116.65280819,0,2,-87,12,40,24,23,35,26,5,19,252,5,19,252,28,29,0,0,0,0,0,0,10617
116.664328099,0,2,-87,3,40,22,17,38,25,5,19,252,5,19,252,28,29,0,0,0,0,0,0,10618
116.67511201,0,2,-87,0,39,21,10,40,24,-6,16,243,-6,16,243,29,29,0,0,0,0,0,0,10619
116.685669184,0,2,-87,-3,37,20,4,40,22,-6,16,243,-6,16,243,29,29,0,0,0,0,0,0,10620
116.696772099,0,2,-87,-3,37,20,4,40,22,-18,11,234,-18,11,234,29,29,0,0,0,0,0,0,10621
116.7076931,0,2,-87,-8,29,17,0,39,20,-18,11,234,-18,11,234,29,29,0,0,0,0,0,0,10622
116.718811989,0,1,-87,-8,29,17,0,39,20,-30,7,224,-30,7,224,29,29,0,0,0,0,0,0,10623
116.729839087,0,1,-87,-11,18,15,-4,35,19,-30,7,224,-30,7,224,29,29,0,0,0,0,0,0,10624
116.740756989,0,1,-87,-12,12,14,-7,29,17,-42,2,217,-42,2,217,29,29,0,0,0,0,0,0,10625
116.751762152,0,1,-87,-12,12,14,-7,29,17,-42,2,217,-42,2,217,29,29,0,0,0,0,0,0,10626
116.762833119,0,0,-86,-13,-2,11,-11,19,15,-59,-6,201,-59,-6,201,29,29,0,0,0,0,0,0,10627
116.773895026,0,0,-86,-14,-11,10,-13,9,13,-59,-6,201,-59,-6,201,29,29,0,0,0,0,0,0,10628
116.785057068,0,-1,-86,-14,-11,10,-13,9,13,-62,-10,199,-62,-10,199,29,29,0,0,0,0,0,0,10629
116.795770169,0,-1,-86,-13,-28,8,-14,-2,11,-62,-10,199,-62,-10,199,29,29,0,0,0,0,0,0,10630
116.80675006,0,-2,-86,-12,-36,7,-13,-13,10,-63,-12,200,-63,-12,200,29,29,0,0,0,0,0,0,10631
116.817762137,0,-2,-86,-11,-51,6,-13,-26,9,-63,-12,200,-63,-12,200,29,29,0,0,0,0,0,0,10632
116.828896046,-1,-4,-86,-11,-51,6,-13,-26,9,-59,-13,206,-59,-13,206,29,29,0,0,0,0,0,0,10633
116.840111018,-1,-4,-86,-9,-67,4,-12,-39,7,-59,-13,206,-59,-13,206,29,29,0,0,0,0,0,0,10634
116.850893975,-1,-5,-86,-9,-67,4,-12,-39,7,-48,-14,214,-48,-14,214,29,29,0,0,0,0,0,0,10635
116.862559081,-1,-5,-86,-8,-77,2,-11,-52,6,-48,-14,214,-48,-14,214,29,29,0,0,0,0,0,0,10636
116.872724057,-1,-6,-86,-8,-79,2,-10,-65,4,-31,-12,220,-31,-12,220,29,29,0,0,0,0,0,0,10637
116.88400507,-1,-6,-86,-8,-79,2,-10,-65,4,-31,-12,220,-31,-12,220,29,29,0,0,0,0,0,0,10638
116.895918131,-1,-6,-86,-8,-80,0,-8,-76,2,-5,-11,228,-5,-11,228,28,29,0,0,0,0,0,0,10639
116.907516003,-1,-6,-86,-8,-78,0,-8,-81,1,-5,-11,228,-5,-11,228,28,29,0,0,0,0,0,0,10640
116.916726113,-1,-6,-86,-8,-78,0,-8,-81,1,-5,-11,228,-5,-11,228,28,29,0,0,0,0,0,0,10641
116.928152085,-1,-5,-86,-9,-70,0,-8,-81,1,29,-5,240,29,-5,240,28,29,0,0,0,0,0,0,10642
116.941962004,-1,-5,-86,-9,-64,-1,-8,-76,0,29,-5,240,29,-5,240,28,28,0,0,0,0,0,0,10643
116.949810982,-1,-5,-86,-9,-64,-1,-8,-76,0,47,-3,244,47,-3,244,28,28,0,0,0,0,0,0,10644
116.960756064,-1,-5,-86,-11,-49,-2,-9,-70,0,47,-3,244,47,-3,244,28,28,0,0,0,0,0,0,10645
116.972006083,-1,-4,-86,-12,-40,-3,-10,-62,-1,60,0,242,60,0,242,29,28,0,0,0,0,0,0,10646
116.982671023,-1,-3,-86,-13,-30,-2,-11,-50,-2,60,0,242,60,0,242,29,28,0,0,0,0,0,0,10647
116.993720055,-1,-2,-86,-13,-30,-2,-11,-50,-2,69,0,238,69,0,238,29,28,0,0,0,0,0,0,10648
117.004812003,-1,-2,-86,-15,-11,-3,-12,-38,-3,69,0,238,69,0,238,28,28,0,0,0,0,0,0,10649
117.015849114,-1,-1,-86,-16,-1,-3,-13,-26,-3,70,-1,235,70,-1,235,28,28,0,0,0,0,0,0,10650
117.026735068,-1,-1,-86,-17,7,-4,-15,-14,-3,70,-1,235,70,-1,235,28,28,0,0,0,0,0,0,10651
117.037794114,-1,0,-86,-17,16,-4,-16,-1,-3,68,-6,230,68,-6,230,28,28,0,0,0,0,0,0,10652
117.048712016,-1,0,-86,-17,16,-4,-16,-1,-3,68,-6,230,68,-6,230,28,28,0,0,0,0,0,0,10653
117.058641196,-1,1,-86,-17,32,-5,-17,10,-4,58,-8,228,58,-8,228,28,28,0,0,0,0,0,0,10654
117.069778204,-1,1,-86,-16,38,-6,-17,19,-4,58,-8,228,58,-8,228,28,28,0,0,0,0,0,0,10655
117.080732108,-2,2,-86,-16,38,-6,-17,19,-4,45,-10,226,45,-10,226,28,28,0,0,0,0,0,0,10656
117.092540026,-1,2,-86,-13,51,-7,-16,29,-5,45,-10,226,45,-10,226,28,28,0,0,0,0,0,0,10657
117.103048087,-2,3,-87,-11,54,-7,-15,40,-6,32,-13,230,32,-13,230,28,28,0,0,0,0,0,0,10658
117.113847971,-2,3,-87,-9,55,-8,-13,50,-7,32,-13,230,32,-13,230,28,28,0,0,0,0,0,0,10659
117.124788046,-2,3,-87,-9,55,-8,-13,50,-7,14,-17,230,14,-17,230,28,28,0,0,0,0,0,0,10660
117.135921002,-2,3,-87,-5,57,-9,-11,55,-8,14,-17,230,14,-17,230,28,28,0,0,0,0,0,0,10661
117.146713973,-2,3,-87,-5,57,-9,-11,55,-8,0,-19,234,0,-19,234,28,28,0,0,0,0,0,0,10662
117.160233021,-2,3,-87,0,56,-10,-8,57,-8,0,-19,234,0,-19,234,28,28,0,0,0,0,0,0,10663
117.168684006,-2,3,-87,1,54,-10,-5,56,-9,-11,-17,231,-11,-17,231,28,28,0,0,0,0,0,0,10664
117.179775,-2,3,-87,1,54,-10,-5,56,-9,-11,-17,231,-11,-17,231,28,28,0,0,0,0,0,0,10665
117.190714121,-2,3,-87,3,48,-12,-1,55,-10,-21,-15,232,-21,-15,232,28,28,0,0,0,0,0,0,10666
117.203987122,-2,3,-87,5,44,-12,1,54,-11,-21,-15,232,-21,-15,232,28,28,0,0,0,0,0,0,10667
117.21261406,-2,2,-87,5,44,-12,1,54,-11,-31,-11,233,-31,-11,233,28,28,0,0,0,0,0,0,10668
117.22362113,-2,3,-87,6,35,-14,4,49,-12,-31,-11,233,-31,-11,233,28,28,0,0,0,0,0,0,10669
117.235372067,-2,2,-87,6,35,-14,4,49,-12,-39,-7,232,-39,-7,232,28,28,0,0,0,0,0,0,10670
117.247956038,-2,2,-87,6,23,-15,5,43,-13,-39,-7,232,-39,-7,232,28,28,0,0,0,0,0,0,10671
117.257009984,-2,1,-87,6,23,-15,5,43,-13,-42,-5,233,-42,-5,233,28,28,0,0,0,0,0,0,10672
117.267745018,-2,1,-87,6,12,-16,6,34,-14,-42,-5,233,-42,-5,233,28,28,0,0,0,0,0,0,10673
117.2800982,-2,0,-87,6,12,-16,6,34,-14,-42,-2,235,-42,-2,235,28,28,0,0,0,0,0,0,10674
117.28994298,-2,0,-87,5,1,-17,6,24,-15,-42,-2,235,-42,-2,235,28,28,0,0,0,0,0,0,10675
117.300768137,-2,0,-87,5,1,-17,6,24,-15,-38,-1,234,-38,-1,234,28,28,0,0,0,0,0,0,10676
117.311827183,-1,0,-88,3,-7,-19,6,11,-16,-38,-1,234,-38,-1,234,28,28,0,0,0,0,0,0,10677
117.322676182,-1,0,-88,3,-7,-19,6,11,-16,-30,-1,233,-30,-1,233,28,28,0,0,0,0,0,0,10678
117.333703995,-1,0,-88,3,-14,-20,5,0,-17,-30,-1,233,-30,-1,233,28,28,0,0,0,0,0,0,10679
117.345003129,-1,0,-88,3,-14,-20,5,0,-17,-11,-4,230,-11,-4,230,28,28,0,0,0,0,0,0,10680
117.355768204,-1,0,-88,2,-18,-21,3,-8,-19,-11,-4,230,-11,-4,230,28,28,0,0,0,0,0,0,10681
117.373520136,-1,0,-88,2,-18,-21,3,-8,-19,-2,-6,230,-2,-6,230,28,28,0,0,0,0,0,0,10682
117.377727986,-1,0,-88,3,-17,-21,3,-14,-20,-2,-6,230,-2,-6,230,28,28,0,0,0,0,0,0,10683
117.388768197,-1,0,-88,3,-17,-21,3,-14,-20,4,-9,229,4,-9,229,28,28,0,0,0,0,0,0,10684
117.399564982,-1,0,-88,4,-15,-22,2,-18,-21,4,-9,229,4,-9,229,28,28,0,0,0,0,0,0,10685
117.410855055,-1,0,-88,4,-15,-22,2,-18,-21,9,-11,229,9,-11,229,28,28,0,0,0,0,0,0,10686
117.421722174,-1,0,-88,6,-11,-22,3,-18,-21,9,-11,229,9,-11,229,28,28,0,0,0,0,0,0,10687
117.439988137,-1,0,-88,6,-11,-22,3,-18,-21,11,-13,229,11,-13,229,28,28,0,0,0,0,0,0,10688
117.443793059,-1,0,-88,9,-7,-22,4,-15,-22,11,-13,229,11,-13,229,28,28,0,0,0,0,0,0,10689
117.454737187,-1,0,-89,10,-5,-23,6,-11,-22,12,-14,228,12,-14,228,28,28,0,0,0,0,0,0,10690
117.465638161,-1,0,-89,10,-5,-23,6,-11,-22,12,-14,228,12,-14,228,28,28,0,0,0,0,0,0,10691
117.47675109,-1,0,-89,12,-2,-23,8,-7,-22,12,-13,223,12,-13,223,28,28,0,0,0,0,0,0,10692
117.488164187,-1,0,-89,12,-2,-23,8,-7,-22,12,-13,223,12,-13,223,28,28,0,0,0,0,0,0,10693
117.498975039,-1,0,-89,14,0,-23,10,-4,-23,7,-13,225,7,-13,225,28,28,0,0,0,0,0,0,10694
117.509669066,-1,0,-89,14,0,-23,10,-4,-23,7,-13,225,7,-13,225,28,28,0,0,0,0,0,0,10695
117.521329165,-1,0,-89,16,1,-24,12,-2,-23,3,-11,228,3,-11,228,28,28,0,0,0,0,0,0,10696
117.531833172,-1,0,-89,16,1,-24,12,-2,-23,3,-11,228,3,-11,228,28,28,0,0,0,0,0,0,10697
117.542582989,-1,0,-89,16,1,-24,14,0,-23,0,-8,227,0,-8,227,28,28,0,0,0,0,0,0,10698
117.553616047,-1,0,-89,16,1,-24,14,0,-23,0,-8,227,0,-8,227,28,28,0,0,0,0,0,0,10699
117.565119982,-1,0,-90,15,0,-25,15,1,-24,-4,-5,229,-4,-5,229,28,28,0,0,0,0,0,0,10700
117.575724125,-1,0,-90,15,0,-25,15,1,-24,-4,-5,229,-4,-5,229,28,28,0,0,0,0,0,0,10701
117.588471175,-1,0,-90,14,-2,-26,16,1,-24,-11,-3,235,-11,-3,235,28,28,0,0,0,0,0,0,10702
117.59791708,-1,0,-90,14,-2,-26,16,1,-24,-11,-3,235,-11,-3,235,28,28,0,0,0,0,0,0,10703
117.608641148,-1,0,-90,11,-7,-27,15,0,-25,-13,-1,230,-13,-1,230,28,28,0,0,0,0,0,0,10704
117.620096207,-1,0,-90,11,-7,-27,15,0,-25,-13,-1,230,-13,-1,230,28,28,0,0,0,0,0,0,10705
117.63133812,-1,0,-90,10,-11,-27,14,-3,-26,-13,-1,229,-13,-1,229,28,28,0,0,0,0,0,0,10706
117.643695116,-1,0,-90,10,-11,-27,14,-3,-26,-13,-1,229,-13,-1,229,28,28,0,0,0,0,0,0,10707
117.652954102,0,-1,-91,8,-14,-28,12,-7,-27,-11,0,227,-11,0,227,28,28,0,0,0,0,0,0,10708
117.66368413,0,-1,-91,8,-14,-28,12,-7,-27,-11,0,227,-11,0,227,28,28,0,0,0,0,0,0,10709
117.675307036,0,-1,-91,6,-17,-28,9,-11,-27,-7,-1,225,-7,-1,225,28,28,0,0,0,0,0,0,10710
117.685569048,0,-1,-91,6,-17,-28,9,-11,-27,-7,-1,225,-7,-1,225,28,28,0,0,0,0,0,0,10711
117.695741177,0,-1,-91,4,-18,-29,7,-15,-28,-1,-1,223,-1,-1,223,28,28,0,0,0,0,0,0,10712
117.706627131,0,-1,-91,4,-18,-29,7,-15,-28,-1,-1,223,-1,-1,223,28,28,0,0,0,0,0,0,10713
117.720148087,0,-1,-91,1,-16,-28,6,-17,-28,4,0,223,4,0,223,28,28,0,0,0,0,0,0,10714
117.728661061,0,-1,-91,1,-16,-28,6,-17,-28,4,0,223,4,0,223,28,28,0,0,0,0,0,0,10715
117.739622117,0,-1,-92,0,-13,-28,4,-17,-28,12,0,226,12,0,226,28,28,0,0,0,0,0,0,10716
117.751152039,0,-1,-92,0,-13,-28,4,-17,-28,12,0,226,12,0,226,28,28,0,0,0,0,0,0,10717
117.76169014,0,0,-92,-2,-8,-28,1,-16,-28,17,0,228,17,0,228,28,28,0,0,0,0,0,0,10718
117.77267313,0,0,-92,-2,-8,-28,1,-16,-28,17,0,228,17,0,228,28,28,0,0,0,0,0,0,10719
117.784041167,0,0,-92,-4,-2,-28,0,-13,-28,19,-2,230,19,-2,230,28,28,0,0,0,0,0,0,10720
117.799911023,0,0,-92,-4,-2,-28,0,-13,-28,19,-2,230,19,-2,230,28,28,0,0,0,0,0,0,10721
117.807563067,0,0,-92,-5,3,-27,-2,-8,-28,19,-3,229,19,-3,229,28,28,0,0,0,0,0,0,10722
117.816601038,0,0,-92,-5,3,-27,-2,-8,-28,19,-3,229,19,-3,229,28,28,0,0,0,0,0,0,10723
117.832068205,0,0,-92,-6,7,-27,-4,-2,-28,15,-6,228,15,-6,228,28,28,0,0,0,0,0,0,10724
117.843978167,0,0,-92,-6,7,-27,-4,-2,-28,15,-6,228,15,-6,228,28,28,0,0,0,0,0,0,10725
117.84966302,0,0,-93,-6,11,-26,-5,3,-27,11,-7,227,11,-7,227,28,28,0,0,0,0,0,0,10726
117.860788107,0,0,-93,-6,11,-26,-5,3,-27,11,-7,227,11,-7,227,28,28,0,0,0,0,0,0,10727
117.871737004,-1,0,-93,-6,14,-25,-6,8,-27,6,-7,225,6,-7,225,28,28,0,0,0,0,0,0,10728
117.882548094,0,0,-93,-6,14,-25,-6,11,-26,6,-7,225,6,-7,225,28,28,0,0,0,0,0,0,10729
117.893815995,-1,0,-93,-6,14,-25,-6,11,-26,2,-7,224,2,-7,224,28,28,0,0,0,0,0,0,10730
117.904993058,-1,0,-93,-6,13,-25,-6,13,-26,2,-7,224,2,-7,224,28,28,0,0,0,0,0,0,10731
117.92156005,-1,0,-93,-6,13,-25,-6,13,-26,0,-6,228,0,-6,228,28,28,0,0,0,0,0,0,10732
117.927320004,-1,0,-93,-6,12,-24,-6,14,-25,0,-6,228,0,-6,228,28,28,0,0,0,0,0,0,10733
117.93798399,-1,0,-93,-6,12,-24,-6,14,-25,-2,-5,230,-2,-5,230,28,28,0,0,0,0,0,0,10734
117.948638201,-1,0,-94,-7,11,-24,-6,14,-25,-2,-5,230,-2,-5,230,28,28,0,0,0,0,0,0,10735
117.959627152,-1,0,-94,-7,11,-24,-6,14,-25,-5,-5,235,-5,-5,235,28,28,0,0,0,0,0,0,10736
117.972064019,-1,0,-94,-7,9,-24,-6,12,-24,-5,-5,235,-5,-5,235,28,28,0,0,0,0,0,0,10737
117.983415127,-1,0,-94,-7,8,-24,-7,10,-24,-5,-6,237,-5,-6,237,28,28,0,0,0,0,0,0,10738
117.992153168,-1,0,-94,-7,8,-24,-7,10,-24,-5,-6,237,-5,-6,237,28,28,0,0,0,0,0,0,10739
118.003298998,-1,0,-94,-7,6,-23,-7,9,-24,-5,-8,238,-5,-8,238,28,28,0,0,0,0,0,0,10740
118.020318985,-1,0,-94,-7,6,-22,-7,8,-23,-5,-8,238,-5,-8,238,28,28,0,0,0,0,0,0,10741
118.025372982,-1,0,-94,-7,6,-22,-7,8,-23,-5,-9,242,-5,-9,242,28,28,0,0,0,0,0,0,10742
118.03563118,-1,0,-94,-6,5,-21,-7,6,-23,-5,-9,242,-5,-9,242,28,28,0,0,0,0,0,0,10743
118.046620131,-1,0,-95,-6,4,-21,-7,5,-22,-4,-12,243,-4,-12,243,28,28,0,0,0,0,0,0,10744
118.057836056,-1,0,-95,-4,4,-20,-6,5,-21,-4,-12,243,-4,-12,243,28,28,0,0,0,0,0,0,10745
118.068663121,-1,0,-95,-4,4,-20,-6,5,-21,-7,-19,246,-7,-19,246,28,28,0,0,0,0,0,0,10746
118.079853058,-1,0,-95,-1,3,-19,-5,4,-21,-7,-19,246,-7,-19,246,28,28,0,0,0,0,0,0,10747
118.090903998,-2,0,-95,-1,3,-19,-5,4,-21,-9,-23,249,-9,-23,249,28,28,0,0,0,0,0,0,10748
118.104897976,-1,0,-95,2,1,-18,-4,3,-20,-9,-23,249,-9,-23,249,28,28,0,0,0,0,0,0,10749
118.113093138,-2,0,-95,7,-1,-17,-1,2,-19,-12,-28,0,-12,-28,0,28,28,0,0,0,0,0,0,10750
118.125211001,-2,0,-95,7,-1,-17,-1,2,-19,-12,-28,0,-12,-28,0,28,28,0,0,0,0,0,0,10751
118.139995099,-2,0,-95,14,-5,-16,2,1,-18,-17,-32,10,-17,-32,10,29,28,0,0,0,0,0,0,10752
118.147255183,-2,0,-95,17,-7,-15,8,-1,-17,-17,-32,10,-17,-32,10,29,28,0,0,0,0,0,0,10753
118.156635046,-2,0,-95,17,-7,-15,8,-1,-17,-25,-34,17,-25,-34,17,29,28,0,0,0,0,0,0,10754
118.168112994,-2,0,-95,24,-14,-14,13,-4,-16,-25,-34,17,-25,-34,17,29,28,0,0,0,0,0,0,10755
118.17869401,-2,-1,-96,27,-18,-13,19,-9,-15,-28,-32,18,-28,-32,18,29,28,0,0,0,0,0,0,10756
118.18966198,-2,-1,-96,30,-22,-12,23,-13,-14,-28,-32,18,-28,-32,18,29,28,0,0,0,0,0,0,10757
118.200735093,-2,-1,-96,30,-22,-12,23,-13,-14,-27,-28,17,-27,-28,17,29,28,0,0,0,0,0,0,10758
118.211783171,-2,-1,-96,35,-28,-11,28,-18,-13,-27,-28,17,-27,-28,17,29,28,0,0,0,0,0,0,10759
118.222738982,-2,-2,-96,35,-28,-11,28,-18,-13,-22,-19,14,-22,-19,14,31,28,0,0,0,0,0,0,10760
118.233752013,-1,-2,-96,37,-32,-10,31,-23,-12,-22,-19,14,-22,-19,14,31,28,0,0,0,0,0,0,10761
118.245069981,-1,-2,-96,36,-33,-10,34,-28,-11,-14,-10,14,-14,-10,14,31,28,0,0,0,0,0,0,10762
118.258382082,-1,-2,-96,36,-33,-10,34,-28,-11,-14,-10,14,-14,-10,14,31,28,0,0,0,0,0,0,10763
118.266774178,-1,-2,-96,33,-33,-9,36,-32,-10,-5,1,12,-5,1,12,32,28,0,0,0,0,0,0,10764
118.277875185,-1,-2,-96,31,-32,-9,36,-34,-9,-5,1,12,-5,1,12,32,28,0,0,0,0,0,0,10765
118.288524151,-1,-2,-96,31,-32,-9,36,-34,-9,-5,1,12,-5,1,12,32,28,0,0,0,0,0,0,10766
118.304114104,0,-2,-96,23,-27,-8,34,-34,-9,15,22,254,15,22,254,32,28,0,0,0,0,0,0,10767
118.31080103,0,-2,-96,19,-24,-8,29,-31,-8,15,22,254,15,22,254,34,29,0,0,0,0,0,0,10768
118.321955204,0,-2,-96,13,-21,-8,24,-27,-8,22,29,249,22,29,249,34,29,0,0,0,0,0,0,10769
118.336194039,0,-2,-96,13,-21,-8,24,-27,-8,22,29,249,22,29,249,34,29,0,0,0,0,0,0,10770
118.343619109,0,-1,-96,3,-13,-7,18,-24,-8,27,34,243,27,34,243,35,29,0,0,0,0,0,0,10771
118.354974986,0,-1,-96,-2,-9,-7,11,-19,-8,27,34,243,27,34,243,35,29,0,0,0,0,0,0,10772
118.365695,1,-1,-96,-2,-9,-7,11,-19,-8,28,36,240,28,36,240,35,29,0,0,0,0,0,0,10773
118.379373074,1,0,-96,-12,1,-6,4,-14,-7,28,36,240,28,36,240,35,29,0,0,0,0,0,0,10774
118.387770176,1,0,-96,-12,1,-6,4,-14,-7,27,34,240,27,34,240,37,30,0,0,0,0,0,0,10775
118.398812056,1,0,-96,-25,8,-6,-3,-7,-7,27,34,240,27,34,240,37,30,0,0,0,0,0,0,10776
118.415075064,1,0,-96,-28,10,-5,-13,0,-6,21,22,234,21,22,234,37,30,0,0,0,0,0,0,10777
118.420839072,1,0,-96,-28,10,-5,-13,0,-6,21,22,234,21,22,234,37,30,0,0,0,0,0,0,10778
118.431786061,1,0,-96,-32,14,-5,-23,7,-6,17,14,229,17,14,229,39,31,0,0,0,0,0,0,10779
118.442656041,1,0,-96,-34,15,-4,-30,12,-5,17,14,229,17,14,229,39,31,0,0,0,0,0,0,10780
118.453788996,1,0,-96,-34,15,-4,-30,12,-5,14,7,221,14,7,221,39,31,0,0,0,0,0,0,10781
118.464750052,0,0,-97,-34,18,-3,-33,14,-5,14,7,221,14,7,221,39,31,0,0,0,0,0,0,10782
118.480290175,0,1,-97,-34,19,-2,-34,15,-4,13,0,216,13,0,216,41,32,0,0,0,0,0,0,10783
118.486831189,0,1,-97,-33,20,-2,-34,17,-3,13,0,216,13,0,216,41,32,0,0,0,0,0,0,10784
118.503216029,0,1,-97,-33,20,-2,-34,17,-3,13,-5,210,13,-5,210,41,32,0,0,0,0,0,0,10785
118.512368203,0,1,-97,-29,21,0,-33,19,-2,13,-5,210,13,-5,210,41,32,0,0,0,0,0,0,10786
118.520277024,0,1,-97,-29,21,0,-33,19,-2,13,-9,204,13,-9,204,43,33,1,0,0,0,0,0,10787
118.535941124,0,1,-97,-25,24,0,-32,20,-1,13,-9,204,13,-9,204,43,33,1,0,0,0,0,0,10788
118.541715146,0,2,-97,-22,25,1,-29,21,0,14,-12,200,14,-12,200,43,33,1,0,0,0,0,0,10789
118.552697182,0,2,-97,-22,25,1,-29,21,0,14,-12,200,14,-12,200,43,33,1,0,0,0,0,0,10790
118.569133044,-1,2,-97,-17,27,3,-25,23,0,13,-14,199,13,-14,199,44,34,1,0,0,0,0,0,10791
118.575971127,-1,2,-96,-15,28,3,-21,25,1,13,-14,199,13,-14,199,44,34,1,0,0,0,0,0,10792
118.585815192,-1,2,-96,-15,28,3,-21,25,1,12,-12,198,12,-12,198,44,34,1,0,0,0,0,0,10793
118.596603156,-1,2,-96,-10,30,5,-18,27,3,12,-12,198,12,-12,198,44,34,1,0,0,0,0,0,10794
118.607899189,-1,2,-96,-8,30,6,-14,28,4,9,-11,198,9,-11,198,45,35,1,0,0,0,0,0,10795
118.618887187,-1,2,-96,-6,30,7,-11,29,5,9,-11,198,9,-11,198,45,35,1,0,0,0,0,0,10796
118.629637003,-1,3,-96,-6,30,7,-11,29,5,5,-9,200,5,-9,200,45,35,1,0,0,0,0,0,10797
118.640748024,-1,3,-96,-2,30,8,-8,30,6,5,-9,200,5,-9,200,45,35,1,0,0,0,0,0,10798
118.651731015,-1,2,-96,-2,30,8,-8,30,6,-3,-2,206,-3,-2,206,46,36,1,0,0,0,0,0,10799
118.662943125,-1,2,-96,0,27,10,-5,30,7,-3,-2,206,-3,-2,206,46,36,1,0,0,0,0,0,10800
118.674003125,-1,2,-96,0,27,10,-5,30,7,-7,0,211,-7,0,211,46,36,1,0,0,0,0,0,10801
118.684918166,-1,2,-96,0,23,10,-3,29,8,-7,0,211,-7,0,211,46,36,1,0,0,0,0,0,10802
118.696197033,-1,2,-96,0,23,10,-3,29,8,-10,2,213,-10,2,213,47,37,1,0,0,0,0,0,10803
118.706799984,-1,2,-96,0,19,12,0,27,9,-10,2,213,-10,2,213,47,37,1,0,0,0,0,0,10804
118.720471144,-1,2,-96,0,19,12,0,27,9,-11,3,215,-11,3,215,47,37,1,0,0,0,0,0,10805
118.72905612,-1,2,-96,0,15,12,0,23,11,-11,3,215,-11,3,215,47,37,1,0,0,0,0,0,10806
118.740142107,-1,2,-96,0,15,12,0,23,11,-11,3,215,-11,3,215,47,38,0,0,0,0,0,0,10807
118.750880003,0,1,-96,0,11,13,0,19,12,-11,3,215,-11,3,215,47,38,0,0,0,0,0,0,10808
118.761846066,0,1,-96,0,11,13,0,19,12,-9,2,212,-9,2,212,47,38,0,0,0,0,0,0,10809
118.772592068,0,1,-96,0,8,14,0,15,12,-9,2,212,-9,2,212,47,38,0,0,0,0,0,0,10810
118.783862114,0,1,-96,0,8,14,0,15,12,-6,2,209,-6,2,209,48,39,0,0,0,0,0,0,10811
118.794659138,0,1,-96,1,6,15,0,11,13,-6,2,209,-6,2,209,48,39,0,0,0,0,0,0,10812
118.811937094,0,1,-96,1,6,15,0,11,13,-2,0,208,-2,0,208,48,39,0,0,0,0,0,0,10813
118.817242146,0,1,-96,2,5,17,0,8,14,-2,0,208,-2,0,208,48,39,0,0,0,0,0,0,10814
118.828484059,0,1,-95,3,4,17,1,6,15,-1,-1,207,-1,-1,207,48,40,0,0,0,0,0,0,10815
118.839769125,0,1,-95,4,4,18,2,5,16,-1,-1,207,-1,-1,207,48,40,0,0,0,0,0,0,10816
118.849703074,0,1,-95,4,4,18,2,5,16,-1,-1,207,-1,-1,207,48,40,0,0,0,0,0,0,10817
118.860607148,0,1,-95,7,3,19,4,4,17,-1,-9,206,-1,-9,206,48,40,0,0,0,0,0,0,10818
118.875090123,0,1,-95,9,3,19,5,4,18,-1,-9,206,-1,-9,206,48,40,0,0,0,0,0,0,10819
118.882783175,0,1,-95,9,3,19,5,4,18,-2,-12,209,-2,-12,209,48,40,0,0,0,0,0,0,10820
118.893655062,0,0,-95,13,1,21,7,3,18,-2,-12,209,-2,-12,209,48,40,0,0,0,0,0,0,10821
118.904870987,0,0,-95,13,1,21,7,3,18,-4,-13,210,-4,-13,210,48,40,0,0,0,0,0,0,10822
118.915917159,0,0,-95,20,-1,22,10,2,20,-4,-13,210,-4,-13,210,49,41,0,0,0,0,0,0,10823
118.926868201,0,0,-95,20,-1,22,10,2,20,-8,-15,213,-8,-15,213,49,41,0,0,0,0,0,0,10824
118.936866999,0,0,-95,24,-4,23,14,1,21,-8,-15,213,-8,-15,213,49,41,0,0,0,0,0,0,10825
118.948252202,-1,0,-95,24,-4,23,14,1,21,-11,-14,216,-11,-14,216,49,41,0,0,0,0,0,0,10826
118.962110043,0,0,-94,28,-9,24,19,-1,22,-11,-14,216,-11,-14,216,49,42,0,0,0,0,0,0,10827
118.971099139,-1,0,-94,28,-9,24,19,-1,22,-14,-13,221,-14,-13,221,49,42,0,0,0,0,0,0,10828
118.980611086,0,0,-94,31,-14,24,25,-5,23,-14,-13,221,-14,-13,221,49,42,0,0,0,0,0,0,10829
118.993489981,0,0,-94,31,-14,24,25,-5,23,-16,-8,229,-16,-8,229,49,42,0,0,0,0,0,0,10830
119.002816201,0,0,-94,32,-18,25,29,-9,24,-16,-8,229,-16,-8,229,49,42,0,0,0,0,0,0,10831
119.01386714,0,0,-94,32,-18,25,29,-9,24,-13,8,233,-13,8,233,49,42,0,0,0,0,0,0,10832
119.024602175,0,0,-94,29,-22,24,31,-14,24,-13,8,233,-13,8,233,49,42,0,0,0,0,0,0,10833
119.035676003,0,0,-94,29,-22,24,31,-14,24,-8,16,238,-8,16,238,49,43,0,0,0,0,0,0,10834
119.046603203,0,-1,-94,24,-23,23,31,-18,24,-8,16,238,-8,16,238,49,43,0,0,0,0,0,0,10835
119.057677985,0,-1,-94,24,-23,23,31,-18,24,-1,19,238,-1,19,238,49,43,0,0,0,0,0,0,10836
119.068972111,0,-1,-93,18,-23,23,29,-22,24,-1,19,238,-1,19,238,49,43,0,0,0,0,0,0,10837
119.07971716,1,-1,-93,18,-23,23,29,-22,24,2,29,226,2,29,226,49,44,0,0,0,0,0,0,10838
119.090780974,1,-1,-93,13,-21,23,24,-23,23,2,29,226,2,29,226,49,44,0,0,0,0,0,0,10839
119.101829052,1,-1,-93,13,-21,23,24,-23,23,7,35,216,7,35,216,49,44,0,0,0,0,0,0,10840
119.11263609,1,-1,-93,12,-18,22,18,-23,23,7,35,216,7,35,216,49,44,0,0,0,0,0,0,10841
119.123742104,2,0,-93,12,-18,22,18,-23,23,9,33,204,9,33,204,49,44,0,0,0,0,0,0,10842
119.134763003,2,0,-93,16,-13,22,13,-21,22,9,33,204,9,33,204,49,44,0,0,0,0,0,0,10843
119.145655156,2,0,-93,16,-13,22,13,-21,22,10,34,210,10,34,210,49,44,0,0,0,0,0,0,10844
119.156845093,2,0,-93,20,-5,21,12,-17,22,10,34,210,10,34,210,49,44,0,0,0,0,0,0,10845
119.16803217,3,0,-93,20,-5,21,12,-17,22,12,32,223,12,32,223,49,44,0,0,0,0,0,0,10846
119.178673029,3,0,-93,22,0,21,15,-12,22,12,32,223,12,32,223,49,44,0,0,0,0,0,0,10847
119.189653159,3,0,-93,22,0,21,15,-12,22,13,27,236,13,27,236,49,44,0,0,0,0,0,0,10848
119.200780154,3,0,-93,20,3,22,19,-6,21,13,27,236,13,27,236,49,44,0,0,0,0,0,0,10849
119.211873055,4,0,-93,20,3,22,19,-6,21,12,19,243,12,19,243,49,45,0,0,0,0,0,0,10850
119.222850085,3,0,-92,18,5,22,22,0,21,12,19,243,12,19,243,49,45,0,0,0,0,0,0,10851
119.236222029,3,0,-92,18,5,22,22,0,21,12,19,243,12,19,243,49,45,0,0,0,0,0,0,10852
119.244813204,3,0,-92,17,7,22,21,4,21,2,10,237,2,10,237,49,45,0,0,0,0,0,0,10853
119.25583911,3,0,-92,16,7,21,19,6,22,2,10,237,2,10,237,49,45,0,0,0,0,0,0,10854
119.266684056,3,0,-92,16,7,21,19,6,22,-2,13,237,-2,13,237,49,45,0,0,0,0,0,0,10855
119.27996111,3,0,-92,14,7,19,16,7,22,-2,13,237,-2,13,237,49,45,0,0,0,0,0,0,10856
119.288757086,4,0,-92,14,7,19,16,7,22,-12,22,232,-12,22,232,49,45,0,0,0,0,0,0,10857
119.30006814,3,0,-92,11,6,15,15,7,21,-12,22,232,-12,22,232,49,45,0,0,0,0,0,0,10858
119.310827017,4,0,-92,11,6,15,15,7,21,-9,41,219,-9,41,219,49,45,0,0,0,0,0,0,10859
119.321722031,4,0,-92,8,2,10,14,7,18,-9,41,219,-9,41,219,49,45,0,0,0,0,0,0,10860
119.332796097,5,0,-92,8,2,10,14,7,18,-5,52,210,-5,52,210,49,46,0,0,0,0,0,0,10861
119.344161034,5,0,-92,5,-3,6,11,5,15,-5,52,210,-5,52,210,49,46,0,0,0,0,0,0,10862
119.356060982,5,0,-92,5,-3,6,11,5,15,2,39,218,2,39,218,49,46,0,0,0,0,0,0,10863
119.365898133,5,0,-92,2,-6,3,8,2,10,2,39,218,2,39,218,49,46,0,0,0,0,0,0,10864
119.376780987,5,0,-92,2,-6,3,8,2,10,2,25,237,2,25,237,49,46,0,0,0,0,0,0,10865
119.387736083,5,0,-92,-5,-10,0,4,-2,6,2,25,237,2,25,237,49,46,0,0,0,0,0,0,10866
119.398903132,5,0,-92,-5,-10,0,4,-2,6,-5,16,241,-5,16,241,49,46,0,0,0,0,0,0,10867
119.409686089,5,0,-92,-13,-13,-4,1,-7,2,-5,16,241,-5,16,241,49,46,0,0,0,0,0,0,10868
119.420614005,4,0,-92,-19,-16,-5,-4,-10,0,-8,17,232,-8,17,232,49,46,0,0,0,0,0,0,10869
119.431897164,4,0,-92,-21,-18,-6,-12,-13,-3,-8,17,232,-8,17,232,49,46,0,0,0,0,0,0,10870
119.442746163,4,0,-92,-21,-18,-6,-12,-13,-3,-10,21,220,-10,21,220,49,46,0,0,0,0,0,0,10871
119.454044104,4,0,-92,-22,-19,-8,-19,-16,-6,-10,21,220,-10,21,220,49,46,0,0,0,0,0,0,10872
119.469097138,4,-1,-92,-22,-19,-8,-19,-16,-6,-2,21,227,-2,21,227,49,46,0,0,0,0,0,0,10873
119.475584031,4,-1,-92,-22,-19,-7,-22,-18,-7,-2,21,227,-2,21,227,49,46,0,0,0,0,0,0,10874
119.486978055,4,0,-92,-22,-19,-7,-22,-18,-7,4,17,242,4,17,242,49,46,0,0,0,0,0,0,10875
119.497676135,4,-1,-92,-25,-13,-4,-22,-19,-7,4,17,242,4,17,242,49,46,0,0,0,0,0,0,10876
119.511879206,4,0,-92,-25,-13,-4,-22,-19,-7,7,20,0,7,20,0,49,47,0,0,0,0,0,0,10877
119.519998074,3,0,-92,-30,-2,1,-22,-18,-7,7,20,0,7,20,0,49,47,0,0,0,0,0,0,10878
119.530945063,4,0,-92,-30,-2,1,-22,-18,-7,12,17,249,12,17,249,49,47,0,0,0,0,0,0,10879
119.544229985,3,0,-92,-34,5,8,-25,-13,-4,12,17,249,12,17,249,49,47,0,0,0,0,0,0,10880
119.55273819,3,0,-92,-37,9,11,-29,-4,1,8,21,242,8,21,242,49,47,0,0,0,0,0,0,10881
119.563995123,2,0,-92,-40,12,15,-34,4,7,8,21,242,8,21,242,49,47,0,0,0,0,0,0,10882
119.574612141,3,0,-92,-40,12,15,-34,4,7,13,40,246,13,40,246,49,47,0,0,0,0,0,0,10883
119.585726023,3,0,-92,-47,19,20,-38,11,12,13,40,246,13,40,246,49,47,0,0,0,0,0,0,10884
119.596698046,3,0,-92,-47,19,20,-38,11,12,3,24,241,3,24,241,49,47,0,0,0,0,0,0,10885
119.608162165,2,0,-91,-52,26,23,-41,14,16,3,24,241,3,24,241,49,47,0,0,0,0,0,0,10886
119.618776083,2,0,-91,-52,26,23,-41,14,16,-9,-1,231,-9,-1,231,49,47,0,0,0,0,0,0,10887
119.629676104,2,0,-91,-50,31,21,-46,19,19,-9,-1,231,-9,-1,231,49,47,0,0,0,0,0,0,10888
119.640729189,1,0,-91,-50,31,21,-46,19,19,-20,-25,228,-20,-25,228,49,47,0,0,0,0,0,0,10889
119.651848078,1,0,-91,-39,32,17,-50,25,22,-20,-25,228,-20,-25,228,49,47,0,0,0,0,0,0,10890
119.663944006,0,0,-91,-39,32,17,-50,25,22,-22,-35,235,-22,-35,235,49,47,0,0,0,0,0,0,10891
119.673969031,0,0,-91,-26,30,7,-50,31,22,-22,-35,235,-22,-35,235,49,47,0,0,0,0,0,0,10892
119.684903145,0,0,-91,-20,27,6,-41,33,17,-21,-33,244,-21,-33,244,50,47,0,0,0,0,0,0,10893
119.69669199,0,0,-91,-18,26,4,-28,31,10,-21,-33,244,-21,-33,244,50,47,0,0,0,0,0,0,10894
119.707053185,0,0,-91,-18,26,4,-28,31,10,-16,-29,251,-16,-29,251,50,47,0,0,0,0,0,0,10895
119.717579127,0,0,-91,-17,23,3,-18,27,4,-16,-29,251,-16,-29,251,50,47,0,0,0,0,0,0,10896
119.728775025,-1,0,-91,-17,23,3,-18,27,4,-10,-25,255,-10,-25,255,50,48,0,0,0,0,0,0,10897
119.739660025,-1,0,-91,-16,24,3,-16,25,3,-10,-25,255,-10,-25,255,50,48,0,0,0,0,0,0,10898
119.750653029,-1,0,-91,-16,24,3,-16,25,3,-6,-18,6,-6,-18,6,50,48,0,0,0,0,0,0,10899
119.761929036,-1,0,-91,-16,28,3,-17,24,3,-6,-18,6,-6,-18,6,50,48,0,0,0,0,0,0,10900
119.773236037,-1,0,-91,-17,29,4,-18,25,4,-25,-22,29,-25,-22,29,51,48,0,0,0,0,0,0,10901
119.792288065,-1,0,-91,-17,31,4,-16,27,3,-25,-22,29,-25,-22,29,51,48,0,0,0,0,0,0,10902
119.796181202,-1,0,-91,-17,31,4,-16,27,3,-25,-22,29,-25,-22,29,51,48,0,0,0,0,0,0,10903
119.805788041,-2,0,-91,-13,35,5,-16,30,3,-9,-22,20,-9,-22,20,51,48,0,0,0,0,0,0,10904
119.81674099,-1,0,-91,-10,37,5,-16,32,4,-9,-22,20,-9,-22,20,52,48,0,0,0,0,0,0,10905
119.827713013,-2,0,-91,-10,37,5,-16,32,4,-13,-21,15,-13,-21,15,52,48,0,0,0,0,0,0,10906
119.838706017,-2,0,-91,-1,38,3,-14,34,5,-13,-21,15,-13,-21,15,52,48,0,0,0,0,0,0,10907
119.85015297,-2,0,-91,3,37,3,-9,37,5,-24,-21,9,-24,-21,9,52,48,0,0,0,0,0,0,10908
119.861035109,-2,0,-91,6,33,2,-2,38,4,-24,-21,9,-24,-21,9,54,49,0,0,0,0,0,0,10909
119.871587038,-2,0,-91,6,33,2,-2,38,4,-56,4,253,-56,4,253,54,49,0,0,0,0,0,0,10910
119.881856204,-1,0,-91,12,5,0,3,36,3,-56,4,253,-56,4,253,54,49,0,0,0,0,0,0,10911
119.892706156,-1,-1,-91,12,5,0,3,36,3,-56,2,3,-56,2,3,54,49,0,0,0,0,0,0,10912
119.903614045,-1,-1,-91,10,-16,-2,8,28,1,-56,2,3,-56,2,3,56,49,0,0,0,0,0,0,10913
119.915021182,-1,-1,-91,8,-23,-2,11,10,0,-38,0,254,-38,0,254,56,49,0,0,0,0,0,0,10914
119.927517176,-1,-1,-91,8,-23,-2,11,10,0,-38,0,254,-38,0,254,56,49,0,0,0,0,0,0,10915
119.936614037,-1,-2,-91,7,-26,-5,11,-12,-1,-33,-4,241,-33,-4,241,56,49,0,0,0,0,0,0,10916
119.947970152,-1,-2,-91,7,-28,-4,10,-27,-3,-33,-4,241,-33,-4,241,57,50,0,0,0,0,0,0,10917
119.958688021,-1,-3,-91,7,-28,-4,10,-27,-3,-36,-8,240,-36,-8,240,57,50,0,0,0,0,0,0,10918
119.969640971,-1,-3,-91,3,-32,-3,7,-31,-4,-36,-8,240,-36,-8,240,57,50,0,0,0,0,0,0,10919
119.980863095,0,-3,-91,1,-34,-2,5,-28,-4,-21,14,217,-21,14,217,57,50,0,0,0,0,0,0,10920
119.992202998,0,-3,-91,-8,-32,-1,3,-29,-4,-21,14,217,-21,14,217,59,51,0,0,0,0,0,0,10921
120.002686024,0,-3,-91,-8,-32,-1,3,-29,-4,-14,2,205,-14,2,205,59,51,0,0,0,0,0,0,10922
120.013832093,0,-3,-91,-33,-24,0,0,-33,-2,-14,2,205,-14,2,205,59,51,0,0,0,0,0,0,10923
120.025195122,-1,-3,-91,-33,-24,0,0,-33,-2,0,-12,197,0,-12,197,59,51,0,0,0,0,0,0,10924
120.035782099,-1,-3,-91,-43,-8,2,-11,-32,0,0,-12,197,0,-12,197,61,52,0,0,0,0,0,0,10925
120.047048092,-1,-3,-91,-43,0,1,-27,-24,0,-5,-8,199,-5,-8,199,61,52,0,0,0,0,0,0,10926
120.057649136,-1,-3,-91,-43,0,1,-27,-24,0,-5,-8,199,-5,-8,199,61,52,0,0,0,0,0,0,10927
120.068732024,-2,-2,-91,-41,7,1,-42,-10,1,-5,-8,199,-5,-8,199,61,52,0,0,0,0,0,0,10928
120.079746008,-2,-2,-91,-36,8,0,-48,1,2,-4,-34,228,-4,-34,228,62,53,0,0,0,0,0,0,10929
120.090754033,-2,-2,-91,-31,10,0,-43,8,1,-4,-34,228,-4,-34,228,62,53,0,0,0,0,0,0,10930
120.101806164,-3,-2,-91,-31,10,0,-43,8,1,-8,-29,225,-8,-29,225,62,53,0,0,0,0,0,0,10931
120.112685204,-3,-2,-91,-19,12,0,-34,10,0,-8,-29,225,-8,-29,225,62,53,0,0,0,0,0,0,10932
120.124690056,-3,-2,-91,-15,12,0,-28,10,0,-12,-32,222,-12,-32,222,64,54,1,0,0,0,0,0,10933
120.134955168,-3,-2,-91,-11,11,0,-21,11,0,-12,-32,222,-12,-32,222,64,54,1,0,0,0,0,0,10934
120.145640135,-3,-2,-91,-11,11,0,-21,11,0,-12,-32,222,-12,-32,222,64,54,1,0,0,0,0,0,10935
120.15955019,-3,-2,-91,-4,12,-1,-15,12,0,-17,-23,214,-17,-23,214,64,54,1,0,0,0,0,0,10936
120.167808056,-3,-2,-91,-4,12,-1,-15,12,0,-17,-23,214,-17,-23,214,65,55,1,0,0,0,0,0,10937
120.178636075,-3,-2,-91,3,11,-3,-9,12,0,-25,-20,206,-25,-20,206,65,55,1,0,0,0,0,0,10938
120.189724207,-3,-2,-91,3,11,-3,-9,12,0,-25,-20,206,-25,-20,206,65,55,1,0,0,0,0,0,10939
120.200865984,-3,-2,-91,14,2,-2,-3,11,-1,-24,-25,205,-24,-25,205,66,56,1,0,0,0,0,0,10940
120.211726189,-3,-2,-91,17,0,-2,3,9,-2,-24,-25,205,-24,-25,205,66,56,1,0,0,0,0,0,10941
120.222681046,-3,-2,-91,17,0,-2,3,9,-2,-24,-25,205,-24,-25,205,66,56,1,0,0,0,0,0,10942
120.233778,-3,-2,-91,23,-5,-1,12,5,-3,-24,-21,201,-24,-21,201,66,56,1,0,0,0,0,0,10943
120.248089076,-3,-2,-91,26,-8,-2,20,0,-2,-24,-21,201,-24,-21,201,67,57,1,0,0,0,0,0,10944
120.255954981,-3,-3,-91,30,-11,-2,24,-5,-1,-26,-23,205,-26,-23,205,67,57,1,0,0,0,0,0,10945
120.266993046,-3,-3,-91,30,-11,-2,24,-5,-1,-26,-23,205,-26,-23,205,67,57,1,0,0,0,0,0,10946
120.279955149,-2,-3,-91,39,-15,-3,27,-9,-1,-26,-23,205,-26,-23,205,67,57,1,0,0,0,0,0,10947
120.288839102,-2,-3,-91,43,-17,-3,31,-11,-2,-26,-21,208,-26,-21,208,68,58,1,0,0,0,0,0,10948
120.299777985,-1,-3,-91,47,-19,-3,37,-15,-3,-26,-21,208,-26,-21,208,68,58,1,0,0,0,0,0,10949
120.310589076,-2,-3,-91,47,-19,-3,37,-15,-3,-22,-16,204,-22,-16,204,68,58,1,0,0,0,0,0,10950
120.321706057,-1,-3,-91,53,-23,-2,44,-18,-3,-22,-16,204,-22,-16,204,68,58,1,0,0,0,0,0,10951
120.332692147,-1,-3,-91,53,-26,-2,49,-21,-3,-17,-6,199,-17,-6,199,69,59,1,0,0,0,0,0,10952
120.343913079,0,-3,-91,51,-27,-2,52,-23,-3,-17,-6,199,-17,-6,199,69,59,1,0,0,0,0,0,10953
120.356113196,0,-3,-91,51,-27,-2,52,-23,-3,-17,-6,199,-17,-6,199,69,59,1,0,0,0,0,0,10954
120.365808011,0,-3,-91,44,-27,-2,53,-25,-2,-6,3,174,-6,3,174,69,59,1,0,0,0,0,0,10955
120.379995108,0,-3,-91,40,-25,-2,51,-27,-1,-6,3,174,-6,3,174,70,60,1,0,0,0,0,0,10956
120.387716055,0,-3,-91,35,-22,-2,46,-27,-2,0,10,166,0,10,166,70,60,1,0,0,0,0,0,10957
120.398646117,0,-3,-91,35,-22,-2,46,-27,-2,0,10,166,0,10,166,70,60,1,0,0,0,0,0,10958
120.409741164,0,-3,-91,24,-12,-2,39,-25,-2,0,10,166,0,10,166,70,60,1,0,0,0,0,0,10959
120.421203137,1,-3,-91,17,-7,-2,33,-20,-2,11,22,156,11,22,156,69,61,0,0,0,0,0,0,10960
120.431616068,1,-2,-91,3,3,-2,25,-14,-2,11,22,156,11,22,156,69,61,0,0,0,0,0,0,10961
120.442897082,1,-2,-91,3,3,-2,25,-14,-2,11,22,156,11,22,156,69,61,0,0,0,0,0,0,10962
120.453795195,1,-2,-91,-1,9,-2,15,-5,-2,8,19,154,8,19,154,69,61,0,0,0,0,0,0,10963
120.464858056,1,-2,-91,-9,13,-2,5,2,-2,8,19,154,8,19,154,69,61,0,0,0,0,0,0,10964
120.475941182,1,-1,-91,-11,17,-2,-3,10,-2,7,15,160,7,15,160,69,61,0,0,0,0,0,0,10965
120.486670971,1,-1,-91,-11,17,-2,-3,10,-2,7,15,160,7,15,160,69,61,0,0,0,0,0,0,10966
120.497758151,1,-1,-91,-15,22,-2,-9,14,-2,7,15,160,7,15,160,69,61,0,0,0,0,0,0,10967
120.512062073,1,-1,-91,-17,23,-3,-12,18,-2,0,12,173,0,12,173,67,62,0,0,0,0,0,0,10968
120.52490902,1,0,-91,-18,23,-4,-15,20,-2,0,12,173,0,12,173,67,62,0,0,0,0,0,0,10969
120.531769991,1,0,-91,-18,23,-4,-15,20,-2,-4,8,179,-4,8,179,67,62,0,0,0,0,0,0,10970
120.544080019,1,0,-91,-19,20,-4,-17,23,-3,-4,8,179,-4,8,179,67,62,0,0,0,0,0,0,10971
120.552617074,1,0,-91,-19,18,-3,-18,23,-3,-6,4,186,-6,4,186,66,62,0,0,0,0,0,0,10972
120.563769103,0,0,-91,-18,16,-3,-19,21,-4,-6,4,186,-6,4,186,66,62,0,0,0,0,0,0,10973
120.574965001,0,0,-91,-18,16,-3,-19,21,-4,-6,4,186,-6,4,186,66,62,0,0,0,0,0,0,10974
120.59049511,0,0,-91,-17,15,-2,-19,18,-4,-11,0,200,-11,0,200,66,62,0,0,0,0,0,0,10975
120.597121001,0,0,-91,-16,15,-1,-18,16,-3,-11,0,200,-11,0,200,64,62,0,0,0,0,0,0,10976
120.607714177,0,0,-91,-16,15,-1,-17,15,-2,-14,0,206,-14,0,206,64,62,0,0,0,0,0,0,10977
120.619956971,0,0,-91,-16,15,-1,-17,15,-2,-14,0,206,-14,0,206,64,62,0,0,0,0,0,0,10978
120.629812003,0,0,-91,-16,16,-2,-16,15,-1,-14,0,206,-14,0,206,64,62,0,0,0,0,0,0,10979
120.64065218,0,0,-91,-16,16,-3,-16,15,-1,-19,-3,208,-19,-3,208,62,62,0,0,0,0,0,0,10980
120.651618004,0,0,-92,-15,16,-4,-16,16,-2,-19,-3,208,-19,-3,208,62,62,0,0,0,0,0,0,10981
120.664224148,0,0,-92,-15,16,-4,-16,16,-2,-23,-6,216,-23,-6,216,62,62,0,0,0,0,0,0,10982
120.673597098,0,0,-92,-16,13,-4,-16,16,-3,-23,-6,216,-23,-6,216,62,62,0,0,0,0,0,0,10983
120.684883118,0,-1,-92,-16,13,-4,-16,16,-3,-29,-10,218,-29,-10,218,60,62,0,0,0,0,0,0,10984
120.695593119,0,-1,-92,-17,8,-3,-16,15,-4,-29,-10,218,-29,-10,218,60,62,0,0,0,0,0,0,10985
120.709844113,0,-1,-92,-17,8,-3,-16,15,-4,-31,-15,218,-31,-15,218,60,62,0,0,0,0,0,0,10986
120.717981101,0,-1,-92,-14,5,-3,-16,13,-4,-31,-15,218,-31,-15,218,60,62,0,0,0,0,0,0,10987
120.728585005,-1,-2,-92,-14,5,-3,-16,13,-4,-32,-17,221,-32,-17,221,59,62,0,0,0,0,0,0,10988
120.740635157,-1,-1,-92,-12,4,-3,-16,9,-3,-32,-17,221,-32,-17,221,59,62,0,0,0,0,0,0,10989
120.750859023,-1,-2,-92,-12,4,-3,-16,9,-3,-33,-22,225,-33,-22,225,59,62,0,0,0,0,0,0,10990
120.761754036,-1,-2,-92,-10,4,-4,-15,5,-3,-33,-22,225,-33,-22,225,59,62,0,0,0,0,0,0,10991
120.775111199,-2,-2,-92,-10,4,-4,-15,5,-3,-36,-27,224,-36,-27,224,57,61,0,0,0,0,0,0,10992
120.784028054,-2,-2,-92,-9,4,-5,-13,3,-3,-36,-27,224,-36,-27,224,57,61,0,0,0,0,0,0,10993
120.796508074,-2,-3,-92,-9,4,-5,-13,3,-3,-37,-29,226,-37,-29,226,57,61,0,0,0,0,0,0,10994
120.805055142,-2,-3,-92,-9,3,-5,-10,3,-4,-37,-29,226,-37,-29,226,57,61,0,0,0,0,0,0,10995
120.81596613,-2,-3,-92,-9,3,-5,-10,3,-4,-41,-31,241,-41,-31,241,55,61,0,0,0,0,0,0,10996
120.826780081,-2,-3,-92,-10,3,-3,-9,4,-5,-41,-31,241,-41,-31,241,55,61,0,0,0,0,0,0,10997
120.837809086,-3,-4,-92,-10,3,-3,-9,4,-5,-39,-33,238,-39,-33,238,55,61,0,0,0,0,0,0,10998
120.848752022,-3,-3,-92,-12,5,-4,-9,4,-5,-39,-33,238,-39,-33,238,55,61,0,0,0,0,0,0,10999
120.864081145,-3,-4,-92,-12,5,-4,-10,3,-4,-33,-40,245,-33,-40,245,53,60,0,0,0,0,0,0,11000
120.870805026,-3,-3,-92,-12,5,-5,-11,4,-3,-33,-40,245,-33,-40,245,53,60,0,0,0,0,0,0,11001
120.881770134,-3,-3,-92,-12,5,-5,-11,4,-3,-33,-40,245,-33,-40,245,53,60,0,0,0,0,0,0,11002
120.892691136,-3,-4,-92,-9,6,-6,-12,5,-4,-36,-38,247,-36,-38,247,53,60,0,0,0,0,0,0,11003
120.903901101,-3,-4,-92,-9,6,-6,-12,5,-4,-36,-38,247,-36,-38,247,51,59,0,0,0,0,0,0,11004
120.915076018,-4,-4,-92,-8,6,-7,-12,6,-5,-38,-35,252,-38,-35,252,51,59,0,0,0,0,0,0,11005
120.925774098,-4,-3,-92,-8,4,-7,-10,6,-6,-38,-35,252,-38,-35,252,51,59,0,0,0,0,0,0,11006
120.940518141,-4,-4,-92,-8,2,-7,-8,5,-6,-38,-37,3,-38,-37,3,50,58,0,0,0,0,0,0,11007
120.948057175,-4,-3,-92,-8,-3,-6,-7,4,-7,-38,-37,3,-38,-37,3,50,58,0,0,0,0,0,0,11008
120.958703042,-4,-4,-92,-8,-3,-6,-7,4,-7,-39,-33,13,-39,-33,13,50,58,0,0,0,0,0,0,11009
120.969657183,-4,-4,-92,-9,-6,-6,-7,1,-7,-39,-33,13,-39,-33,13,50,58,0,0,0,0,0,0,11010
120.980689049,-4,-4,-92,-9,-10,-6,-8,-2,-6,-39,-36,22,-39,-36,22,49,57,0,0,0,0,0,0,11011
120.991860152,-4,-4,-92,-8,-10,-5,-9,-6,-6,-39,-36,22,-39,-36,22,49,57,0,0,0,0,0,0,11012
121.002701998,-4,-4,-92,-8,-10,-5,-9,-6,-6,-39,-36,22,-39,-36,22,49,57,0,0,0,0,0,0,11013
121.015017033,-4,-4,-92,-5,-11,-2,-9,-10,-5,-32,-32,41,-32,-32,41,49,57,0,0,0,0,0,0,11014
121.025139094,-4,-4,-92,-2,-12,0,-8,-11,-4,-32,-32,41,-32,-32,41,49,56,0,0,0,0,0,0,11015
121.036108017,-4,-4,-92,-2,-12,0,-8,-11,-4,-29,-32,45,-29,-32,45,49,56,0,0,0,0,0,0,11016
121.048274041,-4,-4,-92,2,-13,2,-5,-11,-2,-29,-32,45,-29,-32,45,49,56,0,0,0,0,0,0,11017
121.057770014,-4,-4,-92,4,-12,2,-1,-12,0,-25,-32,50,-25,-32,50,49,56,0,0,0,0,0,0,11018
121.068717003,-4,-4,-92,6,-10,2,2,-12,1,-25,-32,50,-25,-32,50,49,56,0,0,0,0,0,0,11019
121.079996109,-4,-4,-92,6,-10,2,2,-12,1,-19,-29,54,-19,-29,54,49,56,0,0,0,0,0,0,11020
121.090692044,-4,-4,-92,9,-4,2,5,-12,2,-19,-29,54,-19,-29,54,49,56,0,0,0,0,0,0,11021
121.101946116,-4,-4,-92,9,-4,2,5,-12,2,-20,-34,53,-20,-34,53,50,55,0,0,0,0,0,0,11022
121.112688065,-4,-4,-92,15,-1,1,7,-9,2,-20,-34,53,-20,-34,53,50,55,0,0,0,0,0,0,11023
121.123929978,-4,-4,-92,15,-1,1,7,-9,2,-18,-35,51,-18,-35,51,50,55,0,0,0,0,0,0,11024
121.144026995,-4,-4,-92,21,-3,0,10,-5,2,-18,-35,51,-18,-35,51,50,55,0,0,0,0,0,0,11025
121.146067143,-4,-4,-92,23,-4,0,14,-2,1,-18,-31,46,-18,-31,46,51,55,0,0,0,0,0,0,11026
121.156721116,-3,-3,-92,24,-5,0,20,-1,0,-18,-31,46,-18,-31,46,51,55,0,0,0,0,0,0,11027
121.167774201,-3,-3,-92,24,-5,0,20,-1,0,-18,-31,46,-18,-31,46,51,55,0,0,0,0,0,0,11028
121.178879977,-3,-3,-92,26,-9,0,24,-3,0,-20,-30,37,-20,-30,37,51,55,0,0,0,0,0,0,11029
121.189674139,-3,-3,-92,28,-11,0,25,-6,0,-20,-30,37,-20,-30,37,53,54,0,0,0,0,0,0,11030
121.201105118,-3,-4,-92,28,-11,0,25,-6,0,-23,-31,31,-23,-31,31,53,54,0,0,0,0,0,0,11031
121.211911202,-3,-3,-92,31,-16,1,26,-9,0,-23,-31,31,-23,-31,31,53,54,0,0,0,0,0,0,11032
121.222653151,-3,-4,-92,32,-18,2,28,-12,1,-26,-31,20,-26,-31,20,53,54,0,0,0,0,0,0,11033
121.233676196,-2,-4,-92,32,-22,3,30,-15,1,-26,-31,20,-26,-31,20,55,54,0,0,0,0,0,0,11034
121.244947196,-3,-4,-92,32,-22,3,30,-15,1,-21,-33,250,-21,-33,250,55,54,0,0,0,0,0,0,11035
121.255669117,-2,-4,-92,32,-24,1,32,-19,2,-21,-33,250,-21,-33,250,55,54,0,0,0,0,0,0,11036
121.266954184,-3,-4,-92,32,-24,1,32,-19,2,-22,-30,243,-22,-30,243,55,54,0,0,0,0,0,0,11037
121.277776003,-2,-4,-92,33,-27,0,32,-22,2,-22,-30,243,-22,-30,243,57,55,0,0,0,0,0,0,11038
121.291995049,-2,-4,-92,33,-30,0,32,-24,2,-23,-20,235,-23,-20,235,57,55,0,0,0,0,0,0,11039
121.29972601,-2,-4,-92,33,-30,0,32,-24,2,-23,-20,235,-23,-20,235,57,55,0,0,0,0,0,0,11040
121.31080103,-2,-4,-92,31,-34,-1,32,-27,0,-17,-15,233,-17,-15,233,57,55,0,0,0,0,0,0,11041
121.322327137,-2,-4,-92,32,-34,-1,33,-30,0,-17,-15,233,-17,-15,233,59,55,0,0,0,0,0,0,11042
121.332848073,-2,-5,-92,32,-34,-1,33,-30,0,-15,-14,227,-15,-14,227,59,55,0,0,0,0,0,0,11043
121.343662024,-2,-4,-92,33,-32,-1,32,-33,-1,-15,-14,227,-15,-14,227,59,55,0,0,0,0,0,0,11044
121.360069037,-1,-5,-92,33,-31,-1,32,-34,-2,-13,-3,221,-13,-3,221,59,55,0,0,0,0,0,0,11045
121.366405011,-1,-4,-92,33,-30,-1,32,-33,-1,-13,-3,221,-13,-3,221,61,55,0,0,0,0,0,0,11046
121.376823187,-1,-5,-92,33,-30,-1,32,-33,-1,-10,-1,219,-10,-1,219,61,55,0,0,0,0,0,0,11047
121.388401986,-1,-4,-92,33,-27,-1,33,-31,-1,-10,-1,219,-10,-1,219,61,55,0,0,0,0,0,0,11048
121.398758173,-1,-5,-92,33,-27,-1,33,-31,-1,-12,5,218,-12,5,218,61,55,0,0,0,0,0,0,11049
121.413159132,0,-4,-92,30,-25,-1,33,-29,-1,-12,5,218,-12,5,218,63,56,0,0,0,0,0,0,11050
121.420842171,0,-5,-92,30,-25,-1,33,-29,-1,-7,14,218,-7,14,218,63,56,0,0,0,0,0,0,11051
121.432010174,0,-4,-92,23,-24,-1,32,-27,-1,-7,14,218,-7,14,218,63,56,0,0,0,0,0,0,11052
121.444454194,0,-4,-92,23,-24,-1,32,-27,-1,0,16,212,0,16,212,63,56,0,0,0,0,0,0,11053
121.454138995,0,-4,-92,18,-23,-3,29,-26,-1,0,16,212,0,16,212,65,57,0,0,0,0,0,0,11054
121.465021134,0,-4,-92,16,-21,-2,24,-24,-1,0,18,206,0,18,206,65,57,0,0,0,0,0,0,11055
121.475625039,0,-4,-92,16,-21,-2,24,-24,-1,0,18,206,0,18,206,65,57,0,0,0,0,0,0,11056
121.486639977,1,-4,-92,13,-19,0,19,-22,-2,4,28,204,4,28,204,67,58,0,0,0,0,0,0,11057
121.497644186,1,-4,-92,6,-19,2,15,-21,-2,4,28,204,4,28,204,67,58,0,0,0,0,0,0,11058
121.508656025,1,-3,-92,6,-19,2,15,-21,-2,8,34,203,8,34,203,67,58,0,0,0,0,0,0,11059
121.520730973,1,-3,-92,-2,-21,4,11,-20,0,8,34,203,8,34,203,67,58,0,0,0,0,0,0,11060
121.531107188,2,-3,-92,-2,-21,4,11,-20,0,9,37,203,9,37,203,68,59,0,0,0,0,0,0,11061
121.541886092,2,-3,-92,-12,-27,8,6,-20,2,9,37,203,9,37,203,68,59,0,0,0,0,0,0,11062
121.552987099,2,-3,-92,-12,-27,8,6,-20,2,8,39,205,8,39,205,68,59,0,0,0,0,0,0,11063
121.56638217,2,-3,-92,-24,-35,12,-2,-22,5,8,39,205,8,39,205,68,59,0,0,0,0,0,0,11064
121.574850083,2,-3,-92,-29,-41,14,-13,-27,8,8,39,206,8,39,206,70,60,1,0,0,0,0,0,11065
121.588177205,2,-3,-92,-34,-47,16,-23,-35,12,8,39,206,8,39,206,70,60,1,0,0,0,0,0,11066
121.600172997,2,-3,-92,-34,-47,16,-23,-35,12,8,39,206,8,39,206,70,60,1,0,0,0,0,0,11067
121.607865096,2,-3,-92,-44,-60,21,-31,-42,15,9,35,209,9,35,209,70,60,1,0,0,0,0,0,11068
121.618803025,2,-3,-91,-49,-66,24,-36,-50,18,9,35,209,9,35,209,71,61,1,0,0,0,0,0,11069
121.629806996,2,-3,-91,-53,-71,27,-42,-57,20,19,31,206,19,31,206,71,61,1,0,0,0,0,0,11070
121.640737057,2,-3,-91,-53,-71,27,-42,-57,20,19,31,206,19,31,206,71,61,1,0,0,0,0,0,11071
121.651732207,1,-3,-91,-63,-83,32,-49,-66,24,19,31,206,19,31,206,71,61,1,0,0,0,0,0,11072
121.66448617,1,-3,-91,-68,-89,33,-55,-74,28,21,24,206,21,24,206,73,62,1,0,0,0,0,0,11073
121.676273108,0,-4,-90,-73,-96,34,-61,-81,31,21,24,206,21,24,206,73,62,1,0,0,0,0,0,11074
121.684984208,0,-4,-90,-73,-96,34,-61,-81,31,21,24,206,21,24,206,73,62,1,0,0,0,0,0,11075
121.696314097,0,-4,-90,-77,-111,35,-68,-89,34,37,-2,205,37,-2,205,73,62,1,0,0,0,0,0,11076
121.706725121,0,-4,-90,-76,-118,35,-74,-98,35,37,-2,205,37,-2,205,74,63,1,0,0,0,0,0,11077
121.721916199,-1,-4,-90,-74,-125,36,-77,-109,35,43,-17,201,43,-17,201,74,63,1,0,0,0,0,0,11078
121.728680134,-1,-4,-90,-74,-125,36,-77,-109,35,43,-17,201,43,-17,201,74,63,1,0,0,0,0,0,11079
121.739993096,-1,-5,-89,-69,-138,37,-77,-119,35,43,-17,201,43,-17,201,74,63,1,0,0,0,0,0,11080
121.751049042,-2,-4,-89,-67,-144,36,-74,-128,36,68,-21,200,68,-21,200,76,64,1,0,0,0,0,0,11081
121.761037112,-2,-5,-89,-59,-155,34,-70,-136,37,68,-21,200,68,-21,200,76,64,1,0,0,0,0,0,11082
121.771855116,-3,-3,-89,-59,-155,34,-70,-136,37,91,-37,192,91,-37,192,76,64,1,0,0,0,0,0,11083
121.784209013,-3,-4,-88,-49,-160,30,-65,-145,36,91,-37,192,91,-37,192,76,64,1,0,0,0,0,0,11084
121.793901206,-4,-3,-88,-44,-161,26,-59,-154,34,95,-44,185,95,-44,185,79,66,1,0,0,0,0,0,11085
121.804632187,-4,-4,-88,-39,-162,22,-51,-160,30,95,-44,185,95,-44,185,79,66,1,0,0,0,0,0,11086
121.815760136,-4,-4,-88,-39,-162,22,-51,-160,30,95,-44,185,95,-44,185,79,66,1,0,0,0,0,0,11087
121.82672,-5,-3,-88,-30,-162,12,-43,-163,25,112,-50,175,112,-50,175,79,66,1,0,0,0,0,0,11088
121.841973067,-5,-4,-88,-26,-161,7,-36,-162,20,112,-50,175,112,-50,175,92,68,2,0,0,0,0,0,11089
121.848684073,-6,-2,-88,-22,-159,1,-31,-161,14,143,-52,152,143,-52,152,92,68,2,0,0,0,0,0,11090
121.859761,-6,-2,-88,-22,-159,1,-31,-161,14,143,-52,152,143,-52,152,92,68,2,0,0,0,0,0,11091
121.872117997,-5,-3,-88,-15,-149,-7,-25,-160,6,143,-52,152,143,-52,152,92,68,2,0,0,0,0,0,11092
121.881602049,-6,0,-88,-12,-141,-10,-20,-157,0,164,-48,149,164,-48,149,93,70,2,0,0,0,0,0,11093
121.892663002,-5,-1,-88,-10,-131,-12,-16,-150,-6,164,-48,149,164,-48,149,93,70,2,0,0,0,0,0,11094
121.903777123,-6,1,-88,-10,-131,-12,-16,-150,-6,182,-53,146,182,-53,146,93,70,2,0,0,0,0,0,11095
121.914679051,-6,0,-88,-5,-108,-13,-12,-140,-10,182,-53,146,182,-53,146,93,70,2,0,0,0,0,0,11096
121.92573309,-6,3,-88,-3,-95,-13,-9,-127,-13,192,-55,141,192,-55,141,93,70,2,0,0,0,0,0,11097
121.936733008,-6,2,-89,1,-68,-11,-6,-111,-13,192,-55,141,192,-55,141,93,70,2,0,0,0,0,0,11098
121.947765112,-7,6,-89,1,-68,-11,-6,-111,-13,221,-53,129,221,-53,129,93,70,2,0,0,0,0,0,11099
121.958745003,-6,5,-89,2,-54,-11,-3,-91,-13,221,-53,129,221,-53,129,93,70,2,0,0,0,0,0,11100
121.969832182,-6,5,-89,3,-39,-12,0,-70,-12,221,-53,129,221,-53,129,93,70,2,0,0,0,0,0,11101
121.981122971,-6,8,-89,4,-8,-11,3,-51,-11,229,-53,126,229,-53,126,93,70,2,0,0,0,0,0,11102
121.992361069,-6,8,-89,4,-8,-11,3,-51,-11,229,-53,126,229,-53,126,93,70,2,0,0,0,0,0,11103
122.002730132,-6,8,-89,5,7,-13,4,-33,-11,229,-53,126,229,-53,126,93,70,2,0,0,0,0,0,11104
122.013751984,-6,12,-89,8,38,-15,5,-12,-12,228,-49,127,228,-49,127,95,73,2,0,0,0,0,0,11105
122.025022984,-5,11,-89,9,53,-17,6,11,-13,228,-49,127,228,-49,127,95,73,2,0,0,0,0,0,11106
122.035820008,-6,15,-89,9,53,-17,6,11,-13,226,-45,134,226,-45,134,95,73,2,0,0,0,0,0,11107
122.046737195,-5,15,-89,9,79,-21,7,36,-15,226,-45,134,226,-45,134,95,73,2,0,0,0,0,0,11108
122.060070992,-6,19,-89,9,79,-21,7,36,-15,220,-46,139,220,-46,139,93,75,1,0,0,0,0,0,11109
122.068734169,-6,18,-90,12,103,-25,9,59,-18,220,-46,139,220,-46,139,93,75,1,0,0,0,0,0,11110
122.080420971,-6,22,-90,12,103,-25,9,59,-18,210,-47,146,210,-47,146,93,75,1,0,0,0,0,0,11111
122.090708018,-6,21,-90,19,122,-31,11,80,-21,210,-47,146,210,-47,146,93,75,1,0,0,0,0,0,11112
122.101629973,-6,25,-90,19,122,-31,11,80,-21,195,-43,154,195,-43,154,93,76,1,0,0,0,0,0,11113
122.112640143,-6,24,-90,28,138,-36,13,102,-25,195,-43,154,195,-43,154,93,76,1,0,0,0,0,0,11114
122.123844147,-6,27,-90,28,138,-36,13,102,-25,174,-40,164,174,-40,164,93,76,1,0,0,0,0,0,11115
122.134952069,-6,26,-90,37,152,-41,19,123,-31,174,-40,164,174,-40,164,93,76,1,0,0,0,0,0,11116
122.148176194,-6,29,-90,37,152,-41,19,123,-31,161,-36,169,161,-36,169,78,76,0,0,0,0,0,0,11117
122.156633139,-5,29,-91,44,165,-46,28,141,-36,161,-36,169,161,-36,169,78,76,0,0,0,0,0,0,11118
122.167814017,-6,31,-91,44,165,-46,28,141,-36,145,-31,174,145,-31,174,78,76,0,0,0,0,0,0,11119
122.180021048,-5,30,-91,47,172,-50,37,153,-42,145,-31,174,145,-31,174,78,76,0,0,0,0,0,0,11120
122.190011025,-6,33,-91,47,172,-50,37,153,-42,115,-17,186,115,-17,186,75,76,0,0,0,0,0,0,11121
122.200903178,-5,32,-92,49,173,-56,44,164,-46,115,-17,186,115,-17,186,75,76,0,0,0,0,0,0,11122
122.212601185,-5,34,-92,49,173,-56,44,164,-46,104,-14,194,104,-14,194,75,76,0,0,0,0,0,0,11123
122.222881079,-4,32,-92,49,176,-59,48,171,-51,104,-14,194,104,-14,194,75,76,0,0,0,0,0,0,11124
122.233762026,-4,34,-92,49,176,-59,48,171,-51,93,-7,199,93,-7,199,73,76,0,0,0,0,0,0,11125
122.245031119,-4,33,-93,51,190,-62,49,176,-55,93,-7,199,93,-7,199,73,76,0,0,0,0,0,0,11126
122.255704165,-4,35,-93,51,190,-62,49,176,-55,77,-3,201,77,-3,201,73,76,0,0,0,0,0,0,11127
122.268834115,-3,34,-93,51,202,-61,49,179,-60,77,-3,201,77,-3,201,73,76,0,0,0,0,0,0,11128
122.277638197,-3,35,-93,51,202,-61,49,179,-60,55,1,201,55,1,201,71,75,0,0,0,0,0,0,11129
122.288712979,-2,34,-94,51,207,-60,50,187,-62,55,1,201,55,1,201,71,75,0,0,0,0,0,0,11130
122.299596072,-2,34,-94,51,207,-60,50,187,-62,29,1,199,29,1,199,71,75,0,0,0,0,0,0,11131
122.310667992,-2,33,-94,51,201,-57,51,199,-62,29,1,199,29,1,199,71,75,0,0,0,0,0,0,11132
122.322607041,-2,33,-94,51,201,-57,51,199,-62,6,4,209,6,4,209,70,75,0,0,0,0,0,0,11133
122.332597971,-1,33,-94,48,191,-53,52,207,-60,6,4,209,6,4,209,70,75,0,0,0,0,0,0,11134
122.343797207,-1,32,-94,48,191,-53,52,207,-60,-15,14,217,-15,14,217,70,75,0,0,0,0,0,0,11135
122.354964018,-1,31,-95,43,179,-46,50,204,-56,-15,14,217,-15,14,217,70,75,0,0,0,0,0,0,11136
122.366137028,0,31,-95,43,179,-46,50,204,-56,-34,22,220,-34,22,220,70,74,0,0,0,0,0,0,11137
122.377612114,0,30,-95,38,166,-41,48,192,-52,-34,22,220,-34,22,220,70,74,0,0,0,0,0,0,11138
122.391425133,0,29,-95,38,166,-41,48,192,-52,-42,30,228,-42,30,228,70,74,0,0,0,0,0,0,11139
122.398725987,0,28,-95,33,157,-38,43,177,-47,-42,30,228,-42,30,228,70,74,0,0,0,0,0,0,11140
122.409602166,1,27,-95,33,157,-38,43,177,-47,-51,32,229,-51,32,229,69,74,0,0,0,0,0,0,11141
122.424436093,1,26,-96,32,150,-35,38,165,-41,-51,32,229,-51,32,229,69,74,0,0,0,0,0,0,11142
122.431697131,1,25,-96,32,150,-35,38,165,-41,-76,38,227,-76,38,227,69,74,0,0,0,0,0,0,11143
122.442661047,1,24,-96,30,142,-31,34,156,-37,-76,38,227,-76,38,227,69,74,0,0,0,0,0,0,11144
122.454802037,2,23,-96,30,142,-31,34,156,-37,-90,39,224,-90,39,224,69,73,0,0,0,0,0,0,11145
122.468430996,2,22,-96,28,128,-26,31,149,-34,-90,39,224,-90,39,224,69,73,0,0,0,0,0,0,11146
122.47616601,3,20,-96,28,128,-26,31,149,-34,-102,38,222,-102,38,222,69,73,0,0,0,0,0,0,11147
122.486648083,3,20,-96,24,110,-22,29,140,-31,-102,38,222,-102,38,222,69,73,0,0,0,0,0,0,11148
122.497733117,3,18,-96,24,110,-22,29,140,-31,-108,39,216,-108,39,216,69,73,0,0,0,0,0,0,11149
122.508660079,3,17,-96,16,81,-18,28,127,-26,-108,39,216,-108,39,216,69,73,0,0,0,0,0,0,11150
122.519616127,4,15,-96,16,81,-18,28,127,-26,-112,42,210,-112,42,210,69,73,0,0,0,0,0,0,11151
122.530762196,4,14,-97,7,65,-16,23,108,-22,-112,42,210,-112,42,210,69,73,0,0,0,0,0,0,11152
122.541575194,4,12,-97,7,65,-16,23,108,-22,-113,42,206,-113,42,206,69,72,0,0,0,0,0,0,11153
122.552651167,4,12,-97,-1,50,-14,16,84,-18,-113,42,206,-113,42,206,69,72,0,0,0,0,0,0,11154
122.563744069,5,10,-97,-1,50,-14,16,84,-18,-117,43,205,-117,43,205,69,72,0,0,0,0,0,0,11155
122.574938059,4,9,-97,-10,35,-11,7,62,-15,-117,43,205,-117,43,205,69,72,0,0,0,0,0,0,11156
122.585661173,5,7,-97,-10,35,-11,7,62,-15,-120,42,202,-120,42,202,69,72,0,0,0,0,0,0,11157
122.596602202,4,7,-97,-18,17,-9,-2,46,-13,-120,42,202,-120,42,202,69,72,0,0,0,0,0,0,11158
122.607791186,5,5,-97,-18,17,-9,-2,46,-13,-122,40,200,-122,40,200,69,72,0,0,0,0,0,0,11159
122.618759156,5,4,-97,-27,-2,-7,-11,33,-11,-122,40,200,-122,40,200,69,72,0,0,0,0,0,0,11160
122.629657984,5,2,-97,-27,-2,-7,-11,33,-11,-120,33,200,-120,33,200,68,72,0,0,0,0,0,0,11161
122.645063162,4,2,-97,-37,-20,-5,-19,17,-9,-120,33,200,-120,33,200,68,72,0,0,0,0,0,0,11162
122.651770115,5,0,-97,-37,-20,-5,-19,17,-9,-119,27,198,-119,27,198,68,72,0,0,0,0,0,0,11163
122.66267705,4,0,-97,-48,-36,-4,-28,-2,-6,-119,27,198,-119,27,198,68,72,0,0,0,0,0,0,11164
122.673621178,5,-2,-97,-48,-36,-4,-28,-2,-6,-116,24,188,-116,24,188,68,71,0,0,0,0,0,0,11165
122.684727192,4,-2,-97,-61,-51,-3,-37,-22,-5,-116,24,188,-116,24,188,68,71,0,0,0,0,0,0,11166
122.696027041,4,-4,-97,-61,-51,-3,-37,-22,-5,-108,27,183,-108,27,183,68,71,0,0,0,0,0,0,11167
122.706833125,4,-4,-97,-79,-64,-4,-49,-39,-4,-108,27,183,-108,27,183,68,71,0,0,0,0,0,0,11168
122.717774153,4,-6,-97,-79,-64,-4,-49,-39,-4,-95,33,179,-95,33,179,67,71,0,0,0,0,0,0,11169
122.729339123,3,-6,-97,-97,-72,-6,-63,-52,-4,-95,33,179,-95,33,179,67,71,0,0,0,0,0,0,11170
122.739737034,3,-8,-97,-97,-72,-6,-63,-52,-4,-89,18,174,-89,18,174,67,71,0,0,0,0,0,0,11171
122.750819207,2,-8,-97,-116,-77,-5,-79,-64,-4,-89,18,174,-89,18,174,67,71,0,0,0,0,0,0,11172
122.761631012,3,-10,-97,-116,-77,-5,-79,-64,-4,-91,13,173,-91,13,173,66,70,0,0,0,0,0,0,11173
122.772705079,1,-10,-97,-136,-77,-1,-98,-73,-5,-91,13,173,-91,13,173,66,70,0,0,0,0,0,0,11174
122.783943177,1,-12,-97,-136,-77,-1,-98,-73,-5,-78,-21,174,-78,-21,174,66,70,0,0,0,0,0,0,11175
122.79518509,0,-11,-97,-144,-72,-3,-117,-77,-5,-78,-21,174,-78,-21,174,66,70,0,0,0,0,0,0,11176
122.806056023,0,-13,-97,-144,-72,-3,-117,-77,-5,-66,-36,181,-66,-36,181,65,70,0,0,0,0,0,0,11177
122.816640139,-1,-12,-97,-143,-62,-5,-134,-77,-3,-66,-36,181,-66,-36,181,65,70,0,0,0,0,0,0,11178
122.826779128,-2,-13,-97,-143,-62,-5,-134,-77,-3,-58,-61,183,-58,-61,183,65,70,0,0,0,0,0,0,11179
122.837818146,-3,-13,-97,-132,-49,-9,-144,-71,-2,-58,-61,183,-58,-61,183,65,70,0,0,0,0,0,0,11180
122.855812073,-4,-14,-97,-132,-49,-9,-144,-71,-2,-51,-79,186,-51,-79,186,66,69,0,0,0,0,0,0,11181
122.85995698,-5,-13,-97,-112,-33,-11,-143,-62,-4,-51,-79,186,-51,-79,186,66,69,0,0,0,0,0,0,11182
122.870815039,-6,-14,-97,-112,-33,-11,-143,-62,-4,-62,-85,189,-62,-85,189,66,69,0,0,0,0,0,0,11183
122.882352114,-7,-13,-97,-92,-16,-12,-131,-48,-9,-62,-85,189,-62,-85,189,66,69,0,0,0,0,0,0,11184
122.892610074,-8,-13,-98,-84,-9,-11,-113,-32,-12,-56,-82,197,-56,-82,197,64,69,0,0,0,0,0,0,11185
122.903712035,-8,-12,-98,-77,-3,-11,-94,-17,-13,-56,-82,197,-56,-82,197,64,69,0,0,0,0,0,0,11186
122.914592028,-10,-14,-98,-77,-3,-11,-94,-17,-13,-69,-86,202,-69,-86,202,64,69,0,0,0,0,0,0,11187
122.925604105,-9,-13,-98,-65,6,-11,-81,-7,-12,-69,-86,202,-69,-86,202,64,69,0,0,0,0,0,0,11188
122.942773104,-11,-14,-98,-65,6,-11,-81,-7,-12,-75,-91,207,-75,-91,207,64,68,0,0,0,0,0,0,11189
122.952747107,-11,-13,-98,-52,12,-11,-73,0,-11,-75,-91,207,-75,-91,207,64,68,0,0,0,0,0,0,11190
122.958935976,-12,-14,-98,-52,12,-11,-73,0,-11,-81,-96,214,-81,-96,214,64,68,0,0,0,0,0,0,11191
122.969909192,-12,-13,-98,-37,16,-12,-66,4,-11,-81,-96,214,-81,-96,214,64,68,0,0,0,0,0,0,11192
122.984918118,-13,-14,-98,-37,16,-12,-66,4,-11,-84,-99,219,-84,-99,219,63,68,0,0,0,0,0,0,11193
122.992704154,-12,-13,-98,-22,17,-12,-53,11,-11,-84,-99,219,-84,-99,219,63,68,0,0,0,0,0,0,11194
123.008011103,-14,-14,-98,-22,17,-12,-53,11,-11,-86,-100,224,-86,-100,224,63,68,0,0,0,0,0,0,11195
123.013588191,-13,-13,-98,-5,18,-11,-36,17,-12,-86,-100,224,-86,-100,224,63,68,0,0,0,0,0,0,11196
123.024935008,-14,-14,-98,3,18,-9,-20,19,-12,-87,-99,226,-87,-99,226,63,67,0,0,0,0,0,0,11197
123.0383842,-12,-12,-98,18,17,-4,-6,18,-11,-87,-99,226,-87,-99,226,63,67,0,0,0,0,0,0,11198
123.046615124,-14,-14,-98,18,17,-4,-6,18,-11,-88,-96,228,-88,-96,228,63,67,0,0,0,0,0,0,11199
123.057622195,-13,-13,-98,29,14,1,5,17,-8,-88,-96,228,-88,-96,228,63,67,0,0,0,0,0,0,11200
123.068575144,-14,-14,-98,29,14,1,5,17,-8,-87,-96,231,-87,-96,231,62,67,0,0,0,0,0,0,11201
123.079554081,-13,-13,-98,40,12,6,18,17,-4,-87,-96,231,-87,-96,231,62,67,0,0,0,0,0,0,11202
123.090875149,-14,-14,-98,40,12,6,18,17,-4,-90,-96,231,-90,-96,231,62,67,0,0,0,0,0,0,11203
123.104515076,-13,-13,-98,51,10,10,29,15,1,-90,-96,231,-90,-96,231,62,67,0,0,0,0,0,0,11204
123.112812996,-14,-15,-98,51,10,10,29,15,1,-89,-94,230,-89,-94,230,62,66,0,0,0,0,0,0,11205
123.123887063,-13,-13,-98,60,8,12,41,12,6,-89,-94,230,-89,-94,230,62,66,0,0,0,0,0,0,11206
123.134913207,-14,-15,-98,60,8,12,41,12,6,-87,-91,236,-87,-91,236,62,66,0,0,0,0,0,0,11207
123.145572186,-13,-14,-98,67,7,15,51,10,10,-87,-91,236,-87,-91,236,62,66,0,0,0,0,0,0,11208
123.158022166,-13,-14,-98,71,6,16,60,8,13,-93,-91,234,-93,-91,234,64,66,0,0,0,0,0,0,11209
123.168061972,-11,-13,-98,75,4,18,67,7,15,-93,-91,234,-93,-91,234,64,66,0,0,0,0,0,0,11210
123.178748131,-13,-15,-98,75,4,18,67,7,15,-95,-87,229,-95,-87,229,64,66,0,0,0,0,0,0,11211
123.189645052,-11,-13,-97,86,-3,18,72,6,17,-95,-87,229,-95,-87,229,64,66,0,0,0,0,0,0,11212
123.200635195,-13,-15,-97,86,-3,18,72,6,17,-90,-82,223,-90,-82,223,63,66,0,0,0,0,0,0,11213
123.211578131,-11,-14,-97,100,-10,16,77,3,18,-90,-82,223,-90,-82,223,63,66,0,0,0,0,0,0,11214
123.222670079,-12,-15,-97,100,-10,16,77,3,18,-85,-75,217,-85,-75,217,63,66,0,0,0,0,0,0,11215
123.234791995,-11,-14,-97,111,-17,16,86,-2,18,-85,-75,217,-85,-75,217,63,66,0,0,0,0,0,0,11216
123.244563103,-12,-16,-97,111,-17,16,86,-2,18,-79,-67,216,-79,-67,216,63,65,0,0,0,0,0,0,11217
123.256081105,-10,-15,-97,117,-20,18,98,-10,17,-79,-67,216,-79,-67,216,63,65,0,0,0,0,0,0,11218
123.266805172,-11,-16,-97,117,-20,18,98,-10,17,-76,-63,210,-76,-63,210,63,65,0,0,0,0,0,0,11219
123.278076172,-9,-15,-97,122,-21,18,111,-17,16,-76,-63,210,-76,-63,210,63,65,0,0,0,0,0,0,11220
123.289466143,-9,-15,-97,126,-21,18,119,-21,17,-72,-58,202,-72,-58,202,63,65,0,0,0,0,0,0,11221
123.299764157,-7,-14,-97,132,-18,16,123,-22,18,-72,-58,202,-72,-58,202,63,65,0,0,0,0,0,0,11222
123.315765143,-8,-16,-97,132,-18,16,123,-22,18,-65,-47,195,-65,-47,195,63,65,0,0,0,0,0,0,11223
123.321539164,-7,-15,-97,133,-13,13,126,-21,18,-65,-47,195,-65,-47,195,63,65,0,0,0,0,0,0,11224
123.338922978,-7,-16,-97,133,-13,13,126,-21,18,-60,-29,193,-60,-29,193,64,65,0,0,0,0,0,0,11225
123.343948126,-6,-15,-96,127,-13,10,130,-18,16,-60,-29,193,-60,-29,193,64,65,0,0,0,0,0,0,11226
123.355020047,-6,-16,-96,127,-13,10,130,-18,16,-63,-7,190,-63,-7,190,64,65,0,0,0,0,0,0,11227
123.365709067,-5,-15,-96,115,-17,7,132,-15,13,-63,-7,190,-63,-7,190,64,65,0,0,0,0,0,0,11228
123.375625134,-4,-17,-96,115,-17,7,132,-15,13,-71,23,188,-71,23,188,65,65,0,0,0,0,0,0,11229
123.386594058,-3,-16,-96,101,-23,5,127,-13,9,-71,23,188,-71,23,188,65,65,0,0,0,0,0,0,11230
123.398666144,-2,-17,-96,101,-23,5,127,-13,9,-67,43,186,-67,43,186,65,65,0,0,0,0,0,0,11231
123.408737183,-2,-16,-96,85,-26,2,116,-16,7,-67,43,186,-67,43,186,65,65,0,0,0,0,0,0,11232
123.419665099,0,-16,-96,76,-26,1,100,-22,4,-63,61,187,-63,61,187,65,65,0,0,0,0,0,0,11233
123.431328059,0,-15,-96,67,-26,0,85,-26,2,-63,61,187,-63,61,187,65,65,0,0,0,0,0,0,11234
123.44166112,1,-16,-96,67,-26,0,85,-26,2,-60,74,188,-60,74,188,65,65,0,0,0,0,0,0,11235
123.452697039,2,-15,-96,48,-22,-1,74,-28,1,-60,74,188,-60,74,188,65,65,0,0,0,0,0,0,11236
123.46410513,3,-15,-96,38,-20,-1,64,-25,0,-59,84,189,-59,84,189,65,65,0,0,0,0,0,0,11237
123.47535801,3,-14,-96,27,-18,-1,51,-22,-1,-59,84,189,-59,84,189,65,65,0,0,0,0,0,0,11238
123.485853196,3,-14,-96,27,-18,-1,51,-22,-1,-59,84,189,-59,84,189,65,65,0,0,0,0,0,0,11239
123.496581078,5,-14,-96,7,-13,0,37,-20,-1,-49,94,199,-49,94,199,65,65,0,0,0,0,0,0,11240
123.507565022,4,-13,-96,-1,-11,0,23,-17,-1,-49,94,199,-49,94,199,65,65,0,0,0,0,0,0,11241
123.52499199,6,-13,-96,-9,-9,1,9,-14,0,-48,88,204,-48,88,204,65,65,0,0,0,0,0,0,11242
123.530212164,6,-13,-96,-9,-9,1,9,-14,0,-48,88,204,-48,88,204,65,65,0,0,0,0,0,0,11243
123.540530205,5,-12,-96,-18,-7,4,-2,-11,0,-48,88,204,-48,88,204,65,65,0,0,0,0,0,0,11244
123.551558018,6,-12,-96,-21,-7,5,-11,-8,2,-49,80,208,-49,80,208,65,65,0,0,0,0,0,0,11245
123.562471152,5,-12,-96,-24,-8,7,-18,-7,4,-49,80,208,-49,80,208,65,65,0,0,0,0,0,0,11246
123.573501111,7,-12,-96,-24,-8,7,-18,-7,4,-47,74,212,-47,74,212,65,65,0,0,0,0,0,0,11247
123.584510088,6,-12,-96,-26,-11,7,-21,-7,5,-47,74,212,-47,74,212,65,65,0,0,0,0,0,0,11248
123.595494986,6,-12,-96,-28,-12,8,-24,-8,7,-47,69,215,-47,69,215,65,65,0,0,0,0,0,0,11249
123.606491089,6,-11,-96,-30,-14,9,-26,-10,8,-47,69,215,-47,69,215,65,65,0,0,0,0,0,0,11250
123.617583991,6,-11,-96,-30,-14,9,-26,-10,8,-47,69,215,-47,69,215,65,65,0,0,0,0,0,0,11251
123.628632069,6,-11,-96,-37,-20,11,-28,-13,8,-50,65,218,-50,65,218,65,65,0,0,0,0,0,0,11252
123.645585061,5,-11,-96,-43,-24,12,-32,-16,9,-50,65,218,-50,65,218,65,65,0,0,0,0,0,0,11253
123.651946068,6,-11,-96,-49,-30,14,-37,-19,11,-50,65,218,-50,65,218,65,65,0,0,0,0,0,0,11254
123.661625147,6,-11,-96,-49,-30,14,-37,-19,11,-50,65,218,-50,65,218,65,65,0,0,0,0,0,0,11255
123.672507048,5,-10,-96,-64,-46,17,-43,-25,12,-50,65,218,-50,65,218,65,65,0,0,0,0,0,0,11256
123.683570147,5,-11,-95,-72,-56,18,-52,-33,14,-57,64,211,-57,64,211,65,65,0,0,0,0,0,0,11257
123.694560051,4,-11,-95,-81,-67,20,-62,-44,16,-57,64,211,-57,64,211,65,65,0,0,0,0,0,0,11258
123.706207037,5,-12,-95,-81,-67,20,-62,-44,16,-55,58,209,-55,58,209,65,65,0,0,0,0,0,0,11259
123.716694117,4,-12,-95,-97,-91,24,-73,-57,18,-55,58,209,-55,58,209,65,65,0,0,0,0,0,0,11260
123.727571011,4,-12,-95,-103,-103,26,-84,-72,21,-49,43,205,-49,43,205,65,65,0,0,0,0,0,0,11261
123.738512993,3,-12,-95,-108,-115,29,-95,-88,23,-49,43,205,-49,43,205,65,65,0,0,0,0,0,0,11262
123.749544144,3,-12,-95,-108,-115,29,-95,-88,23,-49,43,205,-49,43,205,65,65,0,0,0,0,0,0,11263
123.760584116,2,-13,-94,-117,-134,36,-103,-104,26,-25,7,206,-25,7,206,65,65,0,0,0,0,0,0,11264
123.77227211,1,-13,-94,-122,-139,39,-110,-119,30,-25,7,206,-25,7,206,65,65,0,0,0,0,0,0,11265
123.784284115,0,-13,-94,-124,-144,42,-116,-131,35,-11,-21,211,-11,-21,211,65,65,0,0,0,0,0,0,11266
123.795977116,0,-13,-94,-124,-144,42,-116,-131,35,-11,-21,211,-11,-21,211,65,65,0,0,0,0,0,0,11267
123.803565979,-1,-13,-93,-120,-149,42,-121,-140,39,-11,-21,211,-11,-21,211,65,65,0,0,0,0,0,0,11268
123.814844132,-2,-13,-93,-113,-150,41,-123,-146,42,7,-35,209,7,-35,209,65,65,0,0,0,0,0,0,11269
123.8265481,-2,-13,-93,-94,-145,37,-120,-148,43,7,-35,209,7,-35,209,65,65,0,0,0,0,0,0,11270
123.836584092,-4,-13,-93,-94,-145,37,-120,-148,43,31,-74,228,31,-74,228,65,65,0,0,0,0,0,0,11271
123.847707987,-4,-13,-93,-73,-133,33,-110,-148,41,31,-74,228,31,-74,228,65,65,0,0,0,0,0,0,11272
123.858769179,-5,-12,-92,-63,-126,30,-94,-144,37,62,-79,234,62,-79,234,66,65,0,0,0,0,0,0,11273
123.869595051,-5,-12,-92,-52,-120,27,-76,-136,33,62,-79,234,62,-79,234,66,65,0,0,0,0,0,0,11274
123.880620003,-5,-12,-92,-52,-120,27,-76,-136,33,62,-79,234,62,-79,234,66,65,0,0,0,0,0,0,11275
123.891999007,-6,-11,-92,-30,-111,19,-60,-125,29,72,-81,235,72,-81,235,66,65,0,0,0,0,0,0,11276
123.902731181,-6,-11,-92,-30,-111,19,-60,-125,29,72,-81,235,72,-81,235,66,65,0,0,0,0,0,0,11277
123.913630009,-7,-10,-92,-14,-105,13,-47,-117,25,79,-77,235,79,-77,235,66,65,0,0,0,0,0,0,11278
123.92492199,-7,-10,-92,-14,-105,13,-47,-117,25,79,-77,235,79,-77,235,66,65,0,0,0,0,0,0,11279
123.945710183,-8,-8,-92,-2,-101,10,-33,-111,20,86,-71,233,86,-71,233,67,65,0,0,0,0,0,0,11280
123.947494984,-7,-8,-92,2,-98,8,-16,-106,14,86,-71,233,86,-71,233,67,65,0,0,0,0,0,0,11281
123.957782031,-7,-8,-92,2,-98,8,-16,-106,14,86,-71,233,86,-71,233,67,65,0,0,0,0,0,0,11282
123.971891165,-8,-7,-92,12,-90,4,-1,-100,9,100,-67,227,100,-67,227,67,65,0,0,0,0,0,0,11283
123.97974515,-7,-7,-92,18,-86,1,6,-96,6,100,-67,227,100,-67,227,68,65,0,0,0,0,0,0,11284
123.990816117,-7,-5,-92,23,-83,-1,11,-91,4,105,-70,221,105,-70,221,68,65,0,0,0,0,0,0,11285
124.001986027,-7,-5,-92,23,-83,-1,11,-91,4,105,-70,221,105,-70,221,68,65,0,0,0,0,0,0,11286
124.012928009,-8,-4,-92,32,-79,-6,17,-86,1,111,-68,215,111,-68,215,68,65,0,0,0,0,0,0,11287
124.024049998,-7,-4,-92,36,-78,-9,24,-82,-2,111,-68,215,111,-68,215,69,66,0,0,0,0,0,0,11288
124.034671069,-8,-2,-92,36,-78,-9,24,-82,-2,116,-60,210,116,-60,210,69,66,0,0,0,0,0,0,11289
124.045602084,-7,-2,-92,42,-75,-14,31,-79,-6,116,-60,210,116,-60,210,69,66,0,0,0,0,0,0,11290
124.056595088,-7,-2,-92,42,-75,-14,31,-79,-6,116,-60,210,116,-60,210,69,66,0,0,0,0,0,0,11291
124.067622185,-7,0,-92,46,-71,-18,37,-77,-10,127,-56,200,127,-56,200,70,66,0,0,0,0,0,0,11292
124.079064131,-6,-1,-92,50,-66,-21,42,-75,-14,127,-56,200,127,-56,200,70,66,0,0,0,0,0,0,11293
124.089891196,-6,-1,-92,50,-66,-21,42,-75,-14,127,-56,200,127,-56,200,70,66,0,0,0,0,0,0,11294
124.108427048,-6,0,-92,54,-61,-27,46,-71,-18,133,-44,178,133,-44,178,70,66,0,0,0,0,0,0,11295
124.115695,-5,0,-93,56,-58,-30,50,-66,-22,133,-44,178,133,-44,178,71,66,0,0,0,0,0,0,11296
124.123166085,-5,2,-93,58,-54,-34,54,-61,-26,143,-34,176,143,-34,176,71,66,0,0,0,0,0,0,11297
124.133472205,-5,2,-93,58,-54,-34,54,-61,-26,143,-34,176,143,-34,176,71,66,0,0,0,0,0,0,11298
124.1445961,-4,2,-93,62,-41,-41,57,-57,-31,143,-34,176,143,-34,176,71,66,0,0,0,0,0,0,11299
124.155556202,-4,4,-94,65,-33,-44,59,-52,-35,158,-20,172,158,-20,172,71,66,0,0,0,0,0,0,11300
124.166587115,-3,4,-94,67,-24,-48,62,-43,-40,158,-20,172,158,-20,172,71,66,0,0,0,0,0,0,11301
124.177602053,-3,7,-94,67,-24,-48,62,-43,-40,185,0,175,185,0,175,71,66,0,0,0,0,0,0,11302
124.188630105,-2,6,-94,71,-4,-54,65,-32,-45,185,0,175,185,0,175,71,66,0,0,0,0,0,0,11303
124.200532198,-1,9,-95,72,6,-57,68,-19,-49,193,10,177,193,10,177,71,66,0,0,0,0,0,0,11304
124.211544991,0,9,-96,73,30,-63,71,-6,-53,193,10,177,193,10,177,71,66,0,0,0,0,0,0,11305
124.221471072,0,12,-96,73,30,-63,71,-6,-53,195,20,177,195,20,177,71,66,0,0,0,0,0,0,11306
124.232612133,0,12,-96,73,42,-65,73,9,-58,195,20,177,195,20,177,71,66,0,0,0,0,0,0,11307
124.243523121,0,11,-97,73,54,-68,73,28,-62,195,20,177,195,20,177,71,67,0,0,0,0,0,0,11308
124.254620076,1,14,-97,73,66,-71,73,44,-66,191,26,179,191,26,179,71,67,0,0,0,0,0,0,11309
124.265483141,1,14,-97,73,66,-71,73,44,-66,191,26,179,191,26,179,71,67,0,0,0,0,0,0,11310
124.276478053,1,14,-98,67,90,-77,73,57,-69,191,26,179,191,26,179,71,67,0,0,0,0,0,0,11311
124.287676096,2,16,-98,62,102,-79,72,70,-72,173,47,183,173,47,183,69,67,0,0,0,0,0,0,11312
124.298586131,3,16,-99,53,120,-83,68,86,-76,173,47,183,173,47,183,69,67,0,0,0,0,0,0,11313
124.309569121,4,19,-99,53,120,-83,68,86,-76,156,58,179,156,58,179,69,67,0,0,0,0,0,0,11314
124.320475102,4,18,-100,49,126,-84,62,104,-80,156,58,179,156,58,179,69,67,0,0,0,0,0,0,11315
124.331674099,5,21,-100,49,126,-84,62,104,-80,130,70,173,130,70,173,68,67,0,0,0,0,0,0,11316
124.342661143,5,20,-100,35,126,-83,54,119,-83,130,70,173,130,70,173,68,67,0,0,0,0,0,0,11317
124.357125998,6,22,-100,35,126,-83,54,119,-83,111,75,184,111,75,184,68,67,0,0,0,0,0,0,11318
124.36563015,6,22,-101,24,122,-78,45,127,-84,111,75,184,111,75,184,68,67,0,0,0,0,0,0,11319
124.375977993,7,23,-101,24,122,-78,45,127,-84,91,71,190,91,71,190,67,67,0,0,0,0,0,0,11320
124.387482167,7,23,-102,18,117,-70,36,127,-83,91,71,190,91,71,190,67,67,0,0,0,0,0,0,11321
124.397974015,8,24,-102,18,117,-70,36,127,-83,69,74,193,69,74,193,67,67,0,0,0,0,0,0,11322
124.408802033,8,23,-102,15,111,-64,25,123,-78,69,74,193,69,74,193,67,67,0,0,0,0,0,0,11323
124.42392397,9,24,-102,15,111,-64,25,123,-78,52,87,202,52,87,202,65,67,0,0,0,0,0,0,11324
124.430827141,9,23,-102,6,108,-60,16,117,-71,52,87,202,52,87,202,65,67,0,0,0,0,0,0,11325
124.441703082,10,24,-102,6,108,-60,16,117,-71,48,83,217,48,83,217,65,67,0,0,0,0,0,0,11326
124.455451012,9,23,-103,0,114,-54,11,112,-64,48,83,217,48,83,217,65,67,0,0,0,0,0,0,11327
124.464217186,11,23,-103,0,114,-54,11,112,-64,32,85,211,32,85,211,65,66,0,0,0,0,0,0,11328
124.474611044,10,23,-103,-1,119,-47,7,110,-58,32,85,211,32,85,211,65,66,0,0,0,0,0,0,11329
124.488070012,12,23,-103,-1,119,-47,7,110,-58,15,94,209,15,94,209,65,66,0,0,0,0,0,0,11330
124.497581006,11,22,-104,-5,114,-43,1,112,-54,15,94,209,15,94,209,65,66,0,0,0,0,0,0,11331
124.507565022,13,22,-104,-5,114,-43,1,112,-54,12,97,206,12,97,206,64,66,0,0,0,0,0,0,11332
124.518597126,12,21,-104,-17,107,-39,-4,116,-48,12,97,206,12,97,206,64,66,0,0,0,0,0,0,11333
124.529704094,13,22,-104,-17,107,-39,-4,116,-48,9,87,208,9,87,208,64,66,0,0,0,0,0,0,11334
124.540606022,12,21,-104,-26,111,-32,-8,116,-43,9,87,208,9,87,208,64,66,0,0,0,0,0,0,11335
124.551781178,14,21,-104,-26,111,-32,-8,116,-43,-1,83,205,-1,83,205,63,66,0,0,0,0,0,0,11336
124.562602997,12,20,-104,-29,118,-25,-15,112,-37,-1,83,205,-1,83,205,63,66,0,0,0,0,0,0,11337
124.573692084,14,20,-104,-29,118,-25,-15,112,-37,-12,83,201,-12,83,201,63,66,0,0,0,0,0,0,11338
124.584750176,13,19,-104,-33,119,-24,-24,110,-32,-12,83,201,-12,83,201,63,66,0,0,0,0,0,0,11339
124.595831156,14,19,-104,-33,119,-24,-24,110,-32,-19,80,205,-19,80,205,62,65,0,0,0,0,0,0,11340
124.606693984,13,18,-105,-46,127,-22,-32,114,-27,-19,80,205,-19,80,205,62,65,0,0,0,0,0,0,11341
124.617634058,14,18,-105,-46,127,-22,-32,114,-27,-33,69,205,-33,69,205,62,65,0,0,0,0,0,0,11342
124.628589154,13,17,-105,-46,131,-22,-37,122,-22,-33,69,205,-33,69,205,62,65,0,0,0,0,0,0,11343
124.639830113,14,16,-105,-46,131,-22,-37,122,-22,-53,56,204,-53,56,204,62,65,0,0,0,0,0,0,11344
124.650675059,12,16,-105,-45,125,-23,-41,127,-21,-53,56,204,-53,56,204,62,65,0,0,0,0,0,0,11345
124.664097071,13,15,-105,-45,125,-23,-41,127,-21,-80,48,201,-80,48,201,62,65,0,0,0,0,0,0,11346
124.672909022,12,14,-105,-51,117,-23,-46,129,-22,-80,48,201,-80,48,201,62,65,0,0,0,0,0,0,11347
124.683996201,13,13,-105,-51,117,-23,-46,129,-22,-91,50,203,-91,50,203,61,65,0,0,0,0,0,0,11348
124.695871115,12,13,-105,-59,115,-19,-49,126,-23,-91,50,203,-91,50,203,61,65,0,0,0,0,0,0,11349
124.706274987,12,11,-105,-59,115,-19,-49,126,-23,-105,47,204,-105,47,204,61,65,0,0,0,0,0,0,11350
124.720124007,11,11,-105,-65,116,-15,-51,120,-22,-105,47,204,-105,47,204,61,65,0,0,0,0,0,0,11351
124.727879048,12,9,-105,-65,116,-15,-51,120,-22,-120,47,204,-120,47,204,61,64,0,0,0,0,0,0,11352
124.738900185,10,9,-106,-69,111,-15,-57,115,-19,-120,47,204,-120,47,204,61,64,0,0,0,0,0,0,11353
124.754909993,11,7,-106,-69,111,-15,-57,115,-19,-132,40,209,-132,40,209,61,64,0,0,0,0,0,0,11354
124.762473107,10,7,-106,-74,102,-15,-65,113,-16,-132,40,209,-132,40,209,61,64,0,0,0,0,0,0,11355
124.771922112,9,5,-106,-76,95,-14,-71,111,-14,-141,26,209,-141,26,209,62,64,0,0,0,0,0,0,11356
124.782534123,8,5,-106,-78,87,-13,-74,105,-14,-141,26,209,-141,26,209,62,64,0,0,0,0,0,0,11357
124.793541193,8,2,-106,-78,87,-13,-74,105,-14,-145,12,212,-145,12,212,62,64,0,0,0,0,0,0,11358
124.804939986,7,3,-106,-75,66,-13,-76,94,-15,-145,12,212,-145,12,212,62,64,0,0,0,0,0,0,11359
124.815582991,7,0,-106,-75,66,-13,-76,94,-15,-151,-1,209,-151,-1,209,62,64,0,0,0,0,0,0,11360
124.826613188,6,0,-106,-68,42,-16,-77,82,-14,-151,-1,209,-151,-1,209,62,64,0,0,0,0,0,0,11361
124.83773613,5,-1,-106,-65,30,-16,-75,66,-14,-153,-5,208,-153,-5,208,62,64,0,0,0,0,0,0,11362
124.849029065,5,-1,-106,-65,30,-16,-75,66,-14,-153,-5,208,-153,-5,208,62,64,0,0,0,0,0,0,11363
124.859982014,4,-3,-106,-68,-1,-16,-71,46,-14,-153,-5,207,-153,-5,207,63,64,0,0,0,0,0,0,11364
124.870768071,3,-3,-106,-68,-10,-15,-66,23,-16,-153,-5,207,-153,-5,207,63,64,0,0,0,0,0,0,11365
124.881720067,3,-6,-106,-68,-10,-15,-66,23,-16,-149,-12,200,-149,-12,200,63,64,0,0,0,0,0,0,11366
124.892954112,2,-6,-107,-64,-27,-12,-65,2,-17,-149,-12,200,-149,-12,200,63,64,0,0,0,0,0,0,11367
124.912660122,1,-8,-107,-62,-33,-12,-67,-14,-15,-132,-20,186,-132,-20,186,61,63,0,0,0,0,0,0,11368
124.916025162,1,-8,-107,-60,-38,-12,-66,-27,-13,-132,-20,186,-132,-20,186,61,63,0,0,0,0,0,0,11369
124.925624133,0,-10,-107,-60,-38,-12,-66,-27,-13,-129,-24,187,-129,-24,187,61,63,0,0,0,0,0,0,11370
124.936643124,0,-10,-107,-62,-47,-13,-63,-35,-11,-129,-24,187,-129,-24,187,61,63,0,0,0,0,0,0,11371
124.947746993,0,-12,-107,-62,-47,-13,-63,-35,-11,-129,-35,188,-129,-35,188,61,63,0,0,0,0,0,0,11372
124.958760977,0,-12,-107,-65,-61,-13,-60,-41,-12,-129,-35,188,-129,-35,188,61,63,0,0,0,0,0,0,11373
124.969689131,-1,-13,-107,-65,-70,-14,-61,-48,-13,-127,-42,189,-127,-42,189,61,63,0,0,0,0,0,0,11374
124.980731011,-1,-13,-107,-65,-70,-14,-61,-48,-13,-127,-42,189,-127,-42,189,61,63,0,0,0,0,0,0,11375
124.991960049,-3,-15,-107,-60,-87,-16,-64,-59,-13,-115,-44,190,-115,-44,190,61,63,0,0,0,0,0,0,11376
125.002724171,-3,-15,-107,-58,-93,-17,-65,-73,-14,-115,-44,190,-115,-44,190,61,63,0,0,0,0,0,0,11377
125.013679982,-4,-17,-107,-58,-93,-17,-65,-73,-14,-106,-46,197,-106,-46,197,61,63,0,0,0,0,0,0,11378
125.024613142,-4,-16,-107,-58,-104,-20,-62,-86,-15,-106,-46,197,-106,-46,197,61,63,0,0,0,0,0,0,11379
125.035657168,-5,-18,-108,-59,-109,-21,-58,-96,-17,-101,-55,200,-101,-55,200,61,63,0,0,0,0,0,0,11380
125.046687127,-5,-17,-108,-59,-115,-21,-57,-103,-19,-101,-55,200,-101,-55,200,61,63,0,0,0,0,0,0,11381
125.057600022,-6,-19,-108,-59,-115,-21,-57,-103,-19,-97,-60,200,-97,-60,200,61,63,0,0,0,0,0,0,11382
125.068941117,-6,-19,-108,-58,-127,-23,-58,-110,-21,-97,-60,200,-97,-60,200,61,63,0,0,0,0,0,0,11383
125.081448079,-7,-20,-108,-58,-127,-23,-58,-110,-21,-88,-61,202,-88,-61,202,61,62,0,0,0,0,0,0,11384
125.090888978,-7,-20,-108,-56,-137,-22,-59,-117,-22,-88,-61,202,-88,-61,202,61,62,0,0,0,0,0,0,11385
125.101667166,-8,-20,-108,-55,-138,-22,-59,-126,-22,-76,-71,212,-76,-71,212,61,62,0,0,0,0,0,0,11386
125.112616063,-8,-20,-108,-55,-138,-22,-59,-126,-22,-76,-71,212,-76,-71,212,61,62,0,0,0,0,0,0,11387
125.123767138,-9,-21,-108,-39,-146,-17,-56,-135,-22,-64,-80,213,-64,-80,213,62,62,0,0,0,0,0,0,11388
125.135298014,-9,-21,-109,-31,-149,-15,-51,-142,-21,-64,-80,213,-64,-80,213,62,62,0,0,0,0,0,0,11389
125.145616055,-10,-22,-109,-31,-149,-15,-51,-142,-21,-43,-85,219,-43,-85,219,62,62,0,0,0,0,0,0,11390
125.155909062,-9,-21,-109,-15,-153,-10,-42,-146,-18,-43,-85,219,-43,-85,219,62,62,0,0,0,0,0,0,11391
125.166720152,-10,-21,-109,-8,-154,-7,-29,-149,-15,-35,-85,222,-35,-85,222,63,62,0,0,0,0,0,0,11392
125.184825182,-9,-21,-109,-2,-155,-3,-16,-152,-11,-35,-85,222,-35,-85,222,63,62,0,0,0,0,0,0,11393
125.188905001,-11,-21,-109,-2,-155,-3,-16,-152,-11,-26,-86,223,-26,-86,223,63,62,0,0,0,0,0,0,11394
125.200246096,-10,-21,-109,7,-155,4,-6,-155,-6,-26,-86,223,-26,-86,223,63,62,0,0,0,0,0,0,11395
125.210614205,-12,-21,-109,7,-155,4,-6,-155,-6,-15,-87,219,-15,-87,219,64,62,0,0,0,0,0,0,11396
125.221781016,-11,-21,-109,18,-153,9,0,-155,-2,-15,-87,219,-15,-87,219,64,62,0,0,0,0,0,0,11397
125.232629061,-12,-21,-109,18,-153,9,0,-155,-2,-4,-85,217,-4,-85,217,64,62,0,0,0,0,0,0,11398
125.243893147,-11,-20,-109,28,-148,13,7,-154,3,-4,-85,217,-4,-85,217,64,62,0,0,0,0,0,0,11399
125.254899025,-13,-20,-109,28,-148,13,7,-154,3,6,-86,217,6,-86,217,65,63,0,0,0,0,0,0,11400
125.265568972,-11,-20,-108,35,-143,18,17,-152,9,6,-86,217,6,-86,217,65,63,0,0,0,0,0,0,11401
125.27661419,-13,-20,-108,35,-143,18,17,-152,9,14,-92,213,14,-92,213,65,63,0,0,0,0,0,0,11402
125.287960053,-12,-19,-108,43,-140,22,28,-148,14,14,-92,213,14,-92,213,65,63,0,0,0,0,0,0,11403
125.29866314,-12,-18,-108,49,-139,25,37,-143,18,22,-99,216,22,-99,216,66,63,0,0,0,0,0,0,11404
125.312195063,-11,-18,-108,56,-136,28,44,-140,22,22,-99,216,22,-99,216,66,63,0,0,0,0,0,0,11405
125.320880175,-13,-17,-108,56,-136,28,44,-140,22,34,-94,213,34,-94,213,66,63,0,0,0,0,0,0,11406
125.335100174,-11,-17,-108,70,-126,27,50,-137,25,34,-94,213,34,-94,213,66,63,0,0,0,0,0,0,11407
125.342972994,-13,-16,-108,70,-126,27,50,-137,25,53,-90,206,53,-90,206,67,63,0,0,0,0,0,0,11408
125.353763104,-11,-16,-107,90,-102,16,58,-134,27,53,-90,206,53,-90,206,67,63,0,0,0,0,0,0,11409
125.364735127,-13,-14,-107,90,-102,16,58,-134,27,70,-87,199,70,-87,199,67,63,0,0,0,0,0,0,11410
125.37578106,-11,-14,-107,94,-80,8,70,-124,25,70,-87,199,70,-87,199,67,63,0,0,0,0,0,0,11411
125.386703015,-12,-12,-107,94,-80,8,70,-124,25,114,-62,193,114,-62,193,68,64,0,0,0,0,0,0,11412
125.397677184,-11,-11,-107,95,-52,-1,85,-104,18,114,-62,193,114,-62,193,68,64,0,0,0,0,0,0,11413
125.408792973,-12,-9,-107,95,-52,-1,85,-104,18,129,-47,182,129,-47,182,68,64,0,0,0,0,0,0,11414
125.419619084,-10,-8,-107,95,-24,-11,96,-78,8,129,-47,182,129,-47,182,68,64,0,0,0,0,0,0,11415
125.430598021,-11,-6,-107,95,-24,-11,96,-78,8,134,-38,172,134,-38,172,68,64,0,0,0,0,0,0,11416
125.4418571,-9,-5,-108,96,4,-22,99,-49,-2,134,-38,172,134,-38,172,68,64,0,0,0,0,0,0,11417
125.455028058,-10,-3,-108,96,4,-22,99,-49,-2,141,-26,167,141,-26,167,68,64,0,0,0,0,0,0,11418
125.464456082,-8,-2,-108,92,32,-32,96,-22,-12,141,-26,167,141,-26,167,68,64,0,0,0,0,0,0,11419
125.474673987,-8,0,-108,92,32,-32,96,-22,-12,135,-4,174,135,-4,174,67,64,0,0,0,0,0,0,11420
125.486860037,-7,0,-108,79,57,-38,92,5,-22,135,-4,174,135,-4,174,67,64,0,0,0,0,0,0,11421
125.496823073,-7,2,-108,79,57,-38,92,5,-22,119,14,176,119,14,176,67,64,0,0,0,0,0,0,11422
125.507763148,-6,3,-109,64,73,-42,89,33,-32,119,14,176,119,14,176,67,64,0,0,0,0,0,0,11423
125.520631075,-6,5,-109,64,73,-42,89,33,-32,100,21,182,100,21,182,67,64,0,0,0,0,0,0,11424
125.529623986,-5,5,-109,51,80,-42,80,57,-39,100,21,182,100,21,182,67,64,0,0,0,0,0,0,11425
125.540599108,-4,6,-109,51,80,-42,80,57,-39,82,32,191,82,32,191,67,64,0,0,0,0,0,0,11426
125.552073002,-4,7,-109,34,81,-39,65,74,-42,82,32,191,82,32,191,67,64,0,0,0,0,0,0,11427
125.562707186,-3,8,-109,34,81,-39,65,74,-42,67,48,204,67,48,204,66,65,0,0,0,0,0,0,11428
125.573858977,-2,8,-109,14,74,-34,48,82,-42,67,48,204,67,48,204,66,65,0,0,0,0,0,0,11429
125.58474207,-1,9,-109,14,74,-34,48,82,-42,47,57,214,47,57,214,66,65,0,0,0,0,0,0,11430
125.5957582,-1,8,-110,2,64,-25,32,81,-38,47,57,214,47,57,214,66,65,0,0,0,0,0,0,11431
125.606757164,-1,9,-110,2,64,-25,32,81,-38,39,41,228,39,41,228,65,65,0,0,0,0,0,0,11432
125.617706061,0,9,-110,-1,46,-12,16,74,-33,39,41,228,39,41,228,65,65,0,0,0,0,0,0,11433
125.628664971,0,10,-110,-1,46,-12,16,74,-33,47,33,236,47,33,236,65,65,0,0,0,0,0,0,11434
125.64273119,0,9,-110,-3,37,-5,3,62,-24,47,33,236,47,33,236,65,65,0,0,0,0,0,0,11435
125.654760123,0,10,-110,-3,37,-5,3,62,-24,43,30,239,43,30,239,65,65,0,0,0,0,0,0,11436
125.661643982,0,9,-110,-4,31,-2,-4,48,-14,43,30,239,43,30,239,65,65,0,0,0,0,0,0,11437
125.675999165,0,10,-110,-4,31,-2,-4,48,-14,40,25,240,40,25,240,65,65,0,0,0,0,0,0,11438
125.68382001,0,9,-110,0,24,0,-5,36,-5,40,25,240,40,25,240,65,65,0,0,0,0,0,0,11439
125.695167065,0,10,-110,0,24,0,-5,36,-5,42,22,238,42,22,238,64,64,0,0,0,0,0,0,11440
125.70568204,0,9,-110,-1,18,0,-2,28,0,42,22,238,42,22,238,64,64,0,0,0,0,0,0,11441
125.716794014,1,10,-110,-1,18,0,-2,28,0,48,24,238,48,24,238,64,64,0,0,0,0,0,0,11442
125.727732182,1,10,-110,-7,18,1,-1,24,0,48,24,238,48,24,238,64,64,0,0,0,0,0,0,11443
125.740015984,1,10,-110,-10,20,1,-2,20,0,52,22,231,52,22,231,64,64,0,0,0,0,0,0,11444
125.749884129,1,9,-110,-12,23,1,-6,18,1,52,22,231,52,22,231,64,64,0,0,0,0,0,0,11445
125.760630131,1,9,-110,-12,23,1,-6,18,1,52,22,231,52,22,231,64,64,0,0,0,0,0,0,11446
125.772053004,1,10,-110,-15,28,0,-10,19,1,51,23,227,51,23,227,64,64,0,0,0,0,0,0,11447
125.782765151,1,9,-110,-18,30,0,-13,23,1,51,23,227,51,23,227,64,64,0,0,0,0,0,0,11448
125.795065165,1,10,-110,-21,32,0,-16,28,0,50,22,228,50,22,228,64,64,0,0,0,0,0,0,11449
125.805071116,1,10,-110,-21,32,0,-16,28,0,50,22,228,50,22,228,64,64,0,0,0,0,0,0,11450
125.816089154,0,9,-110,-26,35,-1,-18,31,0,50,22,228,50,22,228,64,64,0,0,0,0,0,0,11451
125.828117133,0,10,-110,-27,36,-1,-21,32,0,46,15,231,46,15,231,64,64,0,0,0,0,0,0,11452
125.837679148,0,9,-110,-27,37,-2,-25,34,-1,46,15,231,46,15,231,64,64,0,0,0,0,0,0,11453
125.848674059,0,10,-110,-27,37,-2,-25,34,-1,35,7,233,35,7,233,64,64,0,0,0,0,0,0,11454
125.860167981,0,9,-110,-23,39,-4,-27,36,-1,35,7,233,35,7,233,64,64,0,0,0,0,0,0,11455
125.870982171,0,9,-110,-22,39,-4,-27,38,-2,31,7,236,31,7,236,63,64,0,0,0,0,0,0,11456
125.881694079,0,9,-110,-23,40,-4,-24,39,-3,31,7,236,31,7,236,63,64,0,0,0,0,0,0,11457
125.892904044,0,9,-110,-23,40,-4,-24,39,-3,31,7,236,31,7,236,63,64,0,0,0,0,0,0,11458
125.903910161,0,9,-110,-22,41,-4,-22,39,-4,28,4,238,28,4,238,63,64,0,0,0,0,0,0,11459
125.914776087,0,9,-110,-20,42,-4,-21,40,-4,28,4,238,28,4,238,63,64,0,0,0,0,0,0,11460
125.925743103,0,9,-110,-18,42,-5,-22,41,-4,22,3,234,22,3,234,63,64,0,0,0,0,0,0,11461
125.936793089,0,9,-110,-18,42,-5,-22,41,-4,22,3,234,22,3,234,63,64,0,0,0,0,0,0,11462
125.947582007,0,8,-110,-15,40,-5,-21,42,-4,22,3,234,22,3,234,63,64,0,0,0,0,0,0,11463
125.964182139,0,8,-110,-14,40,-5,-18,42,-4,15,12,228,15,12,228,63,64,0,0,0,0,0,0,11464
125.969879151,0,8,-110,-15,42,-5,-15,41,-5,15,12,228,15,12,228,63,64,0,0,0,0,0,0,11465
125.980668068,0,8,-110,-15,42,-5,-15,41,-5,18,12,224,18,12,224,63,64,0,0,0,0,0,0,11466
125.991926194,0,8,-110,-19,50,-4,-14,41,-5,18,12,224,18,12,224,63,64,0,0,0,0,0,0,11467
126.00417614,0,8,-110,-22,56,-5,-15,43,-5,18,7,221,18,7,221,62,64,0,0,0,0,0,0,11468
126.013873101,0,8,-110,-24,63,-6,-19,48,-4,18,7,221,18,7,221,62,64,0,0,0,0,0,0,11469
126.024734974,0,8,-110,-24,63,-6,-19,48,-4,18,7,221,18,7,221,62,64,0,0,0,0,0,0,11470
126.035608054,0,8,-110,-30,74,-11,-22,56,-5,0,-3,220,0,-3,220,62,64,0,0,0,0,0,0,11471
126.048001051,0,8,-110,-34,77,-13,-26,65,-7,0,-3,220,0,-3,220,62,63,0,0,0,0,0,0,11472
126.058029175,0,8,-111,-39,79,-14,-29,72,-10,-16,-2,220,-16,-2,220,62,63,0,0,0,0,0,0,11473
126.06852603,0,8,-111,-39,79,-14,-29,72,-10,-16,-2,220,-16,-2,220,62,63,0,0,0,0,0,0,11474
126.079763175,-1,7,-111,-56,79,-15,-34,77,-13,-27,-9,221,-27,-9,221,62,63,0,0,0,0,0,0,11475
126.091948987,-1,7,-111,-65,77,-14,-42,80,-15,-27,-9,221,-27,-9,221,62,63,0,0,0,0,0,0,11476
126.100995064,-1,7,-111,-65,77,-14,-42,80,-15,-27,-9,221,-27,-9,221,62,63,0,0,0,0,0,0,11477
126.111762047,-2,6,-111,-78,72,-11,-53,79,-15,-53,-25,223,-53,-25,223,62,63,0,0,0,0,0,0,11478
126.122694016,-2,6,-111,-78,72,-11,-53,79,-15,-53,-25,223,-53,-25,223,61,63,0,0,0,0,0,0,11479
126.133706093,-3,5,-111,-83,61,-14,-66,76,-14,-63,-32,228,-63,-32,228,61,63,0,0,0,0,0,0,11480
126.148117066,-3,5,-111,-83,61,-14,-66,76,-14,-63,-32,228,-63,-32,228,61,63,0,0,0,0,0,0,11481
126.156149149,-4,4,-111,-92,36,-19,-78,71,-13,-66,-41,229,-66,-41,229,61,63,0,0,0,0,0,0,11482
126.166678191,-5,4,-111,-97,27,-20,-86,59,-14,-66,-41,229,-66,-41,229,61,63,0,0,0,0,0,0,11483
126.177749157,-6,3,-111,-97,27,-20,-86,59,-14,-68,-49,224,-68,-49,224,61,63,0,0,0,0,0,0,11484
126.188604117,-6,3,-111,-109,10,-24,-92,42,-17,-68,-49,224,-68,-49,224,61,63,0,0,0,0,0,0,11485
126.199954987,-7,1,-111,-109,10,-24,-92,42,-17,-67,-62,218,-67,-62,218,62,63,0,0,0,0,0,0,11486
126.210734129,-7,1,-112,-117,-4,-28,-99,23,-22,-67,-62,218,-67,-62,218,62,63,0,0,0,0,0,0,11487
126.22160697,-9,0,-112,-117,-4,-28,-99,23,-22,-62,-84,209,-62,-84,209,62,63,0,0,0,0,0,0,11488
126.232673169,-9,0,-112,-121,-18,-33,-108,8,-25,-62,-84,209,-62,-84,209,62,63,0,0,0,0,0,0,11489
126.243827105,-11,0,-112,-120,-23,-36,-116,-4,-28,-53,-99,201,-53,-99,201,62,62,0,0,0,0,0,0,11490
126.254598141,-11,0,-113,-120,-27,-39,-121,-16,-32,-53,-99,201,-53,-99,201,62,62,0,0,0,0,0,0,11491
126.265762091,-13,-1,-113,-120,-27,-39,-121,-16,-32,-44,-109,199,-44,-109,199,62,62,0,0,0,0,0,0,11492
126.276693106,-13,-1,-113,-121,-32,-42,-122,-25,-37,-44,-109,199,-44,-109,199,62,62,0,0,0,0,0,0,11493
126.287845135,-15,-2,-113,-121,-32,-42,-122,-25,-37,-40,-119,193,-40,-119,193,63,62,0,0,0,0,0,0,11494
126.298746109,-15,-2,-113,-121,-34,-44,-121,-30,-40,-40,-119,193,-40,-119,193,63,62,0,0,0,0,0,0,11495
126.309911013,-17,-3,-113,-121,-34,-44,-121,-30,-40,-35,-124,193,-35,-124,193,63,62,0,0,0,0,0,0,11496
126.320679188,-17,-3,-114,-114,-33,-45,-120,-31,-42,-35,-124,193,-35,-124,193,63,62,0,0,0,0,0,0,11497
126.33168912,-19,-3,-114,-114,-33,-45,-120,-31,-42,-12,-133,192,-12,-133,192,64,63,0,0,0,0,0,0,11498
126.346705199,-18,-3,-114,-102,-29,-42,-119,-32,-44,-12,-133,192,-12,-133,192,64,63,0,0,0,0,0,0,11499
126.353895188,-21,-3,-114,-102,-29,-42,-119,-32,-44,-14,-143,193,-14,-143,193,64,63,0,0,0,0,0,0,11500
126.365003109,-20,-3,-114,-86,-25,-36,-114,-33,-44,-14,-143,193,-14,-143,193,64,63,0,0,0,0,0,0,11501
126.375982047,-22,-3,-114,-78,-24,-33,-103,-30,-42,-17,-142,195,-17,-142,195,27,59,-3,0,0,0,0,0,11502
126.386736155,-21,-3,-115,-69,-23,-29,-88,-26,-37,-17,-142,195,-17,-142,195,27,59,-3,0,0,0,0,0,11503
126.397692204,-23,-3,-115,-69,-23,-29,-88,-26,-37,-22,-145,194,-22,-145,194,27,59,-3,0,0,0,0,0,11504
126.41237712,-22,-3,-115,-52,-22,-19,-75,-23,-32,-22,-145,194,-22,-145,194,27,59,-3,0,0,0,0,0,11505
126.42009902,-24,-4,-115,-52,-22,-19,-75,-23,-32,-25,-147,193,-25,-147,193,25,56,-3,0,0,0,0,0,11506
126.430757046,-23,-4,-115,-26,-25,-13,-64,-22,-27,-25,-147,193,-25,-147,193,25,56,-3,0,0,0,0,0,11507
126.441847086,-24,-4,-115,-18,-25,-9,-51,-23,-21,-25,-142,193,-25,-142,193,25,56,-3,0,0,0,0,0,11508
126.4527421,-24,-4,-115,-18,-25,-9,-51,-23,-21,-25,-142,193,-25,-142,193,25,56,-3,0,0,0,0,0,11509
126.463723183,-25,-4,-115,-2,-23,-1,-32,-24,-14,-24,-143,191,-24,-143,191,25,53,-2,0,0,0,0,0,11510
126.474671126,-23,-4,-115,5,-20,3,-13,-24,-7,-24,-143,191,-24,-143,191,25,53,-2,0,0,0,0,0,11511
126.485876084,-26,-4,-115,5,-20,3,-13,-24,-7,-22,-147,189,-22,-147,189,25,53,-2,0,0,0,0,0,11512
126.49830699,-24,-4,-115,22,-13,10,0,-23,-1,-22,-147,189,-22,-147,189,25,53,-2,0,0,0,0,0,11513
126.507766009,-24,-4,-115,29,-8,12,8,-20,4,-15,-149,189,-15,-149,189,26,50,-2,0,0,0,0,0,11514
126.51865697,-22,-4,-115,36,-5,14,18,-14,9,-15,-149,189,-15,-149,189,26,50,-2,0,0,0,0,0,11515
126.53252697,-25,-4,-115,36,-5,14,18,-14,9,-12,-156,189,-12,-156,189,26,50,-2,0,0,0,0,0,11516
126.540914059,-23,-4,-114,48,1,17,30,-8,13,-12,-156,189,-12,-156,189,26,50,-2,0,0,0,0,0,11517
126.551738024,-26,-4,-114,48,1,17,30,-8,13,-12,-155,186,-12,-155,186,65,52,1,0,0,0,0,0,11518
126.562641144,-24,-4,-114,56,7,19,39,-3,15,-12,-155,186,-12,-155,186,65,52,1,0,0,0,0,0,11519
126.573786021,-26,-4,-114,56,7,19,39,-3,15,-11,-152,187,-11,-152,187,65,52,1,0,0,0,0,0,11520
126.584771157,-24,-3,-114,62,13,20,47,1,17,-11,-152,187,-11,-152,187,65,52,1,0,0,0,0,0,11521
126.596045971,-27,-4,-114,62,13,20,47,1,17,-19,-154,186,-19,-154,186,65,53,1,0,0,0,0,0,11522
126.607045174,-24,-3,-114,69,17,20,55,7,18,-19,-154,186,-19,-154,186,65,53,1,0,0,0,0,0,11523
126.617940188,-27,-4,-114,69,17,20,55,7,18,-23,-150,189,-23,-150,189,65,53,1,0,0,0,0,0,11524
126.632054091,-25,-3,-114,78,21,20,63,13,20,-23,-150,189,-23,-150,189,65,53,1,0,0,0,0,0,11525
126.640133143,-25,-3,-114,83,23,20,70,18,20,-25,-143,191,-25,-143,191,64,54,1,0,0,0,0,0,11526
126.652675152,-22,-3,-114,93,25,19,77,21,20,-25,-143,191,-25,-143,191,64,54,1,0,0,0,0,0,11527
126.661835194,-25,-3,-114,93,25,19,77,21,20,-28,-133,195,-28,-133,195,64,54,1,0,0,0,0,0,11528
126.672608138,-22,-3,-113,98,28,18,84,23,20,-28,-133,195,-28,-133,195,64,54,1,0,0,0,0,0,11529
126.685423136,-22,-3,-113,104,28,17,92,25,19,-31,-127,201,-31,-127,201,63,55,0,0,0,0,0,0,11530
126.694993973,-20,-2,-113,108,27,17,99,27,18,-31,-127,201,-31,-127,201,63,55,0,0,0,0,0,0,11531
126.705569983,-22,-3,-113,108,27,17,99,27,18,-37,-124,205,-37,-124,205,63,55,0,0,0,0,0,0,11532
126.716741086,-20,-3,-113,115,22,17,105,28,17,-37,-124,205,-37,-124,205,63,55,0,0,0,0,0,0,11533
126.727786065,-19,-3,-113,117,18,17,109,27,16,-37,-116,208,-37,-116,208,63,55,0,0,0,0,0,0,11534
126.738656998,-17,-3,-113,119,16,17,114,23,16,-37,-116,208,-37,-116,208,63,55,0,0,0,0,0,0,11535
126.749983073,-17,-3,-113,119,16,17,114,23,16,-37,-116,208,-37,-116,208,63,55,0,0,0,0,0,0,11536
126.760945082,-17,-3,-113,123,9,15,117,18,17,-38,-96,213,-38,-96,213,63,55,0,0,0,0,0,0,11537
126.771589995,-15,-3,-113,125,4,14,120,14,16,-38,-96,213,-38,-96,213,63,56,0,0,0,0,0,0,11538
126.782952071,-16,-3,-113,125,4,14,120,14,16,-41,-79,216,-41,-79,216,63,56,0,0,0,0,0,0,11539
126.793720007,-14,-3,-112,125,-6,14,122,10,15,-41,-79,216,-41,-79,216,63,56,0,0,0,0,0,0,11540
126.808096171,-15,-4,-112,125,-6,14,122,10,15,-38,-59,220,-38,-59,220,63,56,0,0,0,0,0,0,11541
126.815740109,-13,-4,-112,119,-18,14,124,3,14,-38,-59,220,-38,-59,220,63,57,0,0,0,0,0,0,11542
126.82811308,-14,-4,-112,119,-18,14,124,3,14,-36,-48,221,-36,-48,221,63,57,0,0,0,0,0,0,11543
126.840151072,-12,-4,-112,113,-29,17,124,-6,13,-36,-48,221,-36,-48,221,63,57,0,0,0,0,0,0,11544
126.848638058,-13,-5,-112,113,-29,17,124,-6,13,-33,-39,225,-33,-39,225,63,57,0,0,0,0,0,0,11545
126.859561205,-11,-5,-112,110,-39,20,120,-18,14,-33,-39,225,-33,-39,225,64,57,0,0,0,0,0,0,11546
126.870691061,-10,-5,-112,112,-42,20,114,-29,17,-28,-39,215,-28,-39,215,64,57,0,0,0,0,0,0,11547
126.88175416,-10,-5,-112,112,-42,20,114,-29,17,-28,-39,215,-28,-39,215,64,57,0,0,0,0,0,0,11548
126.896198988,-9,-5,-112,120,-45,19,110,-38,19,-28,-39,215,-28,-39,215,64,57,0,0,0,0,0,0,11549
126.903940201,-8,-5,-112,125,-43,17,112,-43,21,-23,-33,201,-23,-33,201,64,58,0,0,0,0,0,0,11550
126.914728165,-6,-5,-112,131,-37,8,118,-45,20,-23,-33,201,-23,-33,201,64,58,0,0,0,0,0,0,11551
126.925584078,-6,-5,-112,131,-37,8,118,-45,20,-23,-33,201,-23,-33,201,64,58,0,0,0,0,0,0,11552
126.936784983,-5,-5,-112,129,-31,0,126,-42,16,-7,-1,205,-7,-1,205,64,58,0,0,0,0,0,0,11553
126.947782994,-4,-5,-112,126,-28,-3,131,-38,9,-7,-1,205,-7,-1,205,64,58,0,0,0,0,0,0,11554
126.964652062,-4,-5,-112,126,-28,-3,131,-38,9,-5,7,204,-5,7,204,64,58,0,0,0,0,0,0,11555
126.96971798,-2,-5,-112,124,-25,-8,130,-32,1,-5,7,204,-5,7,204,64,58,0,0,0,0,0,0,11556
126.980576992,-2,-5,-112,124,-25,-8,130,-32,1,-6,22,202,-6,22,202,64,58,0,0,0,0,0,0,11557
126.991718054,-1,-5,-112,127,-21,-12,127,-27,-5,-6,22,202,-6,22,202,65,59,0,0,0,0,0,0,11558
127.002945185,0,-5,-112,127,-18,-14,124,-24,-9,-10,46,203,-10,46,203,65,59,0,0,0,0,0,0,11559
127.013547183,0,-5,-112,127,-18,-14,124,-24,-9,-10,46,203,-10,46,203,65,59,0,0,0,0,0,0,11560
127.025089026,1,-5,-112,122,-15,-14,125,-21,-12,-10,46,203,-10,46,203,65,59,0,0,0,0,0,0,11561
127.035065175,3,-4,-112,118,-14,-13,126,-18,-14,-6,83,197,-6,83,197,65,60,0,0,0,0,0,0,11562
127.048067093,4,-4,-112,113,-14,-11,124,-15,-15,-6,83,197,-6,83,197,65,60,0,0,0,0,0,0,11563
127.056730986,6,-4,-112,113,-14,-11,124,-15,-15,-4,93,195,-4,93,195,65,60,0,0,0,0,0,0,11564
127.067897082,6,-4,-112,102,-13,-8,118,-14,-13,-4,93,195,-4,93,195,65,60,0,0,0,0,0,0,11565
127.079939127,8,-4,-112,95,-11,-6,111,-13,-10,-4,107,193,-4,107,193,66,60,0,0,0,0,0,0,11566
127.089645148,8,-4,-112,87,-9,-5,103,-13,-8,-4,107,193,-4,107,193,66,60,0,0,0,0,0,0,11567
127.100758076,8,-4,-112,87,-9,-5,103,-13,-8,-4,107,193,-4,107,193,66,60,0,0,0,0,0,0,11568
127.111716986,10,-3,-112,67,-6,-5,94,-11,-6,-2,125,195,-2,125,195,66,60,0,0,0,0,0,0,11569
127.122932196,10,-3,-112,67,-6,-5,94,-11,-6,-2,125,195,-2,125,195,66,61,0,0,0,0,0,0,11570
127.133689166,13,-3,-112,45,-3,-2,83,-9,-5,-2,142,193,-2,142,193,66,61,0,0,0,0,0,0,11571
127.144666195,13,-3,-112,45,-3,-2,83,-9,-5,-2,142,193,-2,142,193,66,61,0,0,0,0,0,0,11572
127.155725003,15,-3,-112,25,0,0,67,-6,-4,5,166,189,5,166,189,66,61,0,0,0,0,0,0,11573
127.166809082,14,-3,-112,6,7,3,46,-3,-3,5,166,189,5,166,189,66,61,0,0,0,0,0,0,11574
127.179985047,14,-3,-112,6,7,3,46,-3,-3,5,166,189,5,166,189,66,61,0,0,0,0,0,0,11575
127.188714028,16,-2,-112,-2,13,5,24,1,0,5,172,189,5,172,189,66,61,0,0,0,0,0,0,11576
127.199707032,14,-2,-112,-20,16,6,5,7,3,5,172,189,5,172,189,66,62,0,0,0,0,0,0,11577
127.210852147,16,-2,-112,-30,18,8,-7,13,5,2,173,190,2,173,190,66,62,0,0,0,0,0,0,11578
127.221737147,16,-2,-112,-30,18,8,-7,13,5,2,173,190,2,173,190,66,62,0,0,0,0,0,0,11579
127.232588053,17,-1,-112,-50,18,14,-19,17,7,0,171,192,0,171,192,66,62,0,0,0,0,0,0,11580
127.244621993,16,-1,-112,-59,18,19,-32,19,9,0,171,192,0,171,192,65,62,0,0,0,0,0,0,11581
127.255019188,19,-1,-112,-59,18,19,-32,19,9,-2,162,195,-2,162,195,65,62,0,0,0,0,0,0,11582
127.2681911,17,-1,-112,-80,14,30,-48,18,13,-2,162,195,-2,162,195,65,62,0,0,0,0,0,0,11583
127.276658059,19,-1,-112,-80,14,30,-48,18,13,2,136,197,2,136,197,65,62,0,0,0,0,0,0,11584
127.288016081,17,-1,-111,-101,7,39,-64,17,20,2,136,197,2,136,197,64,62,0,0,0,0,0,0,11585
127.298750163,17,-1,-111,-112,2,42,-81,14,29,2,124,196,2,124,196,64,62,0,0,0,0,0,0,11586
127.309741974,17,-1,-111,-112,2,42,-81,14,29,2,124,196,2,124,196,64,62,0,0,0,0,0,0,11587
127.320617199,15,0,-111,-130,3,43,-99,8,38,2,124,196,2,124,196,64,62,0,0,0,0,0,0,11588
127.331817151,15,0,-110,-137,9,42,-116,3,43,2,113,199,2,113,199,63,62,0,0,0,0,0,0,11589
127.342720032,13,0,-110,-143,15,40,-129,3,44,2,113,199,2,113,199,63,62,0,0,0,0,0,0,11590
127.353651047,15,0,-110,-143,15,40,-129,3,44,-1,84,202,-1,84,202,63,62,0,0,0,0,0,0,11591
127.365110159,13,0,-110,-147,23,32,-138,8,42,-1,84,202,-1,84,202,63,62,0,0,0,0,0,0,11592
127.375862122,12,0,-110,-147,24,28,-144,16,38,2,50,198,2,50,198,62,62,0,0,0,0,0,0,11593
127.386587143,10,0,-109,-147,23,24,-147,22,34,2,50,198,2,50,198,62,62,0,0,0,0,0,0,11594
127.398065091,10,0,-109,-147,23,24,-147,22,34,2,50,198,2,50,198,62,62,0,0,0,0,0,0,11595
127.408725024,8,0,-109,-151,22,16,-148,25,28,7,10,196,7,10,196,62,62,0,0,0,0,0,0,11596
127.419687033,6,0,-109,-153,25,13,-149,24,22,7,10,196,7,10,196,61,62,0,0,0,0,0,0,11597
127.431215048,5,0,-109,-152,28,9,-150,23,17,1,-6,192,1,-6,192,61,62,0,0,0,0,0,0,11598
127.441727162,5,0,-109,-152,28,9,-150,23,17,1,-6,192,1,-6,192,61,62,0,0,0,0,0,0,11599
127.452931166,3,0,-109,-139,40,-5,-152,24,12,-7,-32,192,-7,-32,192,61,62,0,0,0,0,0,0,11600
127.463911057,1,1,-109,-133,44,-9,-150,30,6,-7,-32,192,-7,-32,192,61,62,0,0,0,0,0,0,11601
127.474884034,0,0,-109,-133,44,-9,-150,30,6,-8,-50,194,-8,-50,194,61,62,0,0,0,0,0,0,11602
127.485687018,0,1,-109,-119,54,-14,-143,38,-2,-8,-50,194,-8,-50,194,61,62,0,0,0,0,0,0,11603
127.496709109,-1,0,-109,-119,54,-14,-143,38,-2,-13,-59,201,-13,-59,201,60,61,0,0,0,0,0,0,11604
127.50773716,-1,1,-110,-104,57,-19,-131,46,-10,-13,-59,201,-13,-59,201,60,61,0,0,0,0,0,0,11605
127.518679142,-2,0,-110,-104,57,-19,-131,46,-10,-33,-59,208,-33,-59,208,60,61,0,0,0,0,0,0,11606
127.529714108,-3,0,-110,-89,57,-21,-117,53,-16,-33,-59,208,-33,-59,208,60,61,0,0,0,0,0,0,11607
127.54085207,-4,0,-110,-89,57,-21,-117,53,-16,-36,-63,215,-36,-63,215,59,61,0,0,0,0,0,0,11608
127.551717043,-4,0,-110,-77,55,-19,-104,57,-18,-36,-63,215,-36,-63,215,59,61,0,0,0,0,0,0,11609
127.562575102,-5,0,-110,-77,55,-19,-104,57,-18,-40,-62,231,-40,-62,231,59,61,0,0,0,0,0,0,11610
127.576229096,-5,0,-110,-72,50,-14,-90,58,-20,-40,-62,231,-40,-62,231,59,61,0,0,0,0,0,0,11611
127.585206032,-7,0,-110,-69,46,-12,-78,55,-19,-48,-70,241,-48,-70,241,59,61,0,0,0,0,0,0,11612
127.595833064,-6,0,-110,-65,41,-10,-70,50,-16,-48,-70,241,-48,-70,241,59,61,0,0,0,0,0,0,11613
127.606865168,-6,0,-110,-65,41,-10,-70,50,-16,-48,-70,241,-48,-70,241,59,61,0,0,0,0,0,0,11614
127.617846013,-8,0,-110,-50,29,-11,-67,45,-11,-57,-92,1,-57,-92,1,59,61,0,0,0,0,0,0,11615
127.628571034,-7,0,-110,-39,23,-12,-63,39,-10,-57,-92,1,-57,-92,1,58,61,0,0,0,0,0,0,11616
127.639779091,-9,-1,-110,-39,23,-12,-63,39,-10,-60,-84,5,-60,-84,5,58,61,0,0,0,0,0,0,11617
127.650644064,-8,0,-110,-19,11,-11,-53,31,-10,-60,-84,5,-60,-84,5,58,61,0,0,0,0,0,0,11618
127.661704064,-9,-1,-110,-19,11,-11,-53,31,-10,-63,-78,4,-63,-78,4,58,61,0,0,0,0,0,0,11619
127.673169137,-9,-1,-110,-7,0,-7,-37,21,-11,-63,-78,4,-63,-78,4,58,60,0,0,0,0,0,0,11620
127.684233189,-9,-2,-110,-2,-7,-5,-20,10,-11,-63,-79,1,-63,-79,1,58,60,0,0,0,0,0,0,11621
127.694864989,-9,-2,-110,-2,-7,-5,-20,10,-11,-63,-79,1,-63,-79,1,58,60,0,0,0,0,0,0,11622
127.705695153,-10,-3,-110,9,-20,-1,-7,0,-8,-59,-84,253,-59,-84,253,58,60,0,0,0,0,0,0,11623
127.716818095,-9,-3,-110,20,-30,0,1,-9,-4,-59,-84,253,-59,-84,253,58,60,0,0,0,0,0,0,11624
127.727683068,-10,-4,-110,20,-30,0,1,-9,-4,-53,-84,250,-53,-84,250,58,60,0,0,0,0,0,0,11625
127.738766194,-9,-4,-110,25,-38,-1,9,-20,-1,-53,-84,250,-53,-84,250,58,60,0,0,0,0,0,0,11626
127.749623061,-10,-4,-110,25,-42,-1,18,-30,0,-50,-79,248,-50,-79,248,58,60,0,0,0,0,0,0,11627
127.760679007,-9,-4,-111,25,-46,-2,25,-38,0,-50,-79,248,-50,-79,248,58,60,0,0,0,0,0,0,11628
127.771569014,-10,-5,-111,25,-46,-2,25,-38,0,-47,-79,246,-47,-79,246,58,60,0,0,0,0,0,0,11629
127.783946991,-9,-5,-111,25,-54,-6,27,-44,-1,-47,-79,246,-47,-79,246,58,60,0,0,0,0,0,0,11630
127.793637038,-10,-6,-111,25,-54,-6,27,-44,-1,-42,-82,246,-42,-82,246,58,60,0,0,0,0,0,0,11631
127.804824114,-9,-6,-111,28,-63,-10,26,-48,-3,-42,-82,246,-42,-82,246,59,60,0,0,0,0,0,0,11632
127.815610171,-10,-6,-111,29,-68,-11,25,-53,-6,-38,-86,245,-38,-86,245,59,60,0,0,0,0,0,0,11633
127.826830149,-10,-6,-111,29,-68,-11,25,-53,-6,-38,-86,245,-38,-86,245,59,60,0,0,0,0,0,0,11634
127.837584973,-10,-7,-111,31,-80,-14,26,-62,-9,-37,-84,242,-37,-84,242,59,60,0,0,0,0,0,0,11635
127.848605156,-9,-7,-111,32,-87,-16,29,-71,-12,-37,-84,242,-37,-84,242,59,60,0,0,0,0,0,0,11636
127.859839201,-11,-8,-111,32,-87,-16,29,-71,-12,-29,-86,233,-29,-86,233,59,60,0,0,0,0,0,0,11637
127.871258975,-10,-8,-111,32,-100,-19,31,-80,-14,-29,-86,233,-29,-86,233,59,60,0,0,0,0,0,0,11638
127.881729126,-10,-8,-111,32,-107,-21,32,-89,-16,-18,-82,230,-18,-82,230,60,60,0,0,0,0,0,0,11639
127.892629147,-9,-8,-111,31,-114,-22,32,-98,-18,-18,-82,230,-18,-82,230,60,60,0,0,0,0,0,0,11640
127.903902054,-10,-9,-111,31,-114,-22,32,-98,-18,-10,-72,222,-10,-72,222,60,60,0,0,0,0,0,0,11641
127.915229083,-9,-9,-112,27,-127,-24,31,-108,-21,-10,-72,222,-10,-72,222,60,60,0,0,0,0,0,0,11642
127.925850153,-10,-9,-112,27,-127,-24,31,-108,-21,-2,-57,218,-2,-57,218,62,60,0,0,0,0,0,0,11643
127.936530114,-10,-9,-112,24,-141,-23,30,-117,-23,-2,-57,218,-2,-57,218,62,60,0,0,0,0,0,0,11644
127.947973013,-10,-9,-112,24,-141,-23,30,-117,-23,5,-48,211,5,-48,211,62,60,0,0,0,0,0,0,11645
127.958798171,-10,-9,-112,23,-150,-19,28,-127,-24,5,-48,211,5,-48,211,62,60,0,0,0,0,0,0,11646
127.969666005,-10,-9,-112,23,-150,-19,28,-127,-24,16,-47,204,16,-47,204,63,60,0,0,0,0,0,0,11647
127.97973013,-9,-10,-112,24,-159,-12,25,-139,-23,16,-47,204,16,-47,204,63,60,0,0,0,0,0,0,11648
127.990666152,-10,-9,-112,24,-159,-12,25,-139,-23,32,-40,196,32,-40,196,63,60,0,0,0,0,0,0,11649
128.00416708,-9,-9,-112,21,-161,-8,23,-151,-19,32,-40,196,32,-40,196,63,60,0,0,0,0,0,0,11650
128.012690068,-9,-9,-112,18,-162,-5,22,-159,-13,42,-35,189,42,-35,189,65,60,0,0,0,0,0,0,11651
128.023712159,-9,-10,-112,16,-163,-3,22,-162,-8,42,-35,189,42,-35,189,65,60,0,0,0,0,0,0,11652
128.03490305,-9,-8,-112,16,-163,-3,22,-162,-8,59,-37,182,59,-37,182,65,60,0,0,0,0,0,0,11653
128.045737029,-9,-9,-112,13,-160,0,19,-162,-4,59,-37,182,59,-37,182,65,60,0,0,0,0,0,0,11654
128.056622029,-9,-8,-112,11,-157,2,15,-162,-2,78,-35,178,78,-35,178,67,61,0,0,0,0,0,0,11655
128.068397999,-8,-8,-112,9,-154,4,12,-160,0,78,-35,178,78,-35,178,67,61,0,0,0,0,0,0,11656
128.078917981,-8,-6,-112,9,-154,4,12,-160,0,93,-32,172,93,-32,172,67,61,0,0,0,0,0,0,11657
128.090912104,-8,-7,-112,4,-148,7,10,-157,2,93,-32,172,93,-32,172,67,61,0,0,0,0,0,0,11658
128.10080719,-8,-5,-112,1,-144,9,8,-153,5,128,-32,158,128,-32,158,87,63,2,0,0,0,0,0,11659
128.111733199,-7,-5,-112,0,-139,11,5,-148,7,128,-32,158,128,-32,158,87,63,2,0,0,0,0,0,11660
128.123186112,-7,-5,-112,0,-139,11,5,-148,7,128,-32,158,128,-32,158,87,63,2,0,0,0,0,0,11661
128.133680106,-7,-3,-112,-3,-123,16,1,-143,9,144,-35,155,144,-35,155,87,63,2,0,0,0,0,0,11662
128.144913197,-7,-3,-112,-4,-112,18,-1,-136,12,144,-35,155,144,-35,155,87,63,2,0,0,0,0,0,11663
128.155747176,-7,-1,-111,-6,-90,21,-3,-125,15,177,-34,150,177,-34,150,87,63,2,0,0,0,0,0,11664
128.166862011,-7,-1,-111,-6,-90,21,-3,-125,15,177,-34,150,177,-34,150,87,63,2,0,0,0,0,0,11665
128.177703143,-7,-1,-111,-7,-78,22,-4,-109,19,177,-34,150,177,-34,150,87,63,2,0,0,0,0,0,11666
128.18881917,-7,1,-111,-8,-67,22,-5,-92,21,193,-34,148,193,-34,148,87,63,2,0,0,0,0,0,11667
128.200343132,-6,0,-111,-11,-46,20,-7,-76,22,193,-34,148,193,-34,148,87,63,2,0,0,0,0,0,11668
128.212150097,-7,4,-111,-11,-46,20,-7,-76,22,203,-39,148,203,-39,148,87,63,2,0,0,0,0,0,11669
128.221719981,-6,4,-111,-12,-35,16,-9,-62,21,203,-39,148,203,-39,148,87,63,2,0,0,0,0,0,11670
128.233695031,-7,7,-111,-12,-15,13,-10,-48,20,210,-42,154,210,-42,154,87,63,2,0,0,0,0,0,11671
128.244974137,-6,6,-110,-11,-3,10,-12,-32,17,210,-42,154,210,-42,154,87,63,2,0,0,0,0,0,11672
128.254945994,-7,10,-110,-11,-3,10,-12,-32,17,214,-45,158,214,-45,158,87,63,2,0,0,0,0,0,11673
128.266069174,-7,9,-110,-9,18,4,-12,-15,13,214,-45,158,214,-45,158,87,63,2,0,0,0,0,0,11674
128.276643038,-6,9,-110,-7,29,1,-11,0,9,214,-45,158,214,-45,158,87,63,2,0,0,0,0,0,11675
128.287630082,-7,12,-110,-6,40,-2,-9,16,5,212,-54,162,212,-54,162,87,63,2,0,0,0,0,0,11676
128.298820973,-7,12,-110,-6,40,-2,-9,16,5,212,-54,162,212,-54,162,87,63,2,0,0,0,0,0,11677
128.309997082,-6,12,-110,-3,61,-8,-7,30,0,212,-54,162,212,-54,162,87,63,2,0,0,0,0,0,11678
128.322467089,-6,15,-111,-1,70,-11,-5,44,-3,204,-53,172,204,-53,172,87,63,2,0,0,0,0,0,11679
128.333355189,-6,15,-111,4,87,-14,-3,58,-7,204,-53,172,204,-53,172,87,63,2,0,0,0,0,0,11680
128.343811989,-7,18,-111,4,87,-14,-3,58,-7,187,-51,175,187,-51,175,87,63,2,0,0,0,0,0,11681
128.354583025,-6,17,-111,7,95,-16,0,72,-11,187,-51,175,187,-51,175,87,63,2,0,0,0,0,0,11682
128.368010045,-6,20,-111,10,102,-17,3,86,-14,180,-45,177,180,-45,177,68,64,0,0,0,0,0,0,11683
128.376646996,-6,19,-111,12,111,-18,7,97,-16,180,-45,177,180,-45,177,68,64,0,0,0,0,0,0,11684
128.386603117,-6,22,-111,12,111,-18,7,97,-16,174,-40,179,174,-40,179,68,64,0,0,0,0,0,0,11685
128.397675038,-6,22,-111,16,131,-21,11,105,-17,174,-40,179,174,-40,179,68,64,0,0,0,0,0,0,11686
128.412010193,-6,24,-111,16,142,-22,13,114,-18,157,-40,186,157,-40,186,64,64,0,0,0,0,0,0,11687
128.419692994,-5,23,-112,17,154,-23,15,127,-20,157,-40,186,157,-40,186,64,64,0,0,0,0,0,0,11688
128.432327033,-5,23,-112,17,154,-23,15,127,-20,157,-40,186,157,-40,186,64,64,0,0,0,0,0,0,11689
128.441776038,-5,25,-112,21,176,-26,17,144,-23,118,-38,186,118,-38,186,64,64,0,0,0,0,0,0,11690
128.452985049,-5,24,-112,23,185,-28,18,159,-24,118,-38,186,118,-38,186,62,64,0,0,0,0,0,0,11691
128.464825154,-5,24,-112,23,185,-28,18,159,-24,118,-38,186,118,-38,186,62,64,0,0,0,0,0,0,11692
128.474894047,-5,26,-112,29,198,-35,20,173,-26,95,-36,188,95,-36,188,62,64,0,0,0,0,0,0,11693
128.485628129,-4,25,-113,31,207,-36,24,187,-29,95,-36,188,95,-36,188,62,64,0,0,0,0,0,0,11694
128.49673915,-5,27,-113,31,207,-36,24,187,-29,73,-36,187,73,-36,187,60,63,0,0,0,0,0,0,11695
128.507807971,-4,27,-113,29,218,-36,28,199,-33,73,-36,187,73,-36,187,60,63,0,0,0,0,0,0,11696
128.519571066,-5,28,-113,29,218,-36,28,199,-33,53,-31,188,53,-31,188,60,63,0,0,0,0,0,0,11697
128.529873133,-5,27,-113,25,235,-36,31,209,-37,53,-31,188,53,-31,188,60,63,0,0,0,0,0,0,11698
128.540781022,-5,28,-113,25,235,-36,31,209,-37,37,-29,190,37,-29,190,59,63,0,0,0,0,0,0,11699
128.551591158,-5,28,-113,22,255,-36,30,220,-37,37,-29,190,37,-29,190,59,63,0,0,0,0,0,0,11700
128.562922001,-6,27,-113,22,255,-36,30,220,-37,-22,-40,175,-22,-40,175,59,63,0,0,0,0,0,0,11701
128.574522019,-5,27,-114,17,15,-36,26,235,-36,-22,-40,175,-22,-40,175,59,63,0,0,0,0,0,0,11702
128.584828139,-5,26,-114,14,16,-36,21,253,-35,-58,-35,167,-58,-35,167,58,62,0,0,0,0,0,0,11703
128.59640503,-5,26,-114,10,11,-35,17,13,-36,-58,-35,167,-58,-35,167,58,62,0,0,0,0,0,0,11704
128.6066041,-5,24,-114,10,11,-35,17,13,-36,-89,-29,180,-89,-29,180,58,62,0,0,0,0,0,0,11705
128.61776805,-5,24,-114,2,252,-35,13,19,-36,-89,-29,180,-89,-29,180,58,62,0,0,0,0,0,0,11706
128.63142705,-5,22,-114,2,252,-35,13,19,-36,-111,-21,193,-111,-21,193,57,62,0,0,0,0,0,0,11707
128.640077115,-5,22,-115,-8,239,-29,9,12,-35,-111,-21,193,-111,-21,193,57,62,0,0,0,0,0,0,11708
128.650969029,-5,20,-115,-8,239,-29,9,12,-35,-137,-30,207,-137,-30,207,57,62,0,0,0,0,0,0,11709
128.662184,-5,20,-115,-7,225,-20,2,253,-33,-137,-30,207,-137,-30,207,57,62,0,0,0,0,0,0,11710
128.679292202,-6,17,-115,-7,225,-20,2,253,-33,-159,-39,204,-159,-39,204,58,61,0,0,0,0,0,0,11711
128.685808182,-5,17,-115,5,202,-13,-5,237,-29,-159,-39,204,-159,-39,204,58,61,0,0,0,0,0,0,11712
128.694609166,-6,15,-115,5,202,-13,-5,237,-29,-160,-35,214,-160,-35,214,58,61,0,0,0,0,0,0,11713
128.705872059,-5,15,-115,15,171,-10,-7,221,-21,-160,-35,214,-160,-35,214,58,61,0,0,0,0,0,0,11714
128.716768027,-6,12,-115,15,171,-10,-7,221,-21,-159,-29,212,-159,-29,212,59,61,0,0,0,0,0,0,11715
128.72795105,-5,12,-115,11,118,-7,0,200,-13,-159,-29,212,-159,-29,212,59,61,0,0,0,0,0,0,11716
128.740463019,-5,10,-115,11,118,-7,0,200,-13,-168,-23,217,-168,-23,217,59,61,0,0,0,0,0,0,11717
128.749614001,-5,10,-115,9,84,-5,12,167,-8,-168,-23,217,-168,-23,217,59,61,0,0,0,0,0,0,11718
128.763942004,-5,7,-115,9,84,-5,12,167,-8,-173,-22,219,-173,-22,219,59,61,0,0,0,0,0,0,11719
128.771799088,-5,7,-115,10,50,-6,16,124,-6,-173,-22,219,-173,-22,219,59,61,0,0,0,0,0,0,11720
128.782799006,-5,4,-115,10,50,-6,16,124,-6,-172,-20,219,-172,-20,219,59,61,0,0,0,0,0,0,11721
128.796080113,-5,4,-115,8,16,-5,12,80,-6,-172,-20,219,-172,-20,219,59,61,0,0,0,0,0,0,11722
128.804687024,-5,1,-115,8,16,-5,12,80,-6,-170,-20,215,-170,-20,215,61,61,0,0,0,0,0,0,11723
128.815778971,-5,1,-115,3,-17,-4,7,44,-5,-170,-20,215,-170,-20,215,61,61,0,0,0,0,0,0,11724
128.826776028,-5,-1,-115,3,-17,-4,7,44,-5,-167,-22,209,-167,-22,209,61,61,0,0,0,0,0,0,11725
128.837738038,-4,-1,-115,0,-49,-2,6,13,-5,-167,-22,209,-167,-22,209,61,61,0,0,0,0,0,0,11726
128.848764182,-5,-4,-115,0,-49,-2,6,13,-5,-163,-23,202,-163,-23,202,59,61,0,0,0,0,0,0,11727
128.860257149,-4,-4,-115,0,-76,0,5,-17,-4,-163,-23,202,-163,-23,202,59,61,0,0,0,0,0,0,11728
128.870726109,-5,-6,-115,0,-76,0,5,-17,-4,-156,-22,198,-156,-22,198,59,61,0,0,0,0,0,0,11729
128.884932042,-4,-7,-115,-2,-96,2,1,-49,-2,-156,-22,198,-156,-22,198,59,61,0,0,0,0,0,0,11730
128.892588139,-5,-9,-115,-2,-96,2,1,-49,-2,-148,-22,196,-148,-22,196,58,60,0,0,0,0,0,0,11731
128.90426302,-5,-9,-115,-5,-111,5,-1,-78,0,-148,-22,196,-148,-22,196,58,60,0,0,0,0,0,0,11732
128.916750193,-5,-12,-115,-5,-111,5,-1,-78,0,-140,-24,195,-140,-24,195,58,60,0,0,0,0,0,0,11733
128.925798178,-5,-12,-115,-7,-121,8,-3,-99,3,-140,-24,195,-140,-24,195,58,60,0,0,0,0,0,0,11734
128.937731982,-5,-14,-115,-7,-121,8,-3,-99,3,-134,-27,198,-134,-27,198,58,60,0,0,0,0,0,0,11735
128.947746039,-5,-14,-115,-8,-127,11,-4,-112,5,-134,-27,198,-134,-27,198,58,60,0,0,0,0,0,0,11736
128.958626986,-5,-16,-115,-8,-127,11,-4,-112,5,-130,-29,199,-130,-29,199,58,60,0,0,0,0,0,0,11737
128.969708205,-5,-16,-115,-11,-135,12,-6,-121,8,-130,-29,199,-130,-29,199,58,60,0,0,0,0,0,0,11738
128.984172106,-5,-18,-115,-11,-135,12,-6,-121,8,-125,-28,199,-125,-28,199,58,60,0,0,0,0,0,0,11739
128.992185116,-5,-18,-115,-19,-156,12,-9,-129,10,-125,-28,199,-125,-28,199,58,60,0,0,0,0,0,0,11740
129.003230095,-5,-20,-115,-23,-164,12,-13,-138,12,-115,-27,194,-115,-27,194,58,60,0,0,0,0,0,0,11741
129.013674021,-5,-20,-115,-23,-164,12,-13,-138,12,-115,-27,194,-115,-27,194,58,60,0,0,0,0,0,0,11742
129.024656058,-6,-22,-115,-28,-175,13,-17,-151,13,-103,-28,189,-103,-28,189,58,60,0,0,0,0,0,0,11743
129.037005187,-5,-22,-115,-30,-176,14,-23,-166,13,-103,-28,189,-103,-28,189,58,60,0,0,0,0,0,0,11744
129.046679974,-6,-23,-115,-30,-176,14,-23,-166,13,-66,-29,188,-66,-29,188,58,60,0,0,0,0,0,0,11745
129.057756186,-6,-22,-114,-30,-168,17,-28,-175,13,-66,-29,188,-66,-29,188,58,60,0,0,0,0,0,0,11746
129.068587065,-6,-23,-114,-30,-168,17,-28,-175,13,-43,-30,186,-43,-30,186,59,60,0,0,0,0,0,0,11747
129.079755068,-6,-23,-114,-26,-148,18,-30,-176,14,-43,-30,186,-43,-30,186,59,60,0,0,0,0,0,0,11748
129.090758086,-7,-23,-114,-26,-148,18,-30,-176,14,-16,-35,188,-16,-35,188,59,60,0,0,0,0,0,0,11749
129.104235173,-6,-22,-114,-19,-119,17,-29,-166,16,-16,-35,188,-16,-35,188,59,60,0,0,0,0,0,0,11750
129.111777068,-7,-22,-114,-19,-119,17,-29,-166,16,7,-39,193,7,-39,193,59,59,0,0,0,0,0,0,11751
129.122582198,-7,-21,-114,-11,-86,16,-25,-147,18,7,-39,193,7,-39,193,59,59,0,0,0,0,0,0,11752
129.133589983,-7,-20,-114,-8,-68,13,-19,-119,18,25,-38,200,25,-38,200,59,59,0,0,0,0,0,0,11753
129.146257163,-7,-20,-114,-8,-68,13,-19,-119,18,25,-38,200,25,-38,200,59,59,0,0,0,0,0,0,11754
129.156053067,-7,-18,-114,-1,-33,6,-12,-88,16,30,-38,206,30,-38,206,59,59,0,0,0,0,0,0,11755
129.166656018,-7,-17,-114,1,-18,2,-6,-60,12,30,-38,206,30,-38,206,59,59,0,0,0,0,0,0,11756
129.177887202,-8,-16,-114,1,-18,2,-6,-60,12,25,-40,210,25,-40,210,59,59,0,0,0,0,0,0,11757
129.192109108,-7,-15,-114,7,6,-3,-1,-36,7,25,-40,210,25,-40,210,59,59,0,0,0,0,0,0,11758
129.200062991,-8,-15,-114,7,6,-3,-1,-36,7,17,-36,214,17,-36,214,59,59,0,0,0,0,0,0,11759
129.213003159,-7,-13,-114,10,22,-6,2,-14,1,17,-36,214,17,-36,214,59,59,0,0,0,0,0,0,11760
129.223880053,-8,-13,-114,10,22,-6,2,-14,1,5,-32,220,5,-32,220,59,59,0,0,0,0,0,0,11761
129.232645035,-7,-12,-114,8,31,-8,6,5,-3,5,-32,220,5,-32,220,59,59,0,0,0,0,0,0,11762
129.244112015,-7,-12,-114,8,31,-8,6,5,-3,-5,-28,230,-5,-28,230,59,59,0,0,0,0,0,0,11763
129.254610062,-7,-11,-114,2,35,-7,9,22,-6,-5,-28,230,-5,-28,230,59,59,0,0,0,0,0,0,11764
129.265712023,-7,-10,-114,0,34,-7,8,32,-8,-19,-24,253,-19,-24,253,59,59,0,0,0,0,0,0,11765
129.27663517,-7,-10,-114,0,34,-7,8,32,-8,-19,-24,253,-19,-24,253,59,59,0,0,0,0,0,0,11766
129.287834168,-7,-10,-114,-3,31,-6,4,36,-8,-20,-23,13,-20,-23,13,59,59,0,0,0,0,0,0,11767
129.298974038,-6,-9,-114,-4,30,-5,0,35,-7,-20,-23,13,-20,-23,13,59,59,0,0,0,0,0,0,11768
129.313284159,-6,-9,-114,-4,30,-5,0,35,-7,-24,-22,23,-24,-22,23,59,59,0,0,0,0,0,0,11769
129.320756197,-6,-8,-114,-6,27,-2,-3,32,-6,-24,-22,23,-24,-22,23,59,59,0,0,0,0,0,0,11770
129.330726147,-6,-9,-114,-6,27,-2,-3,32,-6,-26,-28,34,-26,-28,34,60,59,0,0,0,0,0,0,11771
129.3416152,-6,-8,-114,-3,24,0,-4,29,-5,-26,-28,34,-26,-28,34,60,59,0,0,0,0,0,0,11772
129.352727175,-6,-8,-114,-3,24,0,-4,29,-5,-25,-32,43,-25,-32,43,60,59,0,0,0,0,0,0,11773
129.363758088,-6,-7,-114,4,21,3,-4,27,-3,-25,-32,43,-25,-32,43,60,59,0,0,0,0,0,0,11774
129.376440049,-6,-8,-114,4,21,3,-4,27,-3,-28,-38,45,-28,-38,45,61,59,0,0,0,0,0,0,11775
129.385708094,-6,-7,-114,16,18,4,-2,24,0,-28,-38,45,-28,-38,45,61,59,0,0,0,0,0,0,11776
129.396887064,-6,-7,-114,16,18,4,-2,24,0,-32,-29,49,-32,-29,49,61,59,0,0,0,0,0,0,11777
129.408477068,-6,-7,-114,19,11,2,3,21,2,-32,-29,49,-32,-29,49,61,59,0,0,0,0,0,0,11778
129.419101,-6,-7,-114,19,11,2,3,21,2,-35,-18,53,-35,-18,53,63,60,0,0,0,0,0,0,11779
129.429611207,-5,-7,-114,13,5,-2,13,16,4,-35,-18,53,-35,-18,53,63,60,0,0,0,0,0,0,11780
129.440685988,-5,-7,-114,13,5,-2,13,16,4,-36,-13,61,-36,-13,61,63,60,0,0,0,0,0,0,11781
129.451821089,-5,-7,-114,4,3,-5,18,11,2,-36,-13,61,-36,-13,61,63,60,0,0,0,0,0,0,11782
129.468271971,-5,-7,-114,1,3,-6,15,6,-1,-42,-22,70,-42,-22,70,66,60,0,0,0,0,0,0,11783
129.474726201,-5,-6,-114,-3,0,-7,6,2,-5,-42,-22,70,-42,-22,70,66,60,0,0,0,0,0,0,11784
129.485016108,-5,-7,-114,-3,0,-7,6,2,-5,-43,-26,75,-43,-26,75,66,60,0,0,0,0,0,0,11785
129.499410153,-4,-6,-114,-4,-5,-7,-1,1,-7,-43,-26,75,-43,-26,75,66,60,0,0,0,0,0,0,11786
129.50673008,-5,-7,-114,-4,-5,-7,-1,1,-7,-48,-42,77,-48,-42,77,70,61,0,0,0,0,0,0,11787
129.517799139,-5,-6,-114,0,-20,-4,-3,0,-7,-48,-42,77,-48,-42,77,70,61,0,0,0,0,0,0,11788
129.528671027,-5,-7,-114,0,-20,-4,-3,0,-7,-43,-44,77,-43,-44,77,70,61,0,0,0,0,0,0,11789
129.539796114,-5,-7,-114,11,-24,0,-2,-6,-6,-43,-44,77,-43,-44,77,70,61,0,0,0,0,0,0,11790
129.55597806,-5,-7,-114,11,-24,0,-2,-6,-6,-38,-49,76,-38,-49,76,74,62,1,0,0,0,0,0,11791
129.575630188,-5,-7,-114,22,-23,0,1,-16,-4,-38,-49,76,-38,-49,76,74,62,1,0,0,0,0,0,11792
129.577754021,-5,-7,-114,22,-23,0,1,-16,-4,-37,-51,72,-37,-51,72,74,62,1,0,0,0,0,0,11793
129.583528996,-5,-7,-114,31,-23,-1,10,-25,-1,-37,-51,72,-37,-51,72,74,62,1,0,0,0,0,0,11794
129.594897986,-5,-7,-114,35,-23,0,21,-26,0,-41,-54,65,-41,-54,65,79,64,1,0,0,0,0,0,11795
129.605985165,-4,-7,-114,39,-24,0,32,-24,0,-41,-54,65,-41,-54,65,79,64,1,0,0,0,0,0,11796
129.621800185,-5,-7,-114,39,-24,0,32,-24,0,-41,-46,51,-41,-46,51,79,64,1,0,0,0,0,0,11797
129.627721072,-4,-7,-114,43,-25,4,37,-22,0,-41,-46,51,-41,-46,51,79,64,1,0,0,0,0,0,11798
129.638695002,-5,-7,-114,43,-25,4,37,-22,0,-41,-46,33,-41,-46,33,85,66,1,0,0,0,0,0,11799
129.651921988,-4,-7,-114,44,-24,8,40,-23,0,-41,-46,33,-41,-46,33,85,66,1,0,0,0,0,0,11800
129.662322045,-5,-8,-114,44,-24,8,40,-23,0,-40,-47,13,-40,-47,13,85,66,1,0,0,0,0,0,11801
129.672016144,-4,-7,-114,45,-27,10,42,-25,4,-40,-47,13,-40,-47,13,85,66,1,0,0,0,0,0,11802
129.682603121,-5,-8,-114,45,-27,10,42,-25,4,-38,-42,250,-38,-42,250,91,68,2,0,0,0,0,0,11803
129.693557978,-4,-7,-114,42,-30,11,44,-26,8,-38,-42,250,-38,-42,250,91,68,2,0,0,0,0,0,11804
129.704679013,-4,-8,-114,42,-30,11,44,-26,8,-33,-38,228,-33,-38,228,91,68,2,0,0,0,0,0,11805
129.71561718,-4,-8,-114,38,-32,13,45,-26,11,-33,-38,228,-33,-38,228,91,68,2,0,0,0,0,0,11806
129.727042199,-4,-8,-114,37,-34,16,43,-29,12,-28,-34,208,-28,-34,208,96,71,2,0,0,0,0,0,11807
129.744180203,-3,-8,-114,38,-35,19,39,-32,13,-28,-34,208,-28,-34,208,96,71,2,0,0,0,0,0,11808
129.748722077,-4,-8,-114,38,-35,19,39,-32,13,-15,-23,165,-15,-23,165,96,71,2,0,0,0,0,0,11809
129.75970912,-3,-8,-114,39,-35,21,37,-35,16,-15,-23,165,-15,-23,165,96,71,2,0,0,0,0,0,11810
129.77070117,-4,-8,-114,39,-35,21,37,-35,16,-8,-15,150,-8,-15,150,102,74,2,0,0,0,0,0,11811
129.781599999,-3,-8,-113,43,-28,19,37,-35,19,-8,-15,150,-8,-15,150,102,74,2,0,0,0,0,0,11812
129.792549134,-3,-8,-113,43,-28,19,37,-35,19,-4,-8,135,-4,-8,135,102,74,2,0,0,0,0,0,11813
129.803788186,-3,-7,-113,50,-22,16,40,-33,21,-4,-8,135,-4,-8,135,102,74,2,0,0,0,0,0,11814
129.814930201,-3,-7,-113,50,-22,16,40,-33,21,1,0,120,1,0,120,106,77,3,0,0,0,0,0,11815
129.828721047,-2,-7,-113,56,-17,14,44,-29,20,1,0,120,1,0,120,106,77,3,0,0,0,0,0,11816
129.836570979,-2,-7,-113,56,-17,14,44,-29,20,4,7,107,4,7,107,106,77,3,0,0,0,0,0,11817
129.84751916,-1,-6,-113,59,-11,14,49,-22,17,4,7,107,4,7,107,106,77,3,0,0,0,0,0,11818
129.863476038,0,-6,-113,59,-9,15,55,-16,14,6,20,90,6,20,90,110,80,3,0,0,0,0,0,11819
129.870835066,0,-5,-113,59,-8,16,59,-11,13,6,20,90,6,20,90,110,80,3,0,0,0,0,0,11820
129.880735159,2,-4,-113,59,-8,16,59,-11,13,18,34,78,18,34,78,110,80,3,0,0,0,0,0,11821
129.891597033,2,-4,-113,57,-2,17,60,-9,15,18,34,78,18,34,78,110,80,3,0,0,0,0,0,11822
129.902602196,4,-2,-112,55,1,18,59,-7,16,28,41,70,28,41,70,112,83,3,0,0,0,0,0,11823
129.913756133,4,-2,-112,52,4,19,56,-3,18,28,41,70,28,41,70,112,83,3,0,0,0,0,0,11824
129.925033093,7,-1,-112,52,4,19,56,-3,18,30,44,61,30,44,61,112,83,3,0,0,0,0,0,11825
129.936587096,6,0,-112,45,6,17,54,0,18,30,44,61,30,44,61,112,83,3,0,0,0,0,0,11826
129.946914196,9,0,-112,40,3,14,51,4,18,29,48,52,29,48,52,113,86,2,0,0,0,0,0,11827
129.957884074,9,0,-112,29,-5,7,46,5,17,29,48,52,29,48,52,113,86,2,0,0,0,0,0,11828
129.968713046,9,0,-112,29,-5,7,46,5,17,29,48,52,29,48,52,113,86,2,0,0,0,0,0,11829
129.979734183,11,2,-112,23,-11,4,39,2,14,40,55,38,40,55,38,113,86,2,0,0,0,0,0,11830
129.990877152,11,2,-112,17,-15,3,30,-3,9,40,55,38,40,55,38,112,88,2,0,0,0,0,0,11831
130.00402999,13,4,-112,5,-18,2,22,-11,4,47,55,36,47,55,36,112,88,2,0,0,0,0,0,11832
130.015814066,13,4,-112,5,-18,2,22,-11,4,47,55,36,47,55,36,112,88,2,0,0,0,0,0,11833
130.023535014,12,4,-112,0,-18,2,15,-16,2,47,55,36,47,55,36,112,88,2,0,0,0,0,0,11834
130.034600974,14,5,-112,-8,-17,1,7,-18,2,42,52,48,42,52,48,110,90,2,0,0,0,0,0,11835
130.045557023,12,5,-112,-21,-15,0,-1,-18,2,42,52,48,42,52,48,110,90,2,0,0,0,0,0,11836
130.056624175,15,7,-112,-21,-15,0,-1,-18,2,43,43,61,43,43,61,110,90,2,0,0,0,0,0,11837
130.067725182,13,6,-112,-30,-11,-3,-10,-17,1,43,43,61,43,43,61,110,90,2,0,0,0,0,0,11838
130.078562975,14,8,-112,-33,-9,-4,-20,-15,0,40,37,75,40,37,75,107,92,1,0,0,0,0,0,11839
130.0896101,12,7,-112,-35,-7,-5,-29,-11,-2,40,37,75,40,37,75,107,92,1,0,0,0,0,0,11840
130.100615025,12,7,-112,-35,-7,-5,-29,-11,-2,40,37,75,40,37,75,107,92,1,0,0,0,0,0,11841
130.112327099,12,7,-112,-39,-3,-5,-35,-8,-4,21,21,109,21,21,109,107,92,1,0,0,0,0,0,11842
130.124281168,11,7,-112,-41,-1,-4,-37,-6,-5,21,21,109,21,21,109,103,93,1,0,0,0,0,0,11843
130.133933068,10,7,-112,-44,-1,-3,-38,-4,-5,19,18,124,19,18,124,103,93,1,0,0,0,0,0,11844
130.144867182,10,7,-112,-44,-1,-3,-38,-4,-5,19,18,124,19,18,124,103,93,1,0,0,0,0,0,11845
130.155971051,9,6,-112,-47,-1,-3,-41,-2,-4,19,18,124,19,18,124,103,93,1,0,0,0,0,0,11846
130.1695292,9,6,-112,-48,1,-4,-44,0,-3,26,19,143,26,19,143,98,93,0,0,0,0,0,0,11847
130.177713156,8,6,-112,-48,6,-5,-47,0,-3,26,19,143,26,19,143,98,93,0,0,0,0,0,0,11848
130.192661047,8,6,-112,-48,6,-5,-47,0,-3,26,19,143,26,19,143,98,93,0,0,0,0,0,0,11849
130.199476004,7,6,-112,-48,18,-4,-48,1,-4,6,8,170,6,8,170,98,93,0,0,0,0,0,0,11850
130.210707188,6,6,-112,-47,21,-4,-48,7,-4,6,8,170,6,8,170,93,93,0,0,0,0,0,0,11851
130.222043992,5,5,-112,-45,21,-3,-48,15,-5,-3,0,179,-3,0,179,93,93,0,0,0,0,0,0,11852
130.235816002,5,5,-112,-45,21,-3,-48,15,-5,-3,0,179,-3,0,179,93,93,0,0,0,0,0,0,11853
130.243581057,4,5,-112,-45,17,-4,-47,21,-4,-3,0,179,-3,0,179,93,93,0,0,0,0,0,0,11854
130.254822016,4,5,-112,-45,17,-4,-46,22,-3,14,0,201,14,0,201,87,92,0,0,0,0,0,0,11855
130.264573098,3,5,-112,-46,23,-3,-45,19,-3,14,0,201,14,0,201,87,92,0,0,0,0,0,0,11856
130.275659085,3,5,-112,-46,23,-3,-45,19,-3,8,-5,210,8,-5,210,87,92,0,0,0,0,0,0,11857
130.29656601,2,5,-112,-47,28,0,-45,17,-4,8,-5,210,8,-5,210,87,92,0,0,0,0,0,0,11858
130.301095009,2,5,-112,-47,33,1,-46,21,-3,-2,-10,218,-2,-10,218,81,91,-1,0,0,0,0,0,11859
130.308753014,1,5,-112,-49,34,3,-47,28,0,-2,-10,218,-2,-10,218,81,91,-1,0,0,0,0,0,11860
130.322923184,1,5,-112,-49,34,3,-47,28,0,-2,-10,218,-2,-10,218,81,91,-1,0,0,0,0,0,11861
130.3307302,0,4,-112,-48,35,6,-48,33,2,-1,-24,230,-1,-24,230,81,91,-1,0,0,0,0,0,11862
130.342039109,0,4,-112,-48,35,6,-48,33,2,-1,-24,230,-1,-24,230,76,90,-1,0,0,0,0,0,11863
130.358451128,0,4,-112,-41,37,8,-48,35,4,-10,-20,235,-10,-20,235,76,90,-1,0,0,0,0,0,11864
130.363784075,0,4,-112,-41,37,8,-48,35,4,-10,-20,235,-10,-20,235,76,90,-1,0,0,0,0,0,11865
130.374818087,0,4,-112,-39,38,8,-47,35,6,-25,-18,238,-25,-18,238,71,88,-1,0,0,0,0,0,11866
130.388588191,0,4,-112,-42,38,7,-44,36,7,-25,-18,238,-25,-18,238,71,88,-1,0,0,0,0,0,11867
130.396620989,0,4,-112,-42,38,7,-44,36,7,-25,-18,238,-25,-18,238,71,88,-1,0,0,0,0,0,11868
130.408521176,-1,3,-112,-53,34,7,-41,38,8,-33,-26,246,-33,-26,246,71,88,-1,0,0,0,0,0,11869
130.418665171,-1,3,-112,-58,31,7,-42,38,8,-33,-26,246,-33,-26,246,66,86,-2,0,0,0,0,0,11870
130.429893017,-2,3,-112,-61,28,8,-49,35,7,-32,-36,254,-32,-36,254,66,86,-2,0,0,0,0,0,11871
130.447957039,-2,3,-112,-61,28,8,-49,35,7,-32,-36,254,-32,-36,254,66,86,-2,0,0,0,0,0,11872
130.456285,-3,2,-112,-63,25,9,-58,31,7,-34,-44,17,-34,-44,17,66,86,-2,0,0,0,0,0,11873
130.462635994,-3,2,-112,-63,25,8,-63,27,8,-34,-44,17,-34,-44,17,61,83,-2,0,0,0,0,0,11874
130.474790097,-4,2,-112,-63,25,8,-63,27,8,-37,-50,28,-37,-50,28,61,83,-2,0,0,0,0,0,11875
130.484832049,-4,2,-112,-61,28,7,-63,25,9,-37,-50,28,-37,-50,28,61,83,-2,0,0,0,0,0,11876
130.495724202,-5,1,-112,-61,28,7,-63,25,9,-33,-57,42,-33,-57,42,61,83,-2,0,0,0,0,0,11877
130.506851197,-5,1,-112,-60,30,5,-62,25,8,-33,-57,42,-33,-57,42,57,81,-2,0,0,0,0,0,11878
130.517852068,-6,1,-112,-60,30,5,-62,25,8,-32,-63,51,-32,-63,51,57,81,-2,0,0,0,0,0,11879
130.528877974,-6,1,-112,-58,30,5,-61,27,7,-32,-63,51,-32,-63,51,57,81,-2,0,0,0,0,0,11880
130.539800168,-7,0,-112,-58,30,5,-61,27,7,-38,-64,57,-38,-64,57,57,81,-2,0,0,0,0,0,11881
130.552150012,-6,1,-112,-52,27,9,-60,29,6,-38,-64,57,-38,-64,57,53,78,-2,0,0,0,0,0,11882
130.561742068,-7,0,-112,-52,27,9,-60,29,6,-45,-68,63,-45,-68,63,53,78,-2,0,0,0,0,0,11883
130.573731184,-7,0,-111,-39,17,8,-57,29,6,-45,-68,63,-45,-68,63,53,78,-2,0,0,0,0,0,11884
130.583834172,-8,0,-111,-39,17,8,-57,29,6,-44,-77,67,-44,-77,67,53,78,-2,0,0,0,0,0,11885
130.595916987,-7,0,-111,-29,12,6,-51,26,7,-44,-77,67,-44,-77,67,51,76,-2,0,0,0,0,0,11886
130.605753184,-8,0,-111,-29,12,6,-51,26,7,-42,-82,73,-42,-82,73,51,76,-2,0,0,0,0,0,11887
130.616751194,-8,0,-111,-21,8,4,-40,19,8,-42,-82,73,-42,-82,73,51,76,-2,0,0,0,0,0,11888
130.628090144,-9,0,-111,-21,8,4,-40,19,8,-41,-80,75,-41,-80,75,49,73,-2,0,0,0,0,0,11889
130.641954184,-8,0,-111,-16,2,4,-29,11,7,-41,-80,75,-41,-80,75,49,73,-2,0,0,0,0,0,11890
130.652363062,-9,-1,-111,-16,2,4,-29,11,7,-39,-76,80,-39,-76,80,49,73,-2,0,0,0,0,0,11891
130.660632134,-9,-1,-111,-17,0,3,-20,6,5,-39,-76,80,-39,-76,80,49,73,-2,0,0,0,0,0,11892
130.67157507,-9,-1,-111,-17,0,3,-20,6,5,-31,-72,87,-31,-72,87,48,71,-2,0,0,0,0,0,11893
130.68362403,-9,-1,-111,-16,3,2,-16,3,3,-31,-72,87,-31,-72,87,48,71,-2,0,0,0,0,0,11894
130.693580151,-10,-1,-111,-16,3,2,-16,3,3,-17,-64,98,-17,-64,98,48,71,-2,0,0,0,0,0,11895
130.704728127,-9,-1,-111,-11,8,3,-15,2,3,-17,-64,98,-17,-64,98,48,71,-2,0,0,0,0,0,11896
130.715759993,-10,-1,-111,-11,8,3,-15,2,3,-14,-61,103,-14,-61,103,48,68,-2,0,0,0,0,0,11897
130.73013711,-9,-1,-111,-3,11,6,-15,3,3,-14,-61,103,-14,-61,103,48,68,-2,0,0,0,0,0,11898
130.73800397,-10,-1,-111,-3,11,6,-15,3,3,-10,-60,106,-10,-60,106,48,68,-2,0,0,0,0,0,11899
130.756139994,-9,-1,-111,4,13,10,-11,7,4,-10,-60,106,-10,-60,106,48,68,-2,0,0,0,0,0,11900
130.759527207,-10,-1,-111,4,13,10,-11,7,4,-15,-60,107,-15,-60,107,48,66,-1,0,0,0,0,0,11901
130.770704031,-9,-1,-111,11,10,12,-4,11,6,-15,-60,107,-15,-60,107,48,66,-1,0,0,0,0,0,11902
130.787899018,-9,-1,-111,11,10,12,-4,11,6,-24,-64,106,-24,-64,106,48,66,-1,0,0,0,0,0,11903
130.792728186,-9,-1,-111,19,3,12,4,13,9,-24,-64,106,-24,-64,106,48,66,-1,0,0,0,0,0,11904
130.804990054,-9,-1,-111,24,-1,11,12,10,12,-31,-68,104,-31,-68,104,50,65,-1,0,0,0,0,0,11905
130.820245028,-8,-1,-111,32,-9,8,19,4,13,-31,-68,104,-31,-68,104,50,65,-1,0,0,0,0,0,11906
130.825605154,-8,-1,-111,32,-9,8,19,4,13,-31,-68,104,-31,-68,104,50,65,-1,0,0,0,0,0,11907
130.836764098,-8,-2,-111,37,-18,4,25,-2,11,-34,-71,93,-34,-71,93,50,65,-1,0,0,0,0,0,11908
130.848078013,-7,-2,-111,39,-23,4,31,-10,7,-34,-71,93,-34,-71,93,52,64,-1,0,0,0,0,0,11909
130.858566046,-8,-2,-111,39,-23,4,31,-10,7,-36,-69,85,-36,-69,85,52,64,-1,0,0,0,0,0,11910
130.869503022,-7,-2,-111,43,-34,3,37,-17,5,-36,-69,85,-36,-69,85,52,64,-1,0,0,0,0,0,11911
130.880599022,-8,-2,-111,43,-34,3,37,-17,5,-33,-69,73,-33,-69,73,52,64,-1,0,0,0,0,0,11912
130.892062188,-7,-2,-111,46,-41,1,41,-25,3,-33,-69,73,-33,-69,73,56,63,0,0,0,0,0,0,11913
130.905259133,-7,-3,-111,46,-42,0,43,-33,2,-28,-65,66,-28,-65,66,56,63,0,0,0,0,0,0,11914
130.916216135,-7,-3,-111,46,-42,0,43,-33,2,-28,-65,66,-28,-65,66,56,63,0,0,0,0,0,0,11915
130.925274134,-7,-3,-111,45,-41,0,45,-40,1,-25,-61,56,-25,-61,56,56,63,0,0,0,0,0,0,11916
130.935585022,-6,-3,-111,44,-39,-1,46,-43,0,-25,-61,56,-25,-61,56,60,62,0,0,0,0,0,0,11917
130.946720124,-7,-3,-111,44,-39,-1,46,-43,0,-17,-60,49,-17,-60,49,60,62,0,0,0,0,0,0,11918
130.957570076,-6,-3,-111,44,-36,-4,46,-42,0,-17,-60,49,-17,-60,49,60,62,0,0,0,0,0,0,11919
130.968553067,-6,-4,-111,44,-33,-5,45,-39,-2,-14,-60,46,-14,-60,46,60,62,0,0,0,0,0,0,11920
130.979612113,-5,-3,-111,45,-29,-6,44,-35,-3,-14,-60,46,-14,-60,46,65,63,0,0,0,0,0,0,11921
130.992243052,-6,-4,-111,45,-29,-6,44,-35,-3,-15,-61,45,-15,-61,45,65,63,0,0,0,0,0,0,11922
131.00165701,-5,-4,-111,46,-23,-7,44,-33,-5,-15,-61,45,-15,-61,45,65,63,0,0,0,0,0,0,11923
131.012623072,-5,-4,-111,46,-23,-7,44,-33,-5,-15,-61,45,-15,-61,45,65,63,0,0,0,0,0,0,11924
