TiempoEjecucion,AnguloPitch,AnguloRoll,AnguloYaw,G_Pitch,G_Roll,G_Yaw,G_Pitch_filtrada,G_Roll_filtrada,G_Yaw_filtrada,Ax,Ay,Az,Ax_filtrada,Ay_filtrada,Az_filtrada,posZ,posZ_filtrada,velZ,motorDelantero,motorTrasero,motorDerecho,motorIzquierdo,EstadoEncendido,MensajesRecibidos
129.985070944,-1,-1,0,-1,-2,1,-1,-1,2,-5,170,117,-4,-19,220,118,0,0,120,116,116,117,1,11662
129.994964123,-1,-1,0,3,0,-6,0,-1,-2,-90,135,19,-4,-20,220,118,0,0,113,117,120,119,1,11663
130.004038095,-1,-1,0,0,-1,5,1,-1,0,-107,-4,5,-5,-23,224,118,0,0,119,121,117,114,1,11664
130.013105154,-1,-1,0,-1,-12,-10,-1,-6,-2,127,-106,199,-4,-25,219,118,0,0,117,110,113,130,1,11665
130.04095602,-1,-1,0,-2,-6,5,-1,-9,-2,-59,54,121,-5,-19,219,118,0,0,123,117,106,124,1,11666
130.049899101,-1,-1,0,0,-7,-5,-1,-7,0,56,138,211,-5,-12,220,118,0,0,117,114,117,122,1,11667
130.059103966,-1,-1,0,0,-12,-4,0,-10,-4,-64,-185,215,-9,-21,220,118,0,0,115,116,109,129,1,11668
130.068938017,-1,-1,0,0,6,0,0,-3,-2,-72,-23,83,-13,-18,217,118,0,0,118,117,122,113,1,11669
130.09692812,-2,-2,0,-2,1,0,-1,3,0,54,236,116,-14,-9,222,118,0,0,121,114,129,105,1,11670
130.105873108,-2,-1,0,-6,8,2,-4,5,1,21,83,123,-11,5,223,118,0,0,126,111,125,108,1,11671
130.115031958,-2,-1,0,2,0,0,-2,4,0,-52,-51,66,-12,-1,229,118,0,0,118,117,123,112,1,11672
130.124072075,-1,-1,0,-1,1,-1,0,0,-1,-104,-243,200,-14,-8,226,118,0,0,115,119,118,119,1,11673
130.15200901,-1,-2,0,0,-1,-4,0,0,-3,29,40,104,-13,0,231,118,0,0,118,114,120,118,1,11674
130.160953045,-1,-2,0,0,5,1,0,1,-1,-50,-103,217,-12,2,231,118,0,0,119,118,122,111,1,11675
130.170900106,-1,-2,0,0,-6,-8,0,0,-3,111,205,229,-11,9,227,118,0,0,116,112,120,122,1,11676
130.179968119,-1,-2,0,-2,1,6,-1,-2,-1,40,71,159,-8,6,226,118,0,0,123,117,113,117,1,11677
130.208042145,-1,-2,0,4,6,-4,1,4,0,28,-139,36,-10,4,227,118,0,0,113,118,131,107,1,11678
130.217079163,-1,-2,0,0,-8,-4,2,0,-4,-50,-112,18,-9,4,232,118,0,0,113,119,116,122,1,11679
130.225862026,-1,-2,0,0,5,0,0,-1,-2,-102,190,140,-12,12,229,118,0,0,120,115,118,117,1,11680
130.235995054,-1,-2,0,-2,0,1,-1,3,0,-71,-7,85,-12,10,229,118,0,0,121,115,126,108,1,11681
130.263256073,-1,-2,0,0,0,1,-1,0,1,-76,58,63,-12,7,228,118,0,0,121,116,116,117,1,11682
130.272966146,-1,-2,0,1,-3,2,0,-2,2,-13,-77,52,-10,0,226,118,0,0,117,120,115,118,1,11683
130.281940937,-1,-2,0,-1,-3,-1,0,-3,0,-57,-204,148,-9,0,224,118,0,0,117,117,116,120,1,11684
130.291062117,-1,-2,0,0,-5,-1,0,-4,-1,17,38,223,-10,-1,221,118,0,0,119,115,115,121,1,11685
130.319005966,-1,-2,0,-3,2,3,-1,-1,1,-30,-3,163,-12,-9,220,118,0,0,122,116,119,113,1,11686
130.328161955,-1,-2,0,-2,-7,1,-2,-2,2,129,104,226,-11,-8,220,118,0,0,122,114,116,118,1,11687
130.339214087,-1,-2,0,-2,-5,3,-2,-6,2,-4,-197,23,-10,-14,223,118,0,0,121,117,109,123,1,11688
130.346920013,-1,-2,0,4,-2,-4,1,-4,0,-11,-54,130,-13,-7,223,118,0,0,112,120,119,119,1,11689
130.375123024,-1,-2,0,2,-2,-1,3,-2,-2,99,39,151,-12,-8,226,118,0,0,112,122,119,117,1,11690
130.384079933,-1,-2,0,1,-3,-3,2,-2,-2,10,44,19,-10,3,230,118,0,0,116,116,118,120,1,11691
130.393012047,-1,-2,0,-2,-4,3,0,-4,0,-17,-83,187,-7,-1,238,118,0,0,122,117,113,118,1,11692
130.403433084,-1,-2,0,4,-6,2,0,-5,3,-51,159,132,-7,3,234,118,0,0,117,120,112,121,1,11693
130.43088603,-1,-2,0,-1,-8,-9,1,-7,-3,52,175,138,-6,15,238,118,0,0,112,115,114,128,1,11694
130.439970016,0,-2,0,0,-2,2,0,-5,-3,-141,236,222,-7,31,237,118,0,0,122,116,115,117,1,11695
130.44917798,0,-2,0,-1,-4,-4,-1,-3,0,91,-250,29,-8,25,238,118,0,0,118,114,120,118,1,11696
130.458930016,0,-2,0,-3,0,5,-2,-2,0,-3,138,108,-8,22,239,118,0,0,124,115,117,114,1,11697
130.486881018,0,-2,0,0,0,4,-1,0,5,-82,235,159,-11,34,234,118,0,0,120,119,120,111,1,11698
130.495854139,0,-2,0,-2,0,3,0,0,4,-174,135,204,-13,49,238,118,0,0,119,118,119,113,1,11699
130.504923105,0,-2,0,5,3,1,1,2,2,82,-82,120,-15,41,234,118,0,0,114,122,123,111,1,11700
130.514218092,0,-2,0,0,7,-4,2,5,-1,26,-169,121,-12,34,236,118,0,0,112,119,130,109,1,11701
130.542057037,0,-2,0,0,1,-5,0,4,-4,-81,101,179,-14,38,237,118,0,0,118,113,125,114,1,11702
130.551607132,1,-2,0,0,3,0,0,2,-2,39,33,228,-11,42,236,118,0,0,118,118,120,114,1,11703
130.561022043,1,-2,0,0,4,0,0,3,0,-42,-38,168,-9,48,234,118,0,0,118,118,125,110,1,11704
130.56985116,1,-2,0,0,-2,-3,0,0,-1,167,-244,89,-8,44,238,118,0,0,116,116,119,118,1,11705
130.597924948,1,-2,0,-2,2,-1,-1,0,-2,60,224,95,-5,42,237,118,0,0,119,115,119,117,1,11706
130.607368946,2,-2,0,0,-3,-5,0,0,-3,107,-46,137,-4,31,241,118,0,0,115,116,121,118,1,11707
130.615999937,2,-2,0,-2,-4,2,0,-4,-1,-83,144,87,-5,39,245,118,0,0,119,118,112,121,1,11708
130.62590313,2,-2,0,0,-2,0,0,-3,1,7,-156,97,-3,36,245,118,0,0,117,118,117,118,1,11709
130.653963089,2,-2,0,0,-2,-2,0,-2,0,24,-55,185,-3,29,247,118,0,0,114,119,119,118,1,11710
130.662914038,2,-2,0,0,-3,6,0,-2,2,-14,-173,4,-4,16,250,118,0,0,118,122,114,116,1,11711
130.672110081,2,-2,0,-1,-4,-3,0,-3,1,-5,243,115,-3,23,245,118,0,0,116,116,117,121,1,11712
130.681182146,2,-2,0,-1,-6,-1,-1,-5,-2,-22,110,138,-1,32,243,118,0,0,118,116,114,122,1,11713
130.708933115,3,-2,0,2,-7,-5,0,-7,-3,-73,-33,97,-4,24,243,118,0,0,112,119,114,125,1,11714
130.71847415,3,-2,0,0,-2,0,1,-5,-2,-131,-42,232,-6,19,244,118,0,0,115,120,117,118,1,11715
130.728006124,3,-2,0,-1,-3,0,0,-2,0,-44,-17,136,-10,13,241,118,0,0,119,116,119,116,1,11716
130.737067938,3,-2,0,-3,-4,-4,-2,-3,-2,-9,53,240,-11,13,237,118,0,0,118,113,117,122,1,11717
130.764940023,3,-2,0,4,0,2,0,-2,0,-101,38,97,-14,17,238,118,0,0,114,123,117,116,1,11718
130.774031162,3,-2,0,0,0,2,2,0,2,-33,-97,203,-14,18,243,118,0,0,114,124,120,113,1,11719
130.782938957,3,-2,0,-2,3,4,-1,1,3,-71,185,214,-13,17,245,118,0,0,122,116,121,110,1,11720
130.793162107,3,-2,0,3,2,4,0,2,4,-8,190,32,-11,22,244,118,0,0,116,122,122,109,1,11721
130.820896149,3,-2,0,0,3,-4,1,2,0,122,48,176,-6,22,246,118,0,0,112,119,124,114,1,11722
130.830230951,3,-2,0,0,9,2,0,6,-1,154,36,237,-2,25,245,118,0,0,120,117,128,106,1,11723
130.838943958,3,-2,0,0,2,1,0,6,1,31,-51,43,0,29,248,118,0,0,117,119,125,109,1,11724
130.848008156,3,-2,0,-1,0,-4,0,1,-1,-54,226,87,-2,34,245,118,0,0,115,116,119,120,1,11725
130.876194,3,-2,0,2,4,4,0,2,0,180,-123,142,3,31,238,118,0,0,116,123,121,110,1,11726
130.885149002,3,-2,0,0,1,-9,0,2,-2,86,-116,19,2,25,239,118,0,0,111,116,127,116,1,11727
130.894843101,3,-1,0,-1,0,4,0,0,-2,60,-69,93,3,22,241,118,0,0,121,118,117,114,1,11728
130.903942108,3,-1,0,1,2,-1,0,1,1,18,76,171,4,25,242,118,0,0,114,119,122,114,1,11729
130.932008028,4,-1,0,-1,5,0,0,3,0,-204,-180,121,-3,20,241,118,0,0,116,119,125,110,1,11730
130.940948963,4,-1,0,5,2,2,1,3,1,-22,218,145,-4,18,238,118,0,0,114,124,122,111,1,11731
130.94995594,4,-1,0,0,1,-1,2,1,0,60,-85,7,-2,11,227,118,0,0,113,121,120,116,1,11732
130.960016012,4,-1,0,-4,2,7,-2,2,2,-19,11,116,-1,14,233,118,0,0,125,116,119,110,1,11733
130.988016129,4,-1,0,2,-7,0,-1,-2,3,-134,92,2,-5,12,230,118,0,0,116,119,114,122,1,11734
130.997066021,4,-1,0,-1,-1,4,0,-4,1,-16,194,50,-2,11,232,118,0,0,116,122,112,120,1,11735
131.005934954,3,-1,0,3,-10,-11,0,-5,-3,78,-128,34,-3,14,232,118,0,0,110,116,117,127,1,11736
131.015139103,3,-1,0,-2,-4,0,0,-7,-5,180,-57,44,1,9,230,118,0,0,117,119,111,124,1,11737
131.043091059,3,-1,0,5,-5,-2,1,-5,0,22,35,26,4,10,233,118,0,0,113,120,118,119,1,11738
131.051959991,3,-1,0,-7,-7,8,0,-6,2,66,-13,173,10,0,239,118,0,0,122,120,109,119,1,11739
131.061954021,3,-1,0,4,-3,0,-1,-5,4,-49,196,165,6,14,240,118,0,0,118,117,115,120,1,11740
131.073926926,3,-1,0,0,0,-4,1,-1,-1,72,-103,170,7,9,241,118,0,0,110,122,123,115,1,11741
131.099035025,3,-1,0,0,1,0,0,1,-2,14,87,244,10,2,243,118,0,0,118,116,123,112,1,11742
131.108078003,3,-1,0,0,-2,-3,0,0,-2,22,-244,90,9,-10,239,118,0,0,114,118,119,119,1,11743
131.11697197,3,-1,0,-3,2,4,-1,0,0,-75,50,86,9,-2,237,118,0,0,121,117,118,113,1,11744
131.126933098,3,-1,0,0,-6,2,-1,-1,3,20,-148,163,5,0,233,118,0,0,119,118,115,118,1,11745
131.154999018,3,0,0,5,4,1,2,0,1,30,-169,212,4,-9,229,118,0,0,110,126,119,115,1,11746
131.165780067,3,0,0,1,-6,-4,3,0,-1,31,-128,141,2,-18,230,118,0,0,111,121,120,118,1,11747
131.172934055,2,0,0,0,0,-5,0,-2,-4,-65,207,8,3,-16,228,118,0,0,116,115,117,122,1,11748
131.181913137,2,0,0,3,6,1,1,3,-2,54,186,80,4,-7,234,118,0,0,115,122,128,106,1,11749
131.21003294,2,0,0,1,7,3,2,7,2,-3,-169,122,3,-10,238,118,0,0,115,123,128,104,1,11750
131.21894598,2,0,0,4,7,1,2,7,2,-43,21,38,3,-5,239,118,0,0,114,122,126,108,1,11751
131.229022026,2,0,0,0,11,0,2,9,1,73,-118,39,5,-14,237,118,0,0,115,120,129,105,1,11752
131.238045931,2,0,0,1,4,-9,0,7,-4,9,205,247,5,-12,240,118,0,0,114,114,129,113,1,11753
131.266041994,2,0,0,-6,3,7,-2,3,0,-77,-174,20,5,-9,238,118,0,0,125,116,116,112,1,11754
131.275201082,1,0,0,0,2,0,-3,2,4,-23,5,24,8,-2,239,118,0,0,122,114,120,114,1,11755
131.284016132,1,0,0,-1,-7,5,-1,-2,3,-44,-99,133,8,-4,239,118,0,0,118,121,110,121,1,11756
131.29393506,1,0,0,8,-1,-1,3,-4,1,38,167,78,9,-1,235,118,0,0,109,125,113,123,1,11757
131.321920156,1,0,0,-1,0,2,3,0,0,-55,-191,37,10,-7,234,118,0,0,115,122,120,113,1,11758
131.331040144,1,0,0,1,-7,-1,0,-3,0,89,64,238,13,-2,228,118,0,0,120,114,114,122,1,11759
131.339936018,1,0,0,1,-1,-2,1,-4,-2,-80,-60,174,13,-9,227,118,0,0,113,119,115,122,1,11760
131.349934101,1,0,0,1,4,-2,1,1,-2,-181,13,33,9,-13,227,118,0,0,115,118,127,110,1,11761
131.377161026,1,0,0,-1,-3,-7,0,0,-5,91,72,70,8,-12,218,118,0,0,116,113,121,120,1,11762
131.386922121,1,0,0,-1,7,0,-1,1,-3,-21,115,-25,4,-10,212,118,0,0,120,116,121,113,1,11763
131.396074057,0,0,0,0,-3,0,0,1,0,71,-138,82,5,-13,213,118,0,0,117,119,120,114,1,11764
131.404973984,0,0,0,0,-8,0,0,-6,0,-92,97,10,4,-16,217,118,0,0,116,119,107,128,1,11765
131.43307209,0,0,0,1,-4,4,0,-6,2,-41,20,-20,-1,-12,213,118,0,0,118,121,111,120,1,11766
131.442084074,0,0,0,1,-7,-2,1,-5,0,-14,157,107,-3,-5,209,118,0,0,114,118,115,122,1,11767
131.451890945,0,0,0,-1,-5,0,0,-6,-1,85,-197,185,-3,-2,205,118,0,0,119,116,113,122,1,11768
131.460936069,0,0,0,0,6,6,0,0,3,9,-8,32,-3,-4,208,118,0,0,121,119,122,108,1,11769
131.488841057,0,0,0,0,0,-4,0,3,1,-89,145,252,0,3,211,118,0,0,114,117,126,112,1,11770
131.497974157,0,0,0,1,7,0,0,4,-1,-37,36,53,-1,5,215,118,0,0,116,119,123,112,1,11771
131.507084131,0,0,0,3,8,-7,2,7,-3,-49,-36,68,-3,6,223,118,0,0,111,118,132,108,1,11772
131.517030954,0,0,0,-3,-1,-5,0,3,-6,12,-116,202,-2,-3,219,118,0,0,117,114,120,119,1,11773
131.544986963,0,0,0,1,2,0,0,0,-2,-4,137,38,0,4,220,118,0,0,119,116,116,118,1,11774
131.554240942,0,0,0,-2,-1,0,0,0,0,41,207,252,1,4,218,118,0,0,118,118,119,115,1,11775
131.566301107,0,0,0,0,1,5,-1,0,3,-10,2,125,0,7,221,118,0,0,122,117,116,115,1,11776
131.572975159,0,0,0,3,2,-1,1,2,2,-35,-227,71,-5,3,215,118,0,0,113,121,123,113,1,11777
131.599859953,0,0,0,-2,12,2,0,7,0,5,67,148,-6,4,211,118,0,0,118,118,130,104,1,11778
131.609993935,0,0,0,-3,2,3,-2,7,2,-85,27,62,-10,5,202,118,0,0,124,113,124,108,1,11779
131.619012117,0,0,0,-1,12,2,-2,7,3,5,70,206,-8,2,203,118,0,0,120,117,125,107,1,11780
131.628090143,0,0,0,0,2,-1,0,7,0,13,-161,198,-10,7,204,118,0,0,115,119,127,109,1,11781
131.656085014,0,0,0,3,-3,-4,2,0,-3,12,-118,104,-10,2,201,118,0,0,111,120,113,125,1,11782
131.67189002,0,0,0,-1,-3,1,0,-3,-1,54,-88,249,-9,5,205,122,0,0,122,122,116,126,1,11783
131.687077999,0,0,0,2,-7,-4,0,-5,-1,-28,-188,43,-8,-6,210,126,0,0,124,123,122,132,1,11784
131.721011162,0,0,0,1,-1,-5,1,-4,-4,-71,-20,-48,-10,-3,205,128,0,0,122,129,128,131,1,11785
131.730625153,0,0,0,2,-2,1,1,-1,-1,95,39,137,-9,2,203,128,0,0,126,130,129,125,1,11786
131.739897966,0,0,0,0,-1,-8,1,-1,-3,144,-171,43,-6,7,200,128,0,0,124,125,131,131,1,11787
131.749098063,0,0,0,-4,-7,4,-2,-4,-1,-39,72,15,-5,4,200,128,0,0,134,125,121,130,1,11788
131.777016163,0,0,0,1,-8,3,-1,-7,3,29,4,186,-6,5,197,128,0,0,129,128,118,135,1,11789
131.785954952,0,0,0,-3,-5,3,-1,-6,3,45,114,214,-5,19,193,128,0,0,130,128,122,131,1,11790
131.79499197,0,0,0,1,-7,4,-1,-6,3,-43,-216,136,-5,13,195,128,0,0,130,129,121,130,1,11791
131.804927111,0,0,0,0,1,0,1,-3,2,-53,-98,138,-8,13,197,128,0,0,124,131,129,125,1,11792
131.832944155,0,0,0,0,8,0,0,4,0,0,-23,65,-8,8,199,128,0,0,128,128,140,114,1,11793
131.843075037,0,0,0,-1,12,5,-1,10,3,76,0,151,-4,6,203,128,0,0,132,128,141,109,1,11794
131.851289034,1,0,0,2,13,4,0,13,5,-57,108,127,-5,8,205,128,0,0,127,132,142,109,1,11795
131.860960007,1,0,0,-1,5,2,0,9,3,-27,179,50,-4,15,203,128,0,0,127,130,134,119,1,11796
131.887915134,1,0,0,3,1,-2,1,3,0,6,-200,243,-5,6,207,128,0,0,125,128,128,128,1,11797
131.897861958,1,0,0,-1,5,6,1,3,1,-49,-89,1,-5,2,206,128,0,0,128,132,130,120,1,11798
131.913000107,1,0,0,1,-2,6,0,1,6,-56,188,183,-9,5,205,129,0,0,131,131,127,124,1,11799
131.94687295,1,0,0,0,2,-3,0,0,1,-91,17,236,-9,14,206,129,0,0,125,129,130,129,1,11800
131.961914062,1,0,0,-1,9,2,0,5,0,-44,123,170,-6,23,210,129,0,0,131,128,139,115,1,11801
131.977931023,1,0,0,-2,-4,3,-2,2,3,-64,137,215,-10,24,214,132,0,0,136,130,131,129,1,11802
132.005921125,1,0,0,2,-14,-4,0,-9,0,-61,-242,211,-11,15,219,132,0,0,128,132,116,150,1,11803
132.01520896,1,-1,0,0,-5,2,0,-9,0,-50,-81,41,-14,17,218,132,0,0,130,135,123,138,1,11804
132.027353048,1,-1,0,1,-16,-8,0,-10,-3,-87,-122,116,-13,11,215,132,0,0,128,129,125,144,1,11805
132.03422308,1,-1,0,-2,0,0,0,-8,-4,51,-134,124,-11,7,218,132,0,0,132,131,128,135,1,11806
132.060979128,1,-1,0,-2,-6,0,-2,-3,0,-40,-7,136,-12,3,225,132,0,0,135,128,135,128,1,11807
132.076965094,1,-1,0,4,0,4,1,-2,2,-29,171,224,-15,13,226,134,0,0,131,140,131,132,1,11808
132.092226982,1,-1,0,-3,-9,-2,0,-4,1,-19,39,45,-15,20,227,134,0,0,132,134,130,138,1,11809
132.119962931,1,-1,0,0,-16,2,-2,-13,0,-19,-249,138,-14,10,230,134,0,0,138,131,115,150,1,11810
132.129105091,1,-2,0,-1,-7,-1,0,-12,0,-83,179,190,-15,7,227,134,0,0,132,134,125,142,1,11811
132.137870073,1,-2,0,0,-9,0,0,-8,0,23,-64,97,-13,13,222,134,0,0,134,134,129,137,1,11812
132.148288965,1,-2,0,5,4,2,2,-2,1,-77,-86,93,-15,14,219,134,0,0,129,140,137,127,1,11813
132.175884008,2,-2,0,-1,-4,-1,2,0,0,-35,145,-10,-16,8,211,134,0,0,130,136,139,129,1,11814
132.185096025,2,-2,0,3,8,-1,1,1,-1,-35,3,-1,-18,3,205,134,0,0,132,134,140,129,1,11815
132.194036961,2,-2,0,0,0,-3,1,4,-2,13,-65,8,-17,1,196,134,0,0,130,135,143,126,1,11816
132.203037977,1,-2,0,-3,-2,-1,-1,-1,-2,-79,230,224,-18,12,199,134,0,0,137,129,130,137,1,11817
132.232753992,2,-2,0,0,-5,2,-1,-3,0,-30,-143,251,-19,1,202,134,0,0,135,134,128,136,1,11818
132.240108013,1,-2,0,-3,-3,3,-1,-4,3,-43,207,245,-18,5,207,134,0,0,136,134,130,134,1,11819
132.249809027,1,-2,0,0,-6,0,-1,-4,1,-75,-131,160,-20,0,205,134,0,0,134,133,131,136,1,11820
132.258964062,1,-2,0,3,12,4,1,2,2,-76,78,154,-23,6,204,134,0,0,130,141,143,120,1,11821
132.286953926,1,-2,0,0,2,-5,1,7,0,-26,82,21,-24,11,202,134,0,0,130,133,149,122,1,11822
132.295962095,1,-2,0,5,9,0,2,6,-3,31,25,44,-24,14,197,134,0,0,129,138,141,126,1,11823
132.305071115,2,-3,0,-1,5,-4,2,7,-2,40,-218,-52,-22,13,188,134,0,0,130,134,145,124,1,11824
132.315104961,2,-3,0,-3,0,2,-2,2,0,1,217,98,-21,19,192,134,0,0,140,129,133,131,1,11825
132.342885971,2,-3,0,0,-3,0,-1,-1,1,81,-133,241,-21,15,195,134,0,0,133,134,131,136,1,11826
132.351979971,2,-3,0,-4,-6,0,-1,-4,0,29,42,236,-24,20,193,134,0,0,135,132,129,138,1,11827
132.360865116,2,-3,0,0,-8,0,-2,-7,0,-49,148,54,-24,22,194,134,0,0,135,133,126,140,1,11828
132.369956017,2,-3,0,3,2,0,2,-3,0,-53,-55,26,-26,14,196,134,0,0,127,140,137,130,1,11829
132.398229122,2,-3,0,0,0,-2,1,0,-1,-33,-76,0,-28,3,191,134,0,0,131,135,141,127,1,11830
132.407025099,2,-3,0,3,3,0,1,1,-1,-77,15,149,-29,15,185,134,0,0,131,136,138,129,1,11831
132.416912079,2,-4,0,0,0,0,1,1,0,34,-117,41,-27,15,182,134,0,0,131,137,138,128,1,11832
132.42616415,2,-4,0,-3,-7,1,-1,-3,0,16,241,134,-26,21,178,134,0,0,137,131,128,138,1,11833
132.453999996,2,-4,0,0,-11,0,-1,-9,0,106,100,65,-26,30,176,134,0,0,134,133,123,144,1,11834
132.463254929,2,-4,0,-2,-9,-2,-1,-10,-1,79,23,230,-22,28,172,134,0,0,133,133,126,142,1,11835
132.471987009,3,-4,0,0,-11,3,-1,-10,0,5,75,59,-21,26,178,134,0,0,136,134,125,139,1,11836
132.481881142,3,-4,0,5,2,-3,2,-4,0,-17,132,236,-22,34,178,134,0,0,125,139,138,131,1,11837
132.509819984,3,-4,0,0,0,0,2,1,-1,-60,-146,57,-22,39,173,134,0,0,130,137,143,124,1,11838
132.519025087,3,-4,0,4,7,1,1,3,0,-24,231,207,-21,40,174,134,0,0,131,137,142,124,1,11839
132.528079033,4,-4,0,0,3,2,2,5,1,110,-97,24,-16,31,169,134,0,0,130,139,142,123,1,11840
132.53689003,4,-5,0,-2,-4,0,-1,0,0,150,64,145,-11,23,168,134,0,0,136,131,131,136,1,11841
132.565106153,4,-5,0,0,-9,0,-1,-6,0,71,230,113,-8,25,172,134,0,0,133,134,125,142,1,11842
132.574259043,4,-5,0,-3,-3,-5,-2,-6,-2,110,36,196,-4,32,171,134,0,0,133,131,133,138,1,11843
132.583956003,4,-5,0,0,-8,3,-2,-6,0,24,-24,100,-2,34,173,134,0,0,135,135,129,134,1,11844
132.592949152,4,-4,0,3,7,0,1,0,1,25,7,32,0,43,177,134,0,0,127,140,141,126,1,11845
132.62113595,5,-4,0,0,4,2,2,6,1,-95,-249,89,-3,40,176,134,0,0,131,139,147,118,1,11846
132.62994194,5,-4,0,7,10,0,3,7,1,-58,183,202,-3,45,172,134,0,0,127,141,145,122,1,11847
132.639136076,5,-4,0,0,6,-2,4,8,0,46,-116,78,-1,38,168,134,0,0,127,139,147,122,1,11848
132.648927927,5,-4,0,0,0,-7,0,3,-5,133,-105,120,2,28,163,134,0,0,131,130,138,135,1,11849
132.676895142,6,-4,0,1,-3,2,0,-2,-2,53,35,141,3,41,163,134,0,0,132,138,129,136,1,11850
132.685848951,6,-3,0,-1,-3,-6,0,-3,-2,60,100,131,7,39,162,134,0,0,129,133,134,138,1,11851
132.69503212,6,-3,0,-1,-6,3,-1,-5,-1,64,-187,94,8,36,168,134,0,0,135,135,129,135,1,11852
132.703976154,6,-3,0,6,6,-4,2,0,0,-49,206,228,9,44,172,134,0,0,124,140,142,128,1,11853
132.731985092,6,-3,0,0,3,1,3,4,-1,-32,-177,67,9,36,174,134,0,0,128,140,144,121,1,11854
132.74092102,7,-3,0,9,3,-1,4,3,0,-49,-92,248,8,33,180,134,0,0,125,141,138,129,1,11855
132.751096964,7,-2,0,0,4,-3,4,3,-2,-62,-17,81,7,34,182,134,0,0,126,139,141,128,1,11856
132.760797024,7,-2,0,-1,-3,-8,0,0,-5,-8,-183,106,8,24,179,134,0,0,133,128,137,137,1,11857
132.78798604,7,-2,0,0,-2,0,0,-3,-4,-2,126,170,9,31,183,134,0,0,131,136,130,137,1,11858
132.797057152,7,-2,0,-1,-4,-8,0,-3,-4,-83,-31,147,8,25,181,134,0,0,128,132,136,138,1,11859
132.806164026,7,-2,0,0,0,3,0,-1,-2,50,121,43,11,31,184,134,0,0,133,137,134,130,1,11860
132.816012144,7,-2,0,6,1,-6,3,1,-1,-82,3,111,11,29,183,134,0,0,122,140,142,130,1,11861
132.844016075,7,-2,0,-1,1,-4,2,1,-5,3,-32,-68,12,26,181,134,0,0,127,136,139,132,1,11862
132.853158951,7,-1,0,5,1,-1,1,1,-2,-11,-88,115,11,23,183,134,0,0,129,137,137,131,1,11863
132.861871004,7,-1,0,0,0,-1,2,0,-1,39,-187,38,11,24,185,134,0,0,127,139,137,131,1,11864
132.87225008,7,-1,0,-1,-2,-4,-1,0,-2,76,-24,200,13,18,187,134,0,0,133,131,135,136,1,11865
132.899851084,7,-1,0,0,-3,0,0,-2,-1,99,-114,195,13,19,193,134,0,0,132,136,131,136,1,11866
132.908977032,7,-1,0,-3,-3,1,-1,-3,1,14,61,243,13,19,193,134,0,0,134,134,132,134,1,11867
132.919266939,7,-1,0,-1,-5,1,-2,-4,1,-8,115,206,14,18,197,134,0,0,134,134,130,137,1,11868
132.927902937,7,0,0,3,1,0,1,-1,0,-107,-64,150,12,18,193,134,0,0,126,140,136,132,1,11869
132.955074072,7,0,0,-2,0,0,0,1,0,-26,248,119,13,26,196,134,0,0,131,136,140,128,1,11870
132.965036154,7,0,0,1,1,5,0,1,2,39,34,20,15,20,200,134,0,0,134,137,134,129,1,11871
132.973968983,7,0,0,-1,2,0,0,1,2,47,-68,12,16,21,199,134,0,0,130,136,138,129,1,11872
132.982954979,7,0,0,-3,3,4,-2,2,1,218,246,21,21,22,202,134,0,0,137,133,137,127,1,11873
133.016889095,7,0,0,2,0,4,0,1,4,-87,-63,142,16,11,198,129,0,0,126,134,129,125,1,11874
133.032840967,7,0,0,0,-4,0,0,-1,2,5,-9,108,14,4,195,128,0,0,123,132,124,131,1,11875
133.042036057,6,0,0,0,0,4,0,-1,2,-26,232,73,13,8,195,128,0,0,128,131,125,126,1,11876
133.050884008,6,0,0,1,-1,-6,0,0,0,-132,-202,156,10,0,193,128,0,0,121,129,132,128,1,11877
133.079077005,6,0,0,2,-6,-6,1,-4,-6,-75,-80,121,10,1,201,128,0,0,120,130,125,135,1,11878
133.088022947,6,0,0,0,-2,-1,0,-4,-3,-134,-92,224,7,-6,202,128,0,0,124,130,125,131,1,11879
133.097964048,6,0,0,1,-4,-8,0,-3,-5,93,23,11,7,-3,208,128,0,0,121,127,129,133,1,11880
133.107353926,6,0,0,-1,-2,3,0,-3,-2,-150,-174,52,0,-9,212,128,0,0,127,131,124,129,1,11881
133.135019064,5,0,0,1,3,4,0,0,3,41,71,43,0,-7,210,128,0,0,127,131,131,120,1,11882
133.144238949,5,0,0,1,0,2,1,1,3,57,36,139,-2,-7,209,128,0,0,123,133,131,123,1,11883
133.153321028,5,0,0,1,0,0,1,0,1,-80,99,98,-4,-4,209,128,0,0,124,131,128,127,1,11884
133.162878036,5,0,0,1,0,-4,1,0,-1,-119,-47,121,-8,-11,204,128,0,0,123,129,131,127,1,11885
133.190860033,4,0,0,1,-2,-8,1,-1,-6,77,-135,160,-4,-8,213,128,0,0,121,127,130,132,1,11886
133.199911118,4,0,0,1,3,-3,1,0,-5,-83,-51,13,-4,-21,214,128,0,0,123,130,132,126,1,11887
133.209123135,4,0,0,0,-1,-9,0,1,-6,77,206,174,-3,-13,217,128,0,0,122,125,134,128,1,11888
133.217952013,4,0,0,0,1,5,0,0,-1,47,-78,63,-6,-12,222,128,0,0,130,130,126,125,1,11889
133.246159077,3,0,0,2,6,1,1,4,3,57,126,48,-5,-16,219,128,0,0,124,132,135,118,1,11890
133.254918098,3,0,0,0,0,2,1,3,1,-55,121,235,-8,-16,222,128,0,0,125,131,131,123,1,11891
133.264882088,3,0,0,0,7,0,0,3,1,59,73,111,-9,-3,222,128,0,0,127,129,132,122,1,11892
133.273991108,3,0,0,1,6,-1,1,6,0,-105,-117,124,-10,-17,220,128,0,0,124,130,139,117,1,11893
133.301839113,3,0,0,-1,-1,-8,0,2,-5,-21,27,12,-10,-6,225,128,0,0,123,125,132,131,1,11894
133.314615965,2,0,0,1,5,-4,0,2,-6,-123,-106,64,-12,-6,227,128,0,0,125,127,132,126,1,11895
133.32012701,2,0,0,-1,1,-6,0,3,-5,112,-89,204,-7,-8,230,128,0,0,124,125,136,124,1,11896
133.329890966,2,0,0,-1,-3,9,-1,-1,1,43,135,69,-6,0,235,128,0,0,133,129,120,127,1,11897
133.35790801,2,0,0,1,0,3,0,-1,6,34,0,194,-5,2,229,128,0,0,127,131,126,127,1,11898
133.366909981,2,0,0,-4,-6,7,-1,-2,5,72,113,234,-1,6,232,128,0,0,132,129,122,127,1,11899
133.376040936,2,0,0,1,2,3,-1,-2,5,42,77,213,-1,5,229,128,0,0,130,128,126,126,1,11900
133.385934114,2,0,0,0,-2,-3,0,0,0,-72,110,2,-1,8,227,128,0,0,123,129,133,126,1,11901
133.412953138,2,0,0,-1,-2,-6,0,-2,-5,60,142,103,0,12,237,128,0,0,126,124,128,132,1,11902
133.422945976,2,0,0,0,-2,-3,-1,-2,-5,73,-182,203,2,10,240,128,0,0,126,126,128,130,1,11903
133.431931019,2,0,0,-1,-2,1,0,-2,-1,-5,228,181,0,20,243,128,0,0,128,128,126,128,1,11904
133.440977097,2,0,0,0,-14,1,0,-8,1,-2,139,174,0,24,242,128,0,0,127,129,115,139,1,11905
133.468894005,2,0,0,3,-1,0,2,-7,0,47,-239,145,-2,21,235,128,0,0,122,132,122,133,1,11906
133.478091955,2,-1,0,0,-94,2,1,-47,1,-35,-225,18,-3,14,229,128,0,0,127,130,50,204,1,11907
133.487100124,2,-1,0,-2,-110,5,-1,-102,3,30,210,5,-2,16,218,128,0,0,132,127,0,240,1,11908
133.497408152,2,-2,0,-4,-108,5,-3,-109,5,86,191,55,2,23,222,128,0,0,133,127,18,233,1,11909
133.51403594,2,-2,0,-8,-120,6,-6,-114,6,-26,104,15,2,19,219,128,11,75,138,122,13,236,1,11910
133.523880005,2,-3,0,-22,-91,-10,-15,-105,-1,-90,-53,-85,0,17,210,128,11,75,144,102,41,223,1,11911
133.533168077,2,-4,0,-7,-111,7,-14,-101,-1,-142,-63,-209,-5,11,205,128,11,75,142,118,34,215,1,11912
133.541924953,2,-4,0,2,-77,-4,-2,-94,1,126,19,179,-8,11,209,128,11,75,117,135,48,211,1,11913
133.569844961,2,-4,0,6,-68,-3,4,-72,-3,131,-49,113,-2,12,214,128,10,-31,115,137,81,177,1,11914
133.579139948,2,-5,0,2,-14,-12,4,-41,-7,84,-9,139,5,18,215,128,10,-31,117,128,122,143,1,11915
133.588197947,2,-5,0,0,17,-16,1,1,-14,125,203,115,9,17,216,128,10,-31,121,120,174,95,1,11916
133.59781599,2,-4,0,-4,26,-5,-2,21,-11,93,211,95,15,28,221,128,10,-31,129,121,171,89,1,11917
133.62509799,3,-4,0,5,23,-14,0,24,-9,194,-13,128,22,23,215,128,9,-28,118,126,162,105,1,11918
133.634946108,3,-3,0,6,72,-1,5,47,-7,76,55,7,27,27,216,128,9,-28,116,138,195,61,1,11919
133.644004107,3,-2,0,7,83,4,6,77,1,95,69,251,27,28,215,128,9,-28,121,137,228,24,1,11920
133.653051138,3,-1,0,2,83,6,5,83,5,-64,-154,28,29,28,215,128,9,-28,125,135,212,39,1,11921
133.662999153,3,-1,0,2,85,4,2,84,5,172,114,142,32,23,211,128,8,-25,127,131,209,43,1,11922
133.672877073,3,0,0,4,99,24,3,92,14,143,88,104,34,24,210,128,8,-25,132,142,215,21,1,11923
133.682467937,3,0,0,8,81,15,6,90,20,131,-195,104,40,17,204,128,8,-25,123,144,207,36,1,11924
133.691236973,3,0,0,0,75,22,4,78,19,118,87,-32,46,20,200,128,8,-25,133,140,184,53,1,11925
133.718197107,4,1,0,10,65,-4,5,70,9,-35,-229,77,43,18,191,128,7,-23,118,133,190,69,1,11926
133.727021933,4,2,0,-1,39,13,4,52,4,-126,204,79,42,31,187,128,7,-23,127,138,158,87,1,11927
133.736007929,4,3,0,3,34,6,1,36,9,-171,42,178,35,33,187,128,7,-23,130,130,148,102,1,11928
133.746026993,4,3,0,3,3,-7,3,18,0,13,-55,127,35,27,188,128,7,-23,117,131,133,128,1,11929
133.773929119,4,3,0,-2,0,-1,0,1,-4,58,175,44,35,29,188,128,7,-21,127,126,115,142,1,11930
133.783437014,4,3,0,-4,-21,0,-3,-11,-1,-68,49,143,34,33,186,128,7,-21,132,122,107,149,1,11931
133.791995049,4,3,0,0,-40,-4,-2,-31,-2,-79,-231,70,31,19,178,128,7,-21,125,126,83,176,1,11932
133.802096128,4,3,0,-2,-33,-5,-1,-36,-5,82,-4,92,36,28,184,128,7,-21,124,126,90,170,1,11933
133.828979969,4,3,0,0,-40,0,-1,-36,-3,-117,148,89,33,25,186,128,6,-19,127,128,93,163,1,11934
133.839012146,5,3,0,1,-58,0,0,-49,0,34,121,16,37,31,185,128,6,-19,123,132,70,185,1,11935
133.847833157,5,3,0,-3,-46,3,0,-52,1,27,-128,128,35,30,183,128,6,-19,129,129,74,179,1,11936
133.857131004,5,3,0,-3,-54,-4,-3,-50,0,86,22,-24,36,27,174,128,6,-19,129,122,83,176,1,11937
133.88501215,5,3,0,-6,-37,1,-5,-45,-1,116,78,175,38,29,180,128,5,-17,132,124,87,166,1,11938
133.894547939,5,2,0,0,-29,-2,-3,-33,0,105,-164,-4,39,22,174,128,5,-17,126,127,107,150,1,11939
133.903862,5,2,0,-5,-22,1,-2,-26,0,254,149,253,44,24,175,128,5,-17,128,128,108,146,1,11940
133.912981987,5,3,0,0,-20,1,-2,-21,1,17,-89,201,46,19,186,128,5,-17,129,127,111,143,1,11941
133.946870089,5,3,0,0,5,2,0,-7,2,-14,177,-97,45,20,175,126,5,-15,121,131,129,120,1,11942
133.955989122,5,4,0,3,22,2,2,14,2,-20,-38,131,42,23,180,126,5,-15,120,132,156,94,1,11943
133.965204,5,4,0,-2,20,-3,0,21,0,49,43,197,44,19,180,126,5,-15,123,125,154,100,1,11944
133.975010157,5,4,0,1,22,0,0,21,-1,95,-136,50,46,12,177,126,5,-15,125,126,145,106,1,11945
134.003031969,5,5,0,0,32,2,1,27,1,72,136,242,47,21,179,126,4,-14,122,131,155,95,1,11946
134.011887074,5,6,0,-1,37,-2,0,35,0,14,-22,142,48,20,182,126,4,-14,124,125,166,87,1,11947
134.021114111,5,6,0,2,46,3,0,41,0,-90,129,196,45,18,187,126,4,-14,123,130,169,80,1,11948
134.030844927,5,7,0,-1,53,13,0,49,8,-38,95,85,42,15,182,126,4,-14,128,134,173,68,1,11949
134.058568001,5,7,0,-2,37,6,-1,45,9,36,-57,215,43,11,187,126,4,-12,129,127,161,84,1,11950
134.068232059,5,8,0,1,44,6,0,41,6,-176,77,225,41,15,194,126,4,-12,125,131,157,89,1,11951
134.077018023,5,8,0,0,29,-1,0,37,2,-119,-104,-60,42,20,198,126,4,-12,121,129,156,96,1,11952
134.085988045,5,8,0,-5,21,0,-2,25,0,-48,-23,62,37,12,195,126,4,-12,129,122,138,113,1,11953
134.114071131,5,9,0,2,16,-1,-1,18,0,-11,-150,250,34,16,192,126,3,-11,124,126,136,116,1,11954
134.123826981,5,9,0,-2,-6,-7,0,4,-4,-140,171,176,22,21,193,126,3,-11,119,126,119,138,1,11955
134.132998943,5,9,0,1,-11,-1,0,-9,-4,-42,59,245,18,17,190,126,3,-11,124,125,104,149,1,11956
134.142755985,5,8,0,2,-11,-5,1,-11,-3,1,-135,155,15,2,191,126,3,-11,118,129,112,143,1,11957
134.171309948,5,8,0,-2,-15,-6,0,-13,-5,60,148,236,12,13,194,126,3,-10,122,124,112,144,1,11958
134.178941011,5,8,0,-1,-25,0,-2,-20,-3,80,-84,146,12,9,198,126,3,-10,127,124,99,153,1,11959
134.18891716,5,7,0,-1,-24,0,-1,-24,0,14,194,243,10,12,197,126,3,-10,124,127,96,155,1,11960
134.198246002,5,7,0,-1,-25,1,-1,-24,1,-92,-74,181,9,8,195,126,3,-10,126,126,100,150,1,11961
134.225854158,5,7,0,-2,-17,4,-1,-21,3,71,145,172,7,9,196,126,3,-9,128,127,104,143,1,11962
134.235041142,4,6,0,0,-19,-5,-1,-18,0,-114,-144,-48,0,3,192,126,3,-9,123,124,110,145,1,11963
134.243834019,4,6,0,-5,-17,1,-3,-18,-1,46,58,43,-1,9,197,126,3,-9,128,124,106,144,1,11964
134.253934145,4,6,0,0,-25,1,-2,-21,1,6,-7,145,-4,7,207,126,3,-9,126,127,101,149,1,11965
134.281149149,4,6,0,3,-8,0,2,-16,0,16,-16,206,-2,12,211,126,2,-8,117,133,112,139,1,11966
134.29470706,4,5,0,1,-7,1,2,-8,0,8,-206,46,0,2,216,126,2,-8,121,131,123,126,1,11967
134.299849987,4,5,0,1,5,-2,1,-1,0,101,37,14,7,2,219,126,2,-8,122,127,130,123,1,11968
134.309036016,4,5,0,1,8,0,1,6,-1,93,-104,20,9,7,216,126,2,-8,122,128,138,113,1,11969
134.336971998,4,5,0,0,9,-4,0,8,-2,130,90,213,11,5,214,126,2,-7,122,125,137,118,1,11970
134.346095085,4,5,0,0,23,-1,0,16,-2,-65,-20,211,11,-2,215,126,2,-7,123,126,147,105,1,11971
134.355215073,4,5,0,1,15,0,1,19,0,64,-136,131,14,-6,217,126,2,-7,121,129,146,105,1,11972
134.365016937,3,5,0,-2,25,6,0,20,3,-86,49,26,10,0,215,126,2,-7,128,128,143,103,1,11973
134.392979145,3,5,0,3,24,2,0,24,4,-10,-181,186,13,-7,211,126,2,-7,124,129,151,98,1,11974
134.40289402,3,6,0,0,24,7,1,24,5,-18,-153,3,12,-14,211,126,2,-7,124,133,144,101,1,11975
134.411041975,3,6,0,9,23,-5,5,23,0,-91,6,186,9,-10,212,126,2,-7,114,132,150,106,1,11976
134.420868158,3,6,0,1,24,-2,5,24,-4,-161,11,61,2,-11,215,126,2,-7,118,131,149,105,1,11977
134.44836998,3,6,0,3,10,-9,2,17,-6,-22,-18,119,0,-26,207,126,2,-6,121,122,139,119,1,11978
134.458259106,2,6,0,-1,14,-4,0,12,-6,-66,-52,140,-4,-23,210,126,2,-6,123,125,133,121,1,11979
134.466985941,2,5,0,-2,1,-6,-1,7,-5,-155,-61,19,-15,-35,211,126,2,-6,126,120,131,126,1,11980
134.476104021,2,5,0,-1,4,7,-2,2,0,-77,64,180,-17,-25,204,126,2,-6,129,127,120,125,1,11981
134.506618977,1,5,0,2,0,-8,0,2,0,-85,-171,156,-19,-33,210,126,1,-5,119,125,130,128,1,11982
134.513040066,1,4,0,0,-5,-2,1,-2,-5,-17,66,129,-19,-31,204,126,1,-5,122,127,119,134,1,11983
134.522892952,1,4,0,0,-12,-1,0,-9,-1,131,-127,191,-17,-35,204,126,1,-5,126,124,111,141,1,11984
134.532103062,0,4,0,0,-8,3,0,-10,1,0,116,188,-19,-29,207,126,1,-5,127,127,113,136,1,11985
134.566029072,0,3,0,-5,-9,-1,-3,-8,1,-46,57,173,-22,-24,206,129,1,-5,133,123,122,137,1,11986
134.581135035,0,3,0,0,-10,0,-2,-9,0,-27,56,219,-23,-9,207,132,1,-5,134,130,121,142,1,11987
134.597492933,0,2,0,0,-17,2,0,-13,1,49,115,75,-20,-10,211,134,1,-5,131,137,116,149,1,11988
134.624992132,0,2,0,3,-2,3,1,-10,2,-46,33,137,-20,-11,212,134,1,-4,131,138,126,139,1,11989
134.634242058,0,2,0,2,-10,-1,3,-6,0,46,-62,85,-19,-11,215,134,1,-4,129,137,131,137,1,11990
134.64309597,0,1,0,2,1,-4,2,-4,-2,65,106,152,-13,-11,213,134,1,-4,129,134,133,137,1,11991
134.653002024,0,1,0,1,4,-3,2,3,-4,-88,-94,138,-13,-17,218,134,1,-4,130,133,145,126,1,11992
134.68081212,0,1,0,0,1,-7,1,3,-5,55,156,117,-10,-12,213,134,1,-4,130,130,141,133,1,11993
134.689847946,0,1,0,0,8,-2,0,5,-5,-128,-146,-70,-13,-12,205,134,1,-4,133,131,142,127,1,11994
134.698984146,0,1,0,0,9,3,0,9,0,23,-5,118,-9,-17,210,134,1,-4,136,134,145,120,1,11995
134.709116936,0,1,0,2,3,1,1,6,2,-58,78,59,-9,-16,212,134,1,-4,132,136,138,128,1,11996
134.736133099,0,1,0,1,9,2,2,6,2,65,-85,14,-8,-9,209,134,1,-3,131,137,139,126,1,11997
134.746016979,0,1,0,0,3,4,0,6,3,92,-77,181,-7,-14,214,134,1,-3,136,134,139,125,1,11998
134.754997969,0,1,0,2,10,0,0,6,2,-112,204,180,-12,-7,208,134,1,-3,133,134,141,126,1,11999
134.763939142,0,1,0,1,12,-7,1,11,-3,-61,-241,-14,-14,-18,202,134,1,-3,128,132,152,122,1,12000
134.791983128,0,1,0,-1,8,0,0,10,-3,0,67,249,-11,-8,203,134,1,-3,135,132,144,123,1,12001
134.800969124,0,1,0,1,4,-8,0,6,-4,-38,-29,-124,-14,-12,196,134,1,-3,130,130,141,133,1,12002
134.814864159,-1,0,0,-1,1,-2,0,2,-5,14,-20,58,-11,-9,205,134,1,-3,133,131,135,134,1,12003
134.820785999,-1,0,0,0,-7,4,-1,-3,0,-46,-153,91,-13,-15,206,134,1,-3,138,132,125,139,1,12004
134.848067045,-1,0,0,1,-3,8,0,-5,6,-109,222,186,-16,-9,201,134,1,-3,135,138,124,137,1,12005
134.862978935,-1,0,0,0,-12,-6,1,-7,1,-89,-20,218,-19,-9,201,136,1,-3,131,135,130,146,1,12006
134.873633146,-1,0,0,-2,-15,-9,0,-13,-7,-52,-71,32,-20,-5,201,136,1,-3,134,128,123,157,1,12007
134.882257938,-1,0,0,0,-14,3,-1,-15,-3,-166,192,83,-27,-8,202,136,1,-3,139,135,120,148,1,12008
134.90989399,-1,0,0,-1,-52,-13,-1,-33,-4,42,-209,199,-28,-11,201,136,0,-2,131,129,95,187,1,12009
134.925112963,-1,-3,-1,-10,-128,-17,-6,-90,-15,131,-233,166,-28,-19,199,138,0,-2,141,120,13,240,1,12010
134.941265106,-1,-4,-1,-1,-126,-7,-5,-127,-12,21,81,60,-26,-16,196,139,0,-2,141,129,0,240,1,12011
134.964887142,-1,-6,-1,-1,-130,0,-1,-128,-3,131,-3,-139,-24,-6,189,142,12,75,139,143,23,240,1,12012
134.979918957,-1,-8,-1,-1,-111,-10,-1,-120,-5,23,-118,226,-22,-17,187,144,12,75,140,137,44,240,1,12013
134.995151997,-1,-9,-1,0,-72,9,0,-91,0,44,-99,-48,-20,-15,182,145,12,75,149,146,82,200,1,12014
135.023124933,-2,-9,-1,1,-39,-3,0,-56,3,41,-4,136,-19,-11,185,145,11,-34,142,143,127,166,1,12015
135.038826942,-1,-9,-1,3,28,-7,2,-5,-5,-95,-137,208,-19,-15,185,148,11,-34,141,147,192,110,1,12016
135.053898096,-2,-8,-1,0,51,6,1,40,0,175,201,232,-10,-10,190,148,11,-34,149,150,226,65,1,12017
135.089758158,-2,-7,-1,-2,86,4,-1,69,5,-33,141,-52,-11,0,185,149,10,-30,154,145,240,54,1,12018
135.097065926,-1,-5,-1,8,103,2,2,94,3,-46,74,202,-10,2,193,149,10,-30,144,154,240,32,1,12019
135.105996132,-1,-5,-1,0,93,8,4,98,5,153,189,52,-2,15,188,149,10,-30,147,155,240,45,1,12020
135.122885942,-1,-4,-1,2,78,-8,1,85,0,-108,0,171,-3,1,194,152,10,-30,149,146,229,82,1,12021
135.156012058,-1,-3,-1,4,74,12,3,76,1,-252,-218,99,-7,0,192,152,9,-27,151,161,214,80,1,12022
135.171074152,-1,-2,0,2,24,10,3,49,11,246,41,81,-1,0,198,154,9,-27,154,160,177,123,1,12023
135.187284946,-1,-1,0,0,10,12,1,17,11,153,68,148,0,4,203,155,9,-27,161,158,142,158,1,12024
135.221045017,-1,-1,0,-4,-21,5,-2,-5,9,133,59,90,2,2,207,158,8,-25,165,154,133,178,1,12025
135.235913038,-1,-2,0,1,-62,-9,-1,-42,-1,-85,-78,171,1,-13,207,159,8,-25,156,153,94,231,1,12026
135.251914024,-1,-3,0,1,-71,-9,1,-66,-9,-127,-147,18,0,-24,208,162,8,-25,154,160,84,240,1,12027
135.285915136,-1,-4,-1,-2,-80,-12,0,-75,-11,-14,91,68,-2,-25,208,164,7,-22,161,155,92,240,1,12028
135.301006079,-1,-6,-1,-4,-65,-8,-3,-73,-10,-40,183,205,-2,-21,210,164,7,-22,166,154,103,232,1,12029
135.31613493,-1,-6,-1,1,-26,-1,-1,-46,-4,71,128,126,-1,-16,204,165,7,-22,164,163,147,184,1,12030
135.350069046,-2,-6,-1,-5,-28,-5,-2,-27,-3,30,186,244,-2,-14,207,168,6,-20,168,161,163,177,1,12031
135.359143972,-2,-6,-1,-2,13,4,-4,-7,0,131,51,97,2,-4,206,168,6,-20,175,162,180,153,1,12032
135.369238138,-2,-6,-1,2,31,4,0,22,4,35,-64,39,2,-10,210,168,6,-20,166,172,216,116,1,12033
135.377928972,-2,-5,-1,3,43,0,3,37,2,175,-20,223,9,-13,217,168,6,-20,162,172,220,117,1,12034
135.405913115,-2,-5,-1,1,60,13,2,51,6,207,125,232,14,-3,214,168,6,-18,172,173,227,98,1,12035
135.415538073,-2,-3,-1,4,65,0,2,62,7,-231,-159,-61,10,-9,204,168,6,-18,165,169,240,96,1,12036
135.424201965,-2,-3,-1,-1,57,7,1,61,4,-141,-103,251,5,-10,204,168,6,-18,171,169,225,105,1,12037
135.433902979,-2,-2,-1,3,44,0,0,50,3,-254,228,169,-3,-2,204,168,6,-18,167,167,209,126,1,12038
135.462012053,-2,-2,-1,1,46,12,2,45,6,-170,-25,96,-5,-8,208,168,5,-16,169,174,204,123,1,12039
135.470986128,-2,-1,0,-2,28,7,0,37,9,68,151,227,-1,1,214,168,5,-16,174,166,196,134,1,12040
135.486109972,-2,-1,0,0,20,0,0,24,3,-47,146,26,-2,3,208,168,5,-16,169,165,183,153,1,12041
135.495867014,-1,-1,0,-5,-6,1,-2,7,0,155,-162,197,1,0,217,168,5,-16,171,164,161,173,1,12042
135.52323103,-1,-1,0,1,-6,-3,-1,-6,-1,-185,87,10,-3,2,215,168,5,-15,168,163,154,185,1,12043
135.532927036,-1,-1,-1,-3,-37,-16,0,-21,-10,69,-36,65,0,0,208,168,5,-15,161,160,143,206,1,12044
135.542057991,-1,-1,-1,0,-23,0,-1,-30,-8,-115,226,142,0,0,214,168,5,-15,170,164,133,203,1,12045
135.551175117,-1,-2,-1,2,-28,-4,1,-26,-2,12,-201,188,2,-5,219,168,5,-15,163,168,151,188,1,12046
135.579017162,-1,-2,-1,-1,-36,2,0,-32,0,39,15,34,4,3,213,168,4,-13,170,167,133,201,1,12047
135.588279009,-1,-2,-1,-1,-36,3,-1,-36,3,34,-37,85,9,-2,207,168,4,-13,172,165,130,203,1,12048
135.598092079,-1,-2,-1,-1,-46,-6,-1,-41,-1,-59,-47,0,6,1,208,168,4,-13,167,162,128,213,1,12049
135.606997013,-1,-2,-1,-2,-31,0,-2,-39,-3,2,60,40,3,9,211,168,4,-13,170,164,135,201,1,12050
135.634951115,-1,-2,-1,-1,-23,-1,-1,-27,-1,75,-71,185,5,5,221,168,4,-12,169,164,155,182,1,12051
135.644101143,-1,-2,-1,0,-3,0,0,-13,0,20,104,12,2,7,231,168,4,-12,167,168,169,167,1,12052
135.653465033,-1,-2,-1,0,-3,5,0,-3,2,-128,100,-71,-1,13,224,168,4,-12,170,169,173,159,1,12053
135.662910938,-1,-2,-1,-1,-9,0,-1,-6,2,188,200,251,2,20,231,168,4,-12,170,165,161,174,1,12054
135.691121101,0,-2,-1,1,-1,-7,0,-5,-3,-64,-52,215,0,19,233,168,3,-11,163,165,169,173,1,12055
135.699947119,0,-2,-1,0,12,0,1,5,-4,136,0,244,5,23,234,168,3,-11,165,168,185,152,1,12056
135.711285114,0,-2,-1,3,24,2,2,18,1,89,136,50,3,21,229,168,3,-11,166,171,197,137,1,12057
135.718870163,0,-2,-1,1,32,4,2,28,3,112,3,27,6,18,231,168,3,-11,166,172,204,129,1,12058
135.746084929,0,-1,-1,-2,17,5,0,25,4,223,-100,117,13,13,223,168,3,-10,172,166,189,143,1,12059
135.755243063,0,-1,-1,2,24,-4,0,20,0,174,-139,173,13,5,226,168,3,-10,165,165,188,152,1,12060
135.76495409,0,-1,-1,0,21,6,1,22,0,187,80,171,21,13,219,168,3,-10,167,172,190,141,1,12061
135.774008036,0,0,-1,4,30,5,2,26,5,85,-124,123,29,16,220,168,3,-10,166,172,195,137,1,12062
135.802011967,0,0,-1,0,21,7,2,26,6,31,-11,139,24,14,215,168,3,-9,167,172,192,138,1,12063
135.811497927,0,0,-1,2,7,-4,1,14,1,-56,15,189,19,13,210,168,3,-9,164,166,175,164,1,12064
135.820027113,0,0,-1,0,-1,2,0,3,-1,-53,-39,148,14,11,205,168,3,-9,168,168,162,173,1,12065
135.829956055,0,0,-1,-3,-18,-7,-1,-9,-2,-47,-224,209,15,13,206,168,3,-9,168,160,152,190,1,12066
135.857923031,0,0,-1,-2,-14,3,-2,-16,-2,-80,202,104,16,22,208,168,2,-8,171,165,146,187,1,12067
135.867064953,0,0,-1,-5,-27,-1,-3,-21,0,76,-94,216,18,17,205,168,2,-8,171,162,146,192,1,12068
135.875970125,0,0,-1,0,-21,1,-3,-24,0,39,-46,130,20,12,210,168,2,-8,170,166,142,192,1,12069
135.884976149,0,0,-1,0,-24,-3,0,-23,-1,-73,-12,42,17,8,214,168,2,-8,164,167,150,189,1,12070
135.919081926,0,0,-1,-2,-18,0,-1,-21,-2,238,-53,132,22,2,211,168,2,-7,169,165,150,186,1,12071
135.928971052,0,0,-1,-1,-17,-3,-2,-17,-2,82,96,223,21,3,214,168,2,-7,168,164,156,182,1,12072
135.937916994,0,0,-1,0,-5,4,0,-11,0,54,7,92,21,5,216,168,2,-7,168,169,161,171,1,12073
135.947085142,0,0,-1,1,8,2,0,1,3,145,-103,168,20,9,221,168,2,-7,166,170,180,154,1,12074
135.97510314,0,0,-1,1,10,3,1,9,3,73,247,51,17,6,216,168,2,-6,166,171,183,149,1,12075
135.984023094,0,0,-1,0,18,1,1,14,2,-101,34,124,20,11,221,168,2,-6,167,169,186,148,1,12076
135.992983103,1,1,-1,0,13,-1,0,15,0,76,204,181,26,19,226,168,2,-6,166,166,186,152,1,12077
136.002967119,1,1,-1,2,18,0,1,15,-1,-7,10,193,32,13,226,168,2,-6,164,169,184,152,1,12078
136.031002998,1,1,-1,3,25,-5,2,22,-2,73,-216,160,38,8,228,168,2,-6,161,169,197,143,1,12079
136.040014982,1,2,-1,-1,17,5,0,21,0,-28,87,33,36,13,229,168,2,-6,169,169,187,145,1,12080
136.049049139,1,2,-1,-2,13,4,-1,15,4,-51,-13,57,36,9,236,168,2,-6,172,165,176,156,1,12081
136.05914402,1,2,-1,-3,6,7,-2,9,6,160,10,234,36,20,237,168,2,-6,173,167,170,160,1,12082
136.086151123,1,2,-1,0,7,-10,-1,6,-1,-23,-45,103,40,10,233,168,1,-5,162,163,177,168,1,12083
136.095947027,1,3,-1,-2,-1,-5,0,2,-8,38,167,82,39,22,240,168,1,-5,165,165,169,171,1,12084
136.105332136,1,3,-1,1,9,0,0,4,-2,-56,-25,218,40,15,242,168,1,-5,167,168,173,163,1,12085
136.114192963,1,3,-1,3,16,-1,2,13,0,-34,141,27,39,24,238,168,1,-5,161,172,188,149,1,12086
136.14192605,1,3,-1,0,13,1,1,14,0,27,-173,106,39,13,240,168,1,-5,166,169,182,152,1,12087
136.151150942,1,4,-1,0,7,1,0,10,1,-9,150,221,38,18,250,168,1,-5,168,167,173,161,1,12088
136.160953999,1,4,-1,0,0,-6,0,3,-2,0,-171,-55,39,14,242,168,1,-5,162,166,169,173,1,12089
136.17009306,1,4,-1,2,3,-2,1,1,-4,80,94,31,41,15,235,168,1,-5,163,169,169,169,1,12090
136.198275089,2,4,-1,-2,6,5,0,4,1,37,-123,6,40,14,224,168,1,-4,170,169,172,159,1,12091
136.2070961,2,4,-1,2,-11,-4,0,-2,0,106,-14,235,43,11,223,168,1,-4,165,166,160,179,1,12092
136.216131926,2,5,-1,-4,-3,-5,-1,-7,-5,-11,-50,64,45,1,227,168,1,-4,166,163,159,182,1,12093
136.226907969,2,5,-1,-2,-13,6,-3,-8,0,21,166,-21,41,0,220,168,1,-4,174,166,156,174,1,12094
136.253838062,1,5,-1,-2,-12,3,-2,-12,4,110,-2,2,46,1,215,168,1,-4,169,167,150,183,1,12095
136.263015032,1,5,-1,2,-5,-3,0,-8,0,-77,-131,162,40,-1,213,168,1,-4,163,168,164,175,1,12096
136.272017002,1,5,-1,-2,-12,-4,0,-8,-3,77,-25,43,40,-5,212,168,1,-4,165,166,160,179,1,12097
136.281921148,1,5,-1,-1,-8,3,-2,-10,0,26,-6,95,38,-5,221,168,1,-4,171,165,154,180,1,12098
136.309180021,1,5,-1,0,-4,2,-1,-6,2,-88,25,32,30,3,218,168,1,-3,167,169,163,171,1,12099
136.318948984,1,5,-1,1,10,0,0,3,1,76,-56,83,28,5,216,168,1,-3,165,170,178,158,1,12100
136.328166008,1,5,-1,4,13,-4,3,12,-2,-51,1,-95,22,3,210,168,1,-3,159,171,188,152,1,12101
136.337110996,1,5,-1,-2,2,-4,1,7,-4,31,49,190,20,8,211,168,1,-3,165,165,172,167,1,12102
136.365047932,1,5,-1,0,0,0,-1,1,-2,19,72,31,20,10,215,168,1,-3,170,163,163,174,1,12103
136.37418294,1,6,-1,-2,11,-7,-1,5,-4,99,60,34,24,11,211,168,1,-3,165,163,179,163,1,12104
136.387176037,1,6,-1,0,11,2,-1,11,-2,72,-145,50,27,8,209,168,1,-3,169,167,181,153,1,12105
136.392874002,1,6,-1,-1,15,5,-1,13,4,-8,217,-78,28,19,201,168,1,-3,169,169,180,152,1,12106
136.420899153,1,6,-1,-5,13,11,-3,14,8,52,24,178,31,15,203,168,1,-3,176,167,177,150,1,12107
136.430295944,1,6,-1,4,22,-7,0,18,1,16,-97,-14,30,15,197,168,1,-3,162,166,190,152,1,12108
136.439907074,1,6,-1,1,20,-2,2,21,-4,19,-10,72,29,16,190,168,1,-3,160,172,191,147,1,12109
136.449221134,2,7,-1,1,22,5,1,21,1,41,-101,247,32,13,188,168,1,-3,168,170,184,147,1,12110
136.476998091,2,7,-1,0,18,4,0,20,5,8,74,136,27,23,188,168,0,-2,168,170,184,149,1,12111
136.485965967,2,7,-1,2,18,1,1,18,2,107,-189,40,27,16,184,168,0,-2,165,170,182,153,1,12112
136.494982004,2,7,-1,0,5,5,1,11,3,12,-31,-98,26,15,173,168,0,-2,167,171,170,162,1,12113
136.505509138,2,7,-1,-1,6,3,0,5,4,77,30,95,24,18,171,168,0,-2,170,167,165,167,1,12114
136.531991959,2,7,-1,-2,-3,7,-2,1,5,59,33,168,24,13,180,168,0,-2,173,168,161,169,1,12115
136.54193902,2,7,-1,0,-7,-7,-1,-5,0,237,-180,211,33,8,182,168,0,-2,164,164,158,184,1,12116
136.551466942,2,7,-1,-1,-3,0,-1,-5,-3,-48,85,230,29,11,177,168,0,-2,167,167,160,175,1,12117
136.559988022,2,7,-1,0,0,0,0,-1,0,-119,-67,159,27,3,176,168,0,-2,166,168,168,168,1,12118
136.587911129,2,7,-1,0,-7,-10,0,-3,-5,-13,25,177,24,15,170,168,0,-2,161,165,166,179,1,12119
136.59732914,2,7,-1,0,11,5,0,2,-2,-27,-112,80,24,4,165,168,0,-2,168,170,171,161,1,12120
136.606915951,2,7,-1,-3,-8,-6,-1,1,0,149,-17,174,29,4,168,168,0,-2,166,162,169,172,1,12121
136.616095066,2,7,-1,0,-2,1,-1,-5,-2,44,31,126,27,-1,172,168,0,-2,169,167,154,180,1,12122
136.644133091,2,7,-1,3,7,-3,1,2,0,-3,-16,145,27,5,173,168,0,-2,160,171,177,161,1,12123
136.65309906,2,8,-1,0,0,1,2,4,0,96,17,241,29,7,170,168,0,-2,164,171,171,164,1,12124
136.662868023,2,8,-1,2,10,-1,1,5,0,-31,-59,170,29,7,169,168,0,-2,165,168,174,163,1,12125
136.671913147,2,8,-1,0,4,-6,1,7,-3,108,204,3,33,8,168,168,0,-2,162,167,177,164,1,12126
136.699999094,2,8,-1,1,8,1,1,6,-2,64,-215,148,34,7,176,168,0,-1,166,169,170,164,1,12127
136.708867073,2,8,-1,0,6,-7,1,7,-2,222,-83,84,39,1,173,168,0,-1,162,166,177,165,1,12128
136.722603083,2,8,-1,0,10,1,0,8,-2,128,88,78,43,8,182,168,0,-1,167,168,174,160,1,12129
136.727875948,2,8,-1,3,19,1,1,15,1,-78,-121,47,39,2,189,168,0,-1,164,171,186,149,1,12130
136.754987001,2,9,-1,1,27,7,2,23,4,-88,143,134,36,9,192,168,0,-1,166,174,192,138,1,12131
136.764845133,2,9,-1,0,20,10,1,23,8,-42,3,24,32,10,193,168,0,-1,170,172,185,143,1,12132
136.77392602,2,9,-1,1,12,-7,1,16,1,33,43,113,33,18,201,168,0,-1,162,166,178,164,1,12133
136.782859087,2,9,-1,0,3,-6,1,7,-6,150,-197,58,36,9,209,168,0,-1,162,167,168,173,1,12134
136.81092,2,9,-1,4,11,-5,2,7,-5,-112,-70,19,31,7,203,168,0,-1,161,169,174,166,1,12135
136.819972038,2,9,-1,0,-14,2,1,-1,-1,82,-81,188,35,9,210,168,0,-1,166,170,156,178,1,12136
136.829935074,2,9,-1,2,2,0,0,-5,1,-30,162,183,32,13,214,168,0,-1,166,168,156,180,1,12137
136.838914156,2,9,-1,-1,-6,0,0,-1,0,-39,-219,40,30,8,213,168,0,-1,166,168,167,169,1,12138
136.866986036,2,9,-1,-4,-17,1,-3,-11,0,124,-41,89,36,0,214,168,0,-1,172,163,145,189,1,12139
136.876076937,2,9,-1,-2,-18,0,-3,-17,0,-5,-155,197,33,-1,217,168,0,-1,169,164,144,193,1,12140
136.884945154,2,9,-1,-2,-19,-5,-2,-19,-3,56,0,167,36,-1,223,168,0,-1,166,164,149,192,1,12141
136.894946098,2,9,-1,0,-7,0,-1,-13,-2,0,-85,123,35,-5,222,168,0,-1,166,168,158,178,1,12142
136.922981977,2,9,-1,1,-4,0,0,-5,0,-53,107,-16,34,-4,214,168,0,-1,164,170,167,169,1,12143
136.93194294,2,9,-1,3,8,-1,2,2,0,-86,78,241,29,-4,219,168,0,-1,163,170,175,162,1,12144
136.941030025,2,9,-1,1,7,-3,2,8,-2,-17,-68,73,27,-2,226,168,0,-1,163,168,180,159,1,12145
136.951059103,1,8,-1,-3,-7,-1,-1,0,-2,63,68,-67,28,-5,227,168,0,-1,170,163,160,177,1,12146
136.978106976,1,8,-1,3,13,0,0,3,0,4,-203,74,27,-11,218,168,0,-1,166,169,171,164,1,12147
136.9879601,1,9,-1,0,3,1,1,8,0,108,-42,93,30,-10,227,168,0,-1,164,171,178,157,1,12148
136.996865034,1,9,-1,2,18,1,1,10,1,-38,15,218,28,-9,230,168,0,-1,167,169,177,157,1,12149
137.006072998,1,9,-1,1,20,5,2,19,3,-42,14,60,26,-6,226,168,0,-1,165,173,189,142,1,12150
137.033919096,1,9,-1,-2,1,0,0,11,3,13,54,101,26,-13,225,168,0,-1,169,165,169,166,1,12151
137.043067932,1,9,-1,1,23,0,0,12,0,23,-45,193,24,-9,229,168,0,-1,168,166,180,157,1,12152
137.051985025,1,9,-1,-1,4,-3,0,14,-1,23,-94,205,24,-11,236,168,0,-1,165,167,181,157,1,12153
137.061998129,1,9,-1,2,19,-1,0,11,-2,39,-13,19,23,-12,228,168,0,-1,165,168,176,161,1,12154
137.08992815,0,9,-1,3,21,7,2,20,3,-112,184,-145,19,-8,214,168,0,0,165,175,189,141,1,12155
137.099024057,0,9,-1,4,13,-6,3,17,0,37,-244,240,14,-10,214,168,0,0,160,169,182,159,1,12156
137.108102083,0,9,-1,2,8,-6,3,11,-6,-112,129,213,12,-15,214,168,0,0,161,167,174,168,1,12157
137.11905098,0,9,-1,-2,-3,-4,0,2,-5,67,-231,30,17,-13,211,168,0,0,168,162,163,177,1,12158
137.145048141,0,8,-1,0,-7,6,-1,-5,0,-76,252,248,16,-14,213,168,0,0,172,167,151,180,1,12159
137.154773951,0,8,-1,-3,-17,-7,-2,-12,0,136,-109,123,20,-20,214,168,0,0,166,162,152,191,1,12160
137.163936138,0,8,-1,-1,-8,4,-2,-13,-1,-38,-35,66,15,-20,205,168,0,0,171,167,151,181,1,12161
137.172986984,0,8,-1,0,-6,2,0,-7,3,-36,6,58,13,-21,196,168,0,0,167,169,162,172,1,12162
137.20098114,0,8,-1,-3,-14,0,-1,-10,1,181,178,132,18,-16,203,168,0,0,170,165,154,182,1,12163
137.209985018,0,7,-1,0,3,1,-1,-5,0,30,-21,-48,16,-24,195,168,0,0,169,166,165,170,1,12164
137.220014095,0,7,-1,-2,-10,0,0,-3,0,216,-73,49,22,-24,192,168,0,0,168,166,165,171,1,12165
137.229009151,0,7,-1,1,0,0,0,-5,0,-162,165,209,15,-25,191,168,0,0,168,166,160,177,1,12166
137.257041931,0,7,-1,2,11,3,1,5,1,-44,-169,144,13,-24,191,168,0,0,165,172,179,154,1,12167
137.266021013,-1,7,-1,5,18,0,3,14,1,45,24,16,8,-21,183,168,0,0,162,172,189,148,1,12168
137.275161028,-1,7,-1,0,10,4,2,14,1,-95,80,-97,3,-21,172,168,0,0,168,170,178,155,1,12169
137.285020113,-1,7,-1,-1,0,-3,0,5,0,244,105,107,11,-16,174,168,0,0,170,162,165,173,1,12170
137.312011957,-1,7,-1,0,3,2,0,2,0,114,121,174,16,-16,181,168,0,0,169,167,165,169,1,12171
137.321870089,-1,7,-1,-3,1,2,-1,2,2,122,-83,198,20,-18,179,168,0,0,171,165,168,166,1,12172
137.331050158,-1,7,-1,0,10,3,-1,5,2,-137,181,222,16,-15,175,168,0,0,171,166,173,160,1,12173
137.340023041,-1,7,-1,1,15,7,0,12,5,-105,-8,158,9,-10,171,168,0,0,168,172,182,149,1,12174
137.368097067,-1,7,-1,0,2,0,1,8,3,68,220,245,14,-3,177,168,0,0,166,167,172,165,1,12175
137.376852989,-1,7,-1,2,19,3,1,11,1,-78,-183,176,10,-5,170,168,0,0,167,169,178,156,1,12176
137.386045933,-1,7,-1,0,0,-1,0,9,0,152,112,136,14,-7,176,168,0,0,167,166,175,162,1,12177
137.396170139,-1,7,-1,2,4,1,0,1,0,31,-228,220,16,-7,180,168,0,0,168,168,161,173,1,12178
137.423988104,-1,7,-1,2,15,0,2,9,1,75,122,143,15,-3,188,168,0,0,164,170,182,153,1,12179
137.432960987,-1,7,0,-2,-5,3,0,4,2,-74,-32,202,13,0,188,168,0,0,171,166,166,167,1,12180
137.441862106,-1,7,0,0,2,3,-1,-1,3,-28,102,17,11,8,190,168,0,0,171,166,159,174,1,12181
137.45192194,-1,7,0,-2,-6,0,0,-1,1,-15,-30,127,11,10,191,168,0,0,168,166,164,171,1,12182
137.479125023,-1,6,0,0,-10,0,0,-8,0,84,155,15,14,11,198,168,0,0,169,166,153,182,1,12183
137.488920927,-1,6,0,-3,-16,-1,-1,-13,0,-57,-6,148,15,9,202,168,0,0,169,164,150,187,1,12184
137.498079061,-1,6,0,0,-14,0,-1,-15,-1,12,-71,97,16,9,202,168,0,0,170,164,150,186,1,12185
137.506943941,-1,6,0,1,0,2,0,-6,0,-37,-72,240,13,5,210,168,0,0,166,170,166,167,1,12186
137.534911156,-1,6,0,0,-2,0,1,0,1,3,-38,97,13,9,211,168,0,0,165,168,171,165,1,12187
137.543975115,0,6,0,2,8,1,1,2,0,-178,103,208,6,13,214,168,0,0,166,169,172,163,1,12188
137.553189993,0,6,0,1,-1,-5,2,3,-2,-8,-57,155,7,11,212,168,0,0,163,167,173,167,1,12189
137.56301713,0,6,0,-3,-9,0,-1,-5,-2,30,178,4,8,15,217,168,0,0,171,164,154,181,1,12190
137.590829134,0,5,0,1,6,5,-1,-1,2,-62,-100,213,7,11,220,168,0,0,171,168,167,165,1,12191
137.600058079,0,5,0,-1,-8,2,0,-1,3,-43,43,188,5,14,226,168,0,0,167,169,165,169,1,12192
137.609039068,0,5,0,0,7,0,0,0,1,-25,17,77,4,16,229,168,0,0,169,166,166,169,1,12193
137.618865013,0,5,0,0,9,-5,0,8,-2,33,14,192,3,17,234,168,0,0,163,166,185,155,1,12194
137.645929098,0,5,0,-3,-7,-2,-1,0,-4,115,1,23,9,12,238,168,0,0,169,163,162,175,1,12195
137.655916929,0,5,0,-2,-8,-1,-3,-8,-2,39,-63,215,9,17,237,168,0,0,171,162,153,185,1,12196
137.667032003,0,5,0,-2,-1,-1,-2,-5,-1,-11,164,124,12,18,235,168,0,0,168,165,165,172,1,12197
137.674068928,0,4,0,4,13,0,1,5,-1,13,-184,19,10,19,235,168,0,0,163,171,182,154,1,12198
137.702003956,0,4,0,2,10,0,3,12,0,-172,233,65,8,19,230,168,0,0,162,173,184,152,1,12199
137.711111069,0,5,0,2,14,1,2,12,0,-17,-81,196,4,26,238,168,0,0,166,169,179,156,1,12200
137.720157146,0,5,0,0,1,-9,1,7,-3,-35,-96,124,4,24,240,168,0,0,163,164,174,169,1,12201
137.729952097,0,4,0,-2,-5,1,-1,-2,-3,106,-101,85,8,21,241,168,0,0,171,165,156,178,1,12202
137.757918119,0,4,0,0,-6,-5,-1,-5,-1,-25,-118,144,3,14,234,168,0,0,166,165,161,179,1,12203
137.767138004,1,4,-1,0,-12,-1,0,-9,-3,24,-202,20,3,10,243,168,0,0,165,168,156,181,1,12204
137.775867939,1,4,-1,1,0,1,0,-6,0,78,25,243,0,12,241,168,0,0,166,169,163,172,1,12205
137.784989119,1,4,-1,1,0,1,1,0,1,-111,-54,-33,0,6,235,168,0,0,165,170,173,162,1,12206
137.812996149,1,4,-1,-4,-13,-2,-1,-6,0,173,11,247,6,11,231,168,0,0,169,163,157,181,1,12207
137.821947098,1,3,-1,1,5,-3,-1,-4,-3,-111,-26,170,2,10,235,168,0,0,166,165,167,172,1,12208
137.831968069,1,3,-1,-2,-6,0,0,0,-2,69,-69,249,6,6,244,168,0,0,167,167,170,166,1,12209
137.841056108,1,3,-1,1,7,4,0,0,1,-58,-111,56,-1,1,242,168,0,0,169,169,167,165,1,12210
137.868874073,1,3,-1,1,3,0,1,5,2,-66,-21,229,-5,-2,237,168,0,0,164,171,176,159,1,12211
137.880789995,1,3,-1,3,13,1,2,8,1,126,16,188,-5,0,237,168,0,0,164,171,178,157,1,12212
137.88709116,1,3,-1,1,1,-4,2,7,-1,79,-98,-67,0,-7,230,168,0,0,163,167,177,163,1,12213
137.896955967,1,3,-1,-3,-8,0,-1,-3,-2,217,-47,143,7,-8,229,168,0,0,171,163,155,180,1,12214
137.924971104,0,3,-1,1,-1,-4,-1,-4,-2,-139,40,5,2,-12,230,168,0,0,166,164,164,176,1,12215
137.933969021,0,3,-1,-2,-4,0,0,-3,-2,42,-70,29,5,-9,233,168,0,0,167,167,167,170,1,12216
137.943202972,0,3,-1,2,10,4,0,3,2,-63,-41,254,0,-13,229,168,0,0,168,170,174,158,1,12217
137.95302701,0,3,-1,0,10,3,1,10,4,-36,-15,45,-1,-8,218,168,0,0,166,171,183,150,1,12218
137.980112076,0,3,-1,-3,-4,-1,-1,3,1,129,-88,191,0,-13,220,168,0,0,170,163,165,172,1,12219
137.990062952,0,3,-1,2,10,-4,0,2,-3,64,-20,0,3,-13,214,168,0,0,165,165,173,167,1,12220
137.999017954,0,2,-1,-1,2,2,0,6,-1,182,40,-15,8,-21,207,168,0,0,167,169,176,158,1,12221
138.00801897,0,2,-1,0,-2,-3,-1,0,0,-25,-5,208,8,-20,209,168,0,0,168,163,164,175,1,12222
138.036203146,0,2,-1,1,10,5,0,3,0,-10,-44,31,6,-25,210,168,0,0,168,171,173,159,1,12223
138.045341015,0,3,-1,1,11,0,1,10,3,17,72,239,8,-23,206,168,0,0,166,169,184,151,1,12224
138.054908037,0,3,-1,0,2,3,0,7,2,61,-157,-32,9,-25,196,168,0,0,168,168,170,163,1,12225
138.065787077,0,3,-1,-3,-8,0,-1,-2,1,182,72,231,14,-22,196,168,0,0,171,163,157,179,1,12226
138.091974974,0,3,-1,0,-6,-1,-1,-7,0,65,-51,25,16,-22,200,168,0,0,168,165,158,179,1,12227
138.101078987,-1,3,-1,-2,-8,-1,-1,-7,-1,57,163,103,28,-20,191,168,0,0,167,166,162,175,1,12228
138.109833002,-1,3,-1,1,6,5,0,-1,1,-3,-41,16,28,-20,194,168,0,0,169,169,170,162,1,12229
138.119936943,-1,3,-1,0,2,2,1,4,3,-46,102,1,26,-22,194,168,0,0,166,170,175,158,1,12230
138.147899151,-1,3,-1,0,-3,-4,0,0,0,54,117,94,29,-16,198,168,0,0,167,164,165,174,1,12231
138.15715313,-1,3,-1,2,6,-3,1,1,-3,156,-207,-120,34,-23,183,168,0,0,164,167,173,166,1,12232
138.165969133,-1,3,-1,-4,-10,1,0,-1,-1,26,139,60,42,-20,177,168,0,0,171,164,163,172,1,12233
138.175832987,-1,4,-1,0,-4,-3,-1,-7,-1,31,-129,220,42,-23,177,168,0,0,169,162,158,181,1,12234
138.202857018,-2,4,-1,2,10,1,1,3,-1,39,96,145,40,-21,187,168,0,0,165,171,178,156,1,12235
138.213031054,-2,4,-1,1,9,3,1,9,2,-51,32,175,38,-18,186,168,0,0,167,170,181,152,1,12236
138.222059965,-2,5,-1,0,10,3,1,10,3,41,-8,0,39,-23,183,168,0,0,169,168,176,157,1,12237
138.230925083,-2,5,-1,-3,-1,0,-1,4,2,-32,30,133,38,-17,185,168,0,0,172,163,167,169,1,12238
138.258929014,-2,5,-1,0,4,-4,-1,1,-2,-48,-24,42,41,-24,191,168,0,0,167,163,168,172,1,12239
138.268028975,-2,5,-1,0,4,0,0,4,-2,248,41,-22,48,-21,179,168,0,0,167,167,174,162,1,12240
138.278013945,-2,6,-1,4,26,4,2,15,2,176,-66,244,53,-20,182,168,0,0,166,171,189,143,1,12241
138.287054062,-2,6,-1,5,41,5,4,33,4,-7,145,116,50,-14,190,168,0,0,163,175,212,119,1,12242
138.315011978,-2,7,-1,5,73,4,5,57,4,128,132,39,54,-8,193,168,0,0,165,173,239,93,1,12243
138.323862076,-2,9,0,8,148,19,6,110,12,-25,79,133,53,5,190,168,0,0,168,182,240,12,1,12244
138.333198071,-2,10,0,5,123,3,7,136,11,-143,-226,28,47,0,191,168,0,0,162,175,240,18,1,12245
138.34299016,-2,10,0,5,126,-10,5,125,-3,-110,99,45,47,2,193,168,0,0,160,166,240,65,1,12246
138.370988131,-2,11,0,-22,148,11,-8,137,0,-177,-73,235,38,0,199,168,0,0,193,151,240,25,1,12247
138.38005805,-2,14,0,9,99,15,-6,124,13,-9,44,218,41,8,206,168,0,0,178,169,240,58,1,12248
138.388997078,-2,14,0,4,60,-13,7,80,1,-7,-226,211,39,-1,212,168,0,0,144,179,210,136,1,12249
138.398901939,-2,14,0,-1,71,-21,1,66,-17,-52,14,117,33,1,207,168,0,0,163,154,224,129,1,12250
138.426202059,-2,14,0,5,53,12,1,62,-4,-74,57,68,32,3,209,168,0,0,171,173,216,110,1,12251
138.435971975,-2,14,0,-9,-18,17,-2,17,14,-70,97,124,28,12,208,168,0,0,180,168,136,185,1,12252
138.444910049,-1,14,0,0,-49,-4,-4,-33,6,-82,-11,157,23,7,213,168,0,0,173,158,90,240,1,12253
138.453989983,-1,14,0,-7,-65,1,-3,-57,-1,-6,-22,-52,11,2,209,168,0,0,171,165,89,240,1,12254
138.481967926,-1,13,0,-7,-83,5,-7,-74,3,61,-10,222,16,0,208,168,0,0,180,159,77,240,1,12255
138.490966082,-1,11,0,-8,-100,10,-8,-91,7,68,205,250,17,7,207,168,0,0,181,163,58,240,1,12256
138.50099206,-1,10,0,-4,-114,2,-6,-107,6,126,-108,110,22,6,210,168,0,0,175,163,48,240,1,12257
138.510241032,-1,10,0,3,-101,-16,0,-108,-6,113,137,29,26,9,216,168,0,0,157,165,68,240,1,12258
138.537821054,-1,9,0,-5,-97,-8,0,-99,-12,-25,127,191,22,15,209,168,0,0,166,163,81,240,1,12259
138.547112942,-1,7,0,4,-72,-15,0,-84,-11,-81,-102,-52,18,13,201,168,0,0,162,161,103,240,1,12260
138.55627203,-1,7,0,-5,-69,-13,0,-70,-14,249,199,227,20,17,207,168,0,0,163,161,115,230,1,12261
138.566295147,-1,7,0,5,-52,-15,0,-61,-14,-114,-212,41,18,12,210,168,0,0,161,161,123,225,1,12262
138.59393096,0,6,0,0,-31,-13,2,-42,-14,-8,-98,-116,18,10,200,168,0,0,158,165,148,199,1,12263
138.603139162,0,6,0,4,15,-15,2,-8,-14,-91,-69,10,15,7,194,168,0,0,160,163,193,154,1,12264
138.612028122,0,6,0,-8,7,0,-1,11,-7,191,49,15,18,12,195,168,0,0,173,162,194,142,1,12265
138.622550964,0,6,0,4,36,10,-1,22,5,-17,102,107,13,13,198,168,0,0,173,169,193,135,1,12266
138.649111032,0,6,0,1,49,8,3,42,9,-46,24,31,10,15,192,168,0,0,163,178,221,107,1,12267
138.658252001,0,7,0,2,74,17,2,62,13,-167,123,91,-1,14,192,168,0,0,173,175,235,87,1,12268
138.667950153,0,7,0,1,49,4,1,62,10,68,-7,181,0,14,190,168,0,0,168,170,224,108,1,12269
138.677271128,0,7,0,2,69,15,1,59,9,-30,131,202,0,15,195,168,0,0,171,175,215,109,1,12270
138.708609104,0,7,0,6,64,0,4,67,7,-215,-153,-47,-5,8,185,168,0,0,160,174,237,99,1,12271
138.713995934,0,8,0,0,47,9,3,56,4,66,-105,210,-8,11,193,168,0,0,169,173,206,122,1,12272
138.723016977,0,8,0,2,38,13,0,42,11,-111,42,18,-17,15,198,168,0,0,174,172,190,134,1,12273
138.734395027,0,8,0,-1,8,-9,0,23,2,-102,-76,144,-21,10,196,168,0,0,163,164,176,167,1,12274
138.76087904,0,7,0,2,10,-5,0,9,-7,-6,101,215,-22,16,192,168,0,0,164,166,166,174,1,12275
138.769927025,0,7,0,-5,-20,9,-1,-4,2,2,16,10,-20,22,194,168,0,0,174,168,146,182,1,12276
138.779150963,0,6,0,-3,-40,3,-4,-30,6,5,20,230,-21,23,200,168,0,0,175,162,115,218,1,12277
138.788416147,1,6,0,-3,-28,-2,-3,-34,0,-98,81,212,-23,24,195,168,0,0,169,164,131,206,1,12278
138.815911055,1,5,0,-2,-32,-3,-3,-30,-2,-12,-11,49,-22,25,189,168,0,0,168,164,143,195,1,12279
138.825133085,1,4,0,0,-37,1,-1,-35,0,-39,-4,160,-29,23,200,168,0,0,167,169,129,205,1,12280
138.834921122,1,4,0,0,-38,1,0,-38,1,73,-25,47,-32,25,202,168,0,0,167,169,127,207,1,12281
138.843908072,1,3,0,-6,-51,3,-3,-45,2,152,82,33,-28,23,199,168,0,0,174,163,118,215,1,12282
138.872022152,1,3,0,0,-38,0,-3,-44,1,11,-43,-50,-31,19,191,168,0,0,169,166,125,210,1,12283
138.881068945,1,1,0,-3,-37,2,-1,-38,1,-118,-85,58,-33,8,195,168,0,0,168,169,136,197,1,12284
138.893092155,1,1,0,-2,-25,1,-3,-31,2,-148,-128,252,-33,10,195,168,0,0,172,164,142,192,1,12285
138.900104046,1,0,0,-2,-21,-3,-2,-23,-1,168,208,208,-26,13,199,168,0,0,167,165,154,184,1,12286
138.928111076,2,0,0,1,-20,-5,0,-20,-4,-24,-23,128,-22,14,196,168,0,0,163,168,153,186,1,12287
138.936973095,2,0,0,0,5,0,0,-7,-2,49,88,235,-21,9,190,168,0,0,165,170,173,163,1,12288
138.946099997,2,0,0,3,20,-5,1,13,-2,-115,120,167,-24,24,189,168,0,0,163,168,200,139,1,12289
138.956099033,2,0,0,0,22,1,1,21,-2,-53,14,172,-17,24,190,168,0,0,165,171,196,138,1,12290
138.986894131,2,0,0,4,15,-3,2,18,-1,149,20,-161,-12,23,178,168,0,0,162,169,186,152,1,12291
138.992892981,2,0,0,-3,13,-2,0,14,-2,76,-90,193,-8,12,180,168,0,0,167,166,180,157,1,12292
139.002203941,2,0,0,2,19,-7,0,16,-4,-70,-127,235,-8,16,182,168,0,0,164,165,189,152,1,12293
139.011096954,2,0,0,1,30,4,2,24,-1,-97,-50,24,-4,21,190,168,0,0,164,174,198,134,1,12294
139.039078951,2,0,0,0,25,-4,0,27,0,79,-11,-44,-3,21,183,168,0,0,165,166,200,139,1,12295
139.047984123,2,0,0,-1,10,0,-1,18,-2,-31,-5,58,-6,16,179,168,0,0,169,166,178,157,1,12296
139.057860136,3,0,0,0,-7,2,-1,1,1,-112,130,104,-12,22,178,168,0,0,168,168,156,177,1,12297
139.067106009,3,0,0,0,-9,-6,0,-8,-1,-41,-97,164,-15,10,182,168,0,0,163,166,155,186,1,12298
139.094890118,3,0,0,1,5,3,0,-1,-1,-25,41,64,-15,14,179,168,0,0,166,171,171,161,1,12299
139.104196072,3,0,0,-1,-27,-4,0,-10,0,-2,-16,10,-14,16,193,168,0,0,165,166,154,185,1,12300
139.112931967,3,0,0,0,-22,-1,0,-24,-3,6,66,200,-20,13,199,168,0,0,166,167,135,202,1,12301
139.123108149,3,0,0,-2,-38,-7,0,-30,-4,-81,-22,204,-19,18,196,168,0,0,164,165,139,202,1,12302
139.149882078,3,-1,0,0,-32,-7,-1,-35,-7,127,-200,110,-15,15,208,168,0,0,164,164,134,207,1,12303
139.159944057,3,-1,0,-2,-38,-4,-1,-35,-5,221,99,240,-8,19,214,168,0,0,166,165,137,202,1,12304
139.1689291,3,-2,0,-2,-22,4,-2,-30,0,-90,51,198,-15,19,225,168,0,0,171,167,143,189,1,12305
139.178493023,3,-2,0,2,-7,-3,0,-15,0,9,-169,240,-14,13,229,168,0,0,162,169,170,169,1,12306
139.20610404,3,-2,0,-2,-19,0,0,-13,-2,179,146,192,-8,16,233,168,0,0,166,168,159,177,1,12307
139.215240002,3,-2,0,-2,-2,0,-2,-10,0,71,14,144,-2,13,234,168,0,0,171,164,162,173,1,12308
139.225006104,3,-2,0,-2,-12,-5,-2,-7,-2,3,8,10,-4,13,230,168,0,0,166,164,167,172,1,12309
139.234284163,3,-2,0,2,0,-5,0,-6,-5,-39,-213,185,-4,5,223,168,0,0,161,168,167,173,1,12310
139.26205802,3,-2,0,0,7,0,0,3,-2,-59,121,-38,0,12,223,168,0,0,165,170,182,153,1,12311
139.271180153,3,-2,0,4,10,-3,1,9,-1,-107,-41,138,-5,13,228,168,0,0,162,170,185,154,1,12312
139.280022144,3,-2,0,-1,2,-7,1,6,-5,121,5,137,0,6,224,168,0,0,161,167,178,164,1,12313
139.291260004,3,-1,0,0,3,0,0,2,-3,81,-48,142,5,13,224,168,0,0,169,166,169,166,1,12314
139.318063974,3,-1,0,0,4,1,0,3,0,-25,55,-77,4,5,217,168,0,0,166,170,173,161,1,12315
139.327700138,3,-1,0,1,1,0,1,2,0,141,-207,152,8,-6,220,168,0,0,164,170,172,164,1,12316
139.336009979,3,-1,0,0,11,5,0,6,2,59,249,216,9,0,220,168,0,0,168,171,177,154,1,12317
139.34501195,3,-1,0,0,13,3,0,12,4,106,-89,62,14,-4,216,168,0,0,168,169,185,148,1,12318
139.372996092,2,-1,0,2,0,0,1,6,1,17,60,-77,21,-2,213,168,0,0,164,170,171,166,1,12319
139.382982969,2,-1,0,0,-4,0,1,-2,0,29,107,106,23,0,212,168,0,0,165,169,159,177,1,12320
139.391885042,2,0,0,0,-7,0,0,-6,0,80,-53,191,23,-7,215,168,0,0,167,168,161,175,1,12321
139.401077032,2,0,0,3,0,-8,1,-3,-3,-43,197,42,18,-4,209,168,0,0,160,168,172,171,1,12322
139.429090977,2,0,0,0,-1,-3,1,0,-5,37,-197,-22,19,-8,210,168,0,0,164,167,173,165,1,12323
139.437103987,2,0,0,0,-8,-1,0,-4,-2,34,86,66,23,-3,210,168,0,0,167,166,162,175,1,12324
139.446882963,2,0,0,0,-4,-8,0,-6,-5,39,31,120,28,0,207,168,0,0,163,165,165,178,1,12325
139.455983162,2,0,0,-4,-19,0,-2,-12,-4,172,-103,50,28,-7,209,168,0,0,171,163,154,183,1,12326
139.483920097,2,0,0,1,-9,2,-1,-14,0,-74,65,-78,26,-5,198,168,0,0,168,168,153,181,1,12327
139.492874145,1,0,0,0,-26,-5,0,-17,-1,89,-183,121,27,-12,201,168,0,0,162,168,152,188,1,12328
139.502184153,1,0,0,1,-6,-3,0,-16,-4,61,119,251,32,-12,197,168,0,0,164,167,156,183,1,12329
139.5120821,1,0,0,0,-14,-2,0,-10,-3,-40,-94,125,32,-15,196,168,0,0,165,167,165,173,1,12330
139.539009094,1,0,0,0,-18,-1,0,-16,-1,181,-17,128,33,-15,203,168,0,0,166,167,148,188,1,12331
139.548857927,1,0,-1,-2,-17,-8,0,-17,-4,83,29,236,33,-12,204,168,0,0,164,163,154,189,1,12332
139.55806303,1,0,-1,0,-12,-1,0,-14,-5,109,-137,175,38,-13,209,168,0,0,167,166,158,179,1,12333
139.567081928,0,0,-1,0,0,6,0,-6,2,49,68,238,41,-10,208,168,0,0,169,170,168,163,1,12334
139.597126961,0,1,-1,-1,5,7,0,2,6,8,195,139,40,-5,213,168,0,0,171,169,176,154,1,12335
139.604377031,0,1,0,-1,2,1,-1,4,4,-114,-19,-85,38,-5,209,168,0,0,168,167,173,162,1,12336
139.614011049,0,1,0,-1,0,0,-1,0,0,14,-71,133,41,-10,210,168,0,0,168,167,167,169,1,12337
139.622866154,0,2,0,0,-2,0,0,-1,0,-48,169,72,41,2,207,168,0,0,167,167,165,171,1,12338
139.651123047,0,2,0,-1,8,5,-1,3,2,-82,-60,140,39,-6,216,168,0,0,171,168,173,158,1,12339
139.659999132,0,2,0,0,8,0,-1,8,3,17,-100,224,40,-8,215,168,0,0,169,166,181,155,1,12340
139.668905973,0,3,0,-3,7,4,-2,8,2,-81,77,102,37,-8,206,168,0,0,171,167,174,158,1,12341
139.679275036,0,3,0,3,4,7,0,6,6,15,189,105,40,-2,210,168,0,0,168,172,169,160,1,12342
139.707042933,0,3,0,3,5,-8,3,4,0,23,124,213,37,5,212,168,0,0,157,171,174,168,1,12343
139.716292143,0,3,-1,2,-2,-7,3,1,-7,-96,-206,203,29,-2,211,168,0,0,161,167,169,172,1,12344
139.725058079,0,3,-1,-1,-11,4,0,-6,-1,-65,242,75,30,2,208,168,0,0,171,167,153,179,1,12345
139.734982967,0,4,-1,-2,-10,4,-1,-11,4,-60,-9,63,28,6,204,168,0,0,173,165,152,181,1,12346
139.763062954,0,4,-1,0,-21,-2,-1,-16,0,18,52,128,24,3,209,168,0,0,167,165,149,189,1,12347
139.772096157,0,3,-1,-4,-37,-1,-2,-29,-2,-129,-83,-72,19,1,203,168,0,0,170,163,128,209,1,12348
139.780984163,0,3,-1,-2,-42,-3,-3,-40,-2,61,113,171,21,4,207,168,0,0,170,161,122,217,1,12349
139.790992022,0,3,-1,-4,-49,0,-3,-45,-2,-80,-68,209,20,7,214,168,0,0,170,163,120,217,1,12350
139.818094015,0,3,-1,0,-34,-8,-2,-42,-4,31,-39,208,22,3,227,168,0,0,165,163,134,208,1,12351
139.828047991,0,2,-1,-1,-38,2,0,-36,-2,8,59,171,25,6,221,168,0,0,167,169,136,197,1,12352
139.837105989,0,2,-1,-2,-50,5,-1,-44,4,9,10,-162,22,6,214,168,0,0,171,167,117,214,1,12353
139.84596014,0,2,-1,-4,-58,-10,-3,-54,-2,144,72,217,23,9,216,168,0,0,167,159,112,232,1,12354
139.874175072,0,2,-1,3,-51,-2,0,-55,-6,16,-143,38,25,4,225,168,0,0,164,168,116,222,1,12355
139.883409023,0,1,-1,0,-49,4,2,-50,1,116,80,89,24,11,223,168,0,0,165,173,122,210,1,12356
139.892894983,0,1,-1,0,-35,-11,0,-42,-3,51,-113,41,24,2,225,168,0,0,163,162,139,206,1,12357
139.90209794,0,1,-1,-9,-46,-6,-4,-41,-9,149,239,84,25,10,232,168,0,0,172,156,133,208,1,12358
139.930021048,0,1,-1,-1,-40,4,-5,-43,0,-30,-79,3,17,7,241,168,0,0,174,164,123,210,1,12359
139.939682007,0,0,-1,2,-35,0,0,-38,2,136,-145,206,20,0,237,168,0,0,162,173,137,199,1,12360
139.947890997,0,0,-1,-2,-26,-10,0,-30,-5,78,76,138,20,10,236,168,0,0,163,162,150,195,1,12361
139.957880974,0,0,-1,-1,-22,-2,-1,-24,-6,-78,123,74,19,8,243,168,0,0,169,163,152,186,1,12362
139.98596096,0,0,-1,3,-34,-12,0,-28,-7,-5,-175,79,18,9,252,168,0,0,159,165,143,203,1,12363
139.996308088,0,0,-1,-1,-42,-2,0,-38,-7,210,-251,125,22,0,253,168,0,0,165,167,124,213,1,12364
140.003926992,0,0,-1,1,-32,0,0,-37,-1,77,139,209,23,3,255,168,0,0,167,166,134,202,1,12365
140.014012098,0,0,-1,-6,-37,1,-2,-35,0,25,-121,42,20,3,249,168,0,0,171,164,137,198,1,12366
140.040986061,0,0,-1,-4,-57,-12,-5,-47,-5,17,25,52,28,8,2,168,0,0,170,154,118,228,1,12367
140.050915003,0,-1,-1,-9,-63,-4,-6,-60,-8,76,102,1,28,22,255,168,0,0,173,158,103,237,1,12368
140.060096025,0,-1,-1,0,-63,0,-4,-63,-1,88,-253,248,29,12,255,168,0,0,170,165,105,230,1,12369
140.068886042,0,-1,-1,0,-53,-9,0,-58,-4,199,-32,230,35,14,8,168,0,0,159,167,121,223,1,12370
140.097039938,0,-1,-1,-1,-56,4,0,-55,-2,132,143,144,33,18,15,168,0,0,169,168,118,215,1,12371
140.106270075,0,-2,-1,-5,-60,1,-3,-58,2,-41,99,74,30,20,18,168,0,0,173,162,110,225,1,12372
140.114979982,1,-2,-1,2,-61,-10,-1,-61,-4,58,-254,212,29,17,12,168,0,0,162,163,113,232,1,12373
140.125388145,1,-2,-1,-2,-48,1,0,-55,-4,153,153,189,32,19,17,168,0,0,166,169,122,213,1,12374
140.15298295,1,-2,-1,-4,-57,-3,-3,-52,0,98,-200,22,34,9,14,168,0,0,171,160,122,217,1,12375
140.162071943,1,-3,-1,-3,-50,0,-3,-54,-1,-59,-241,242,35,3,23,168,0,0,170,164,117,219,1,12376
140.17109704,1,-2,-1,-3,-59,-14,-3,-55,-7,53,-225,197,36,0,24,168,0,0,164,159,122,226,1,12377
140.181046009,1,-2,-1,-4,-43,-3,-3,-51,-8,-40,253,250,36,2,22,168,0,0,169,162,125,214,1,12378
140.20828104,1,-2,-1,2,-39,-9,0,-41,-6,-34,-214,93,38,-1,15,168,0,0,161,165,142,202,1,12379
140.217901945,0,-3,-1,-4,-46,-2,0,-43,-5,-88,-15,-39,35,-6,8,168,0,0,166,165,128,210,1,12380
140.227136135,0,-3,-1,3,-50,-10,0,-48,-6,117,-130,150,40,-11,16,168,0,0,163,163,123,222,1,12381
140.235985994,0,-3,-1,0,-40,4,1,-45,-2,69,88,45,41,-13,14,168,0,0,165,172,127,206,1,12382
140.263998985,0,-2,-1,-1,-41,-5,0,-41,0,15,-190,33,41,-21,3,168,0,0,167,162,136,205,1,12383
140.273023128,0,-3,-2,3,-39,-8,0,-40,-6,80,-251,-102,45,-22,252,168,0,0,161,166,135,209,1,12384
140.282818079,0,-3,-2,-4,-52,-3,0,-45,-5,124,169,107,57,-24,252,168,0,0,167,164,123,216,1,12385
140.291983128,0,-2,-2,-2,-41,7,-3,-46,2,144,154,74,62,-20,253,168,0,0,176,164,121,210,1,12386
140.319978952,0,-2,-2,1,-35,-4,0,-38,1,223,-126,-44,67,-24,236,168,0,0,163,166,142,199,1,12387
140.328984976,0,-2,-2,-3,-42,-8,-1,-38,-6,71,-154,-12,72,-26,237,168,0,0,164,162,135,208,1,12388
140.338057995,0,-2,-2,-3,-46,-1,-3,-44,-5,56,208,16,78,-24,240,168,0,0,171,161,123,215,1,12389
140.348830938,0,-1,-2,1,-49,-7,-1,-48,-4,167,-205,180,84,-27,232,168,0,0,163,164,124,219,1,12390
140.375898123,0,-1,-2,-4,-39,0,-1,-44,-3,90,-100,172,86,-29,225,168,0,0,169,164,130,207,1,12391
140.385149956,0,-1,-2,1,-24,-6,-1,-31,-3,149,108,185,89,-28,232,168,0,0,166,162,152,190,1,12392
140.395125151,-1,0,-2,-3,-26,-2,-1,-25,-4,174,248,37,93,-22,243,168,0,0,167,165,151,188,1,12393
140.403963089,-1,0,-2,-2,-26,-7,-2,-26,-4,68,-219,71,92,-29,240,168,0,0,168,159,146,197,1,12394
140.431949139,-1,0,-2,1,-4,-3,0,-15,-5,109,-81,115,94,-27,242,168,0,0,164,166,164,176,1,12395
140.440906048,-1,0,-2,1,19,2,1,7,0,112,62,142,94,-28,243,168,0,0,165,169,193,142,1,12396
140.450161934,-1,1,-2,0,22,0,0,20,1,46,-195,111,94,-30,238,168,0,0,167,166,199,138,1,12397
140.459252119,-1,2,-2,5,35,5,2,28,2,212,-26,125,95,-36,233,168,0,0,165,172,200,133,1,12398
140.486958027,-1,3,-2,4,40,4,5,38,4,102,181,175,99,-30,231,168,0,0,162,174,209,124,1,12399
140.496351004,-1,4,-2,7,71,6,6,56,5,12,105,134,95,-24,229,168,0,0,163,175,233,98,1,12400
140.505898952,-2,5,-2,8,69,14,8,70,10,-128,-180,169,90,-30,223,168,0,0,164,181,240,85,1,12401
140.515058994,-2,6,-2,3,67,15,5,68,14,226,125,97,98,-24,224,168,0,0,170,176,223,101,1,12402
140.543002129,-2,7,-2,8,70,6,5,68,11,115,-11,167,101,-26,226,168,0,0,165,174,229,102,1,12403
140.55195713,-2,8,-2,1,37,-6,4,53,0,-79,-73,238,94,-21,223,168,0,0,161,167,207,135,1,12404
140.561108112,-2,9,-2,-1,52,6,0,44,0,59,174,137,93,-14,227,168,0,0,175,164,198,133,1,12405
140.570913076,-2,10,-2,1,44,10,0,48,8,183,-45,77,97,-19,234,168,0,0,172,170,209,119,1,12406
140.597913027,-2,10,-2,-5,43,-19,-1,44,-4,-65,-64,-132,89,-27,223,168,0,0,163,155,211,142,1,12407
140.607886076,-2,11,-2,3,11,-10,0,27,-14,-16,-7,101,86,-37,220,168,0,0,163,162,181,164,1,12408
140.617012978,-2,11,-2,0,12,-2,2,11,-6,87,-25,183,86,-31,218,168,0,0,162,169,164,175,1,12409
140.626441956,-2,12,-2,0,-8,-10,0,1,-6,111,-237,52,84,-36,213,168,0,0,165,160,162,184,1,12410
140.654273987,-3,12,-2,-3,-10,-4,-1,-9,-7,-12,-220,221,81,-45,209,168,0,0,170,160,147,193,1,12411
140.663100004,-3,12,-2,-6,-27,0,-4,-18,-1,144,87,52,85,-45,202,168,0,0,175,158,138,199,1,12412
140.672912121,-3,12,-2,0,-22,7,-3,-25,3,118,209,215,87,-34,208,168,0,0,173,166,132,199,1,12413
140.681919098,-3,12,-2,4,-20,-2,2,-21,2,107,-148,116,86,-41,207,168,0,0,160,171,147,192,1,12414
140.709856033,-4,12,-2,-1,-21,1,1,-21,0,65,-26,157,85,-37,210,168,0,0,167,167,143,193,1,12415
140.719587088,-4,12,-2,-1,-15,5,-1,-18,3,80,215,241,88,-26,210,168,0,0,175,163,146,186,1,12416
140.728242159,-4,13,-2,-3,-16,0,-2,-15,2,102,-23,232,89,-20,204,168,0,0,171,162,151,187,1,12417
140.737931967,-4,13,-2,-1,-5,-2,-2,-11,-1,73,-25,136,92,-27,208,168,0,0,169,162,158,181,1,12418
140.765058994,-4,13,-2,1,12,0,0,3,-1,92,109,200,95,-19,211,168,0,0,166,167,179,158,1,12419
140.774953127,-4,14,-2,-1,20,3,0,16,1,63,77,133,99,-11,215,168,0,0,169,166,189,146,1,12420
140.784023046,-4,14,-2,-1,25,3,-1,22,3,-79,59,73,94,-6,207,168,0,0,172,164,189,145,1,12421
140.793056965,-4,15,-2,-2,22,3,-1,23,3,250,15,128,99,-1,209,168,0,0,172,164,185,149,1,12422
140.820942163,-4,15,-2,2,32,3,0,27,3,33,-170,206,99,-1,219,168,0,0,168,167,191,144,1,12423
140.830188036,-4,16,-2,0,37,5,1,34,4,165,-100,-46,101,2,221,168,0,0,168,169,200,133,1,12424
140.839156151,-3,16,-2,1,54,12,1,45,8,115,193,24,95,3,219,168,0,0,172,171,211,116,1,12425
140.850561142,-3,17,-2,3,50,7,2,52,9,5,120,181,91,2,215,168,0,0,167,172,214,116,1,12426
140.87699604,-3,17,-2,1,43,1,2,46,4,69,253,105,94,11,232,168,0,0,166,168,201,134,1,12427
140.886326075,-3,18,-2,2,45,1,2,44,1,146,-15,169,96,8,236,168,0,0,167,168,201,134,1,12428
140.894984961,-3,19,-2,0,22,6,1,33,4,-55,38,172,87,4,234,168,0,0,170,169,183,149,1,12429
140.904904127,-3,19,-2,0,28,8,0,25,7,53,41,182,84,17,240,168,0,0,173,167,175,155,1,12430
140.931888103,-2,19,-2,2,16,1,1,22,4,-5,-15,34,81,12,243,168,0,0,166,169,179,156,1,12431
140.942402124,-2,19,-2,-2,-1,0,0,7,1,137,190,92,81,14,241,168,0,0,168,165,156,181,1,12432
140.950968981,-2,19,-2,0,5,2,0,2,1,138,36,61,80,9,241,168,0,0,170,165,158,177,1,12433
140.960057974,-2,19,-2,0,2,-3,0,4,0,-10,-126,91,78,11,242,168,0,0,164,166,168,171,1,12434
140.987837076,-2,19,-2,-2,-2,0,0,0,-1,172,-101,13,80,5,239,168,0,0,169,164,158,179,1,12435
140.997251034,-2,19,-2,0,-7,1,-1,-4,0,-91,6,30,75,10,236,168,0,0,170,164,152,184,1,12436
141.006178141,-2,19,-2,-2,-11,-8,-1,-9,-3,116,-172,237,76,10,240,168,0,0,166,161,152,191,1,12437
141.015978098,-1,19,-2,0,-3,0,-1,-7,-4,36,42,136,72,12,240,168,0,0,169,164,156,180,1,12438
141.043941975,-1,18,-2,1,2,3,0,0,1,53,-51,217,71,6,241,168,0,0,167,169,166,168,1,12439
141.05318594,-1,19,-2,1,10,2,1,6,2,237,146,98,76,7,240,168,0,0,166,169,172,163,1,12440
141.062062979,-1,19,-1,1,17,5,1,13,4,105,-112,12,82,9,236,168,0,0,168,170,178,154,1,12441
141.070970058,-1,19,-1,-2,0,0,0,8,2,122,78,68,86,1,229,168,0,0,170,164,165,171,1,12442
141.099039078,-1,19,-1,-1,2,4,-2,1,2,139,251,59,87,14,226,168,0,0,172,165,154,178,1,12443
141.108096123,-1,19,-1,0,11,-1,0,7,1,141,-51,65,92,8,228,168,0,0,166,166,174,164,1,12444
141.118063927,-1,19,-1,0,19,-6,0,15,-4,197,171,57,96,2,220,168,0,0,165,163,186,156,1,12445
141.126970053,-1,19,-1,2,28,4,0,23,-1,-56,-78,75,90,7,213,168,0,0,167,170,189,144,1,12446
141.154999018,-1,19,-1,-2,12,-3,0,20,0,121,147,163,101,13,221,168,0,0,166,164,179,161,1,12447
141.164010048,0,20,-1,0,46,9,0,29,2,93,109,57,104,16,220,168,0,0,172,169,193,136,1,12448
141.17289114,0,20,-1,0,22,0,0,34,4,193,-14,-32,106,10,214,168,0,0,165,168,198,139,1,12449
141.18296814,0,21,-1,3,39,4,2,31,2,103,210,171,106,21,211,168,0,0,165,171,186,148,1,12450
141.209900141,0,21,-1,1,43,14,2,41,9,-27,-196,211,106,21,211,168,0,0,170,175,203,122,1,12451
141.219949961,0,22,-1,5,31,-3,3,37,5,0,-40,25,102,18,210,168,0,0,162,169,194,146,1,12452
141.229074001,0,22,-1,3,36,0,4,33,-2,-12,111,227,99,16,204,168,0,0,162,171,190,147,1,12453
141.238077164,0,22,-1,0,10,-3,1,23,-2,150,-43,125,100,18,204,168,0,0,166,165,175,165,1,12454
141.266065121,0,23,-1,1,16,2,1,13,0,39,-19,112,99,19,209,168,0,0,167,169,163,171,1,12455
141.27511096,0,23,-1,-4,2,0,-1,9,0,204,-113,218,102,10,209,168,0,0,170,163,166,171,1,12456
141.284075975,0,23,-1,1,7,-1,-1,5,-1,69,221,107,101,16,212,168,0,0,167,165,162,176,1,12457
141.293972015,0,23,-1,3,9,-3,2,8,-2,-18,-38,47,99,10,210,168,0,0,160,171,171,168,1,12458
141.321871996,0,23,-1,0,6,-5,1,8,-4,3,-36,132,97,6,208,168,0,0,164,166,169,171,1,12459
141.33110714,0,23,-1,1,4,2,0,5,-1,-43,19,105,94,5,207,168,0,0,168,168,162,172,1,12460
141.34001112,0,23,-1,-2,0,-1,0,2,0,112,159,16,99,7,212,168,0,0,167,165,159,179,1,12461
141.349915028,0,23,-1,0,4,6,-1,2,2,50,-201,2,94,-4,209,168,0,0,171,168,159,172,1,12462
141.377032042,0,23,-1,3,21,-1,1,13,2,144,-59,193,97,-1,203,168,0,0,162,170,182,156,1,12463
141.387128115,0,24,-1,0,17,4,2,19,1,0,141,184,93,4,215,168,0,0,166,171,182,151,1,12464
141.39594698,0,24,-1,2,23,-1,1,20,1,88,42,154,92,0,218,168,0,0,165,167,181,157,1,12465
141.405005932,0,24,-1,1,27,6,1,25,2,106,21,141,94,4,217,168,0,0,167,171,185,146,1,12466
141.433032036,0,24,-1,0,20,0,0,23,2,108,-93,148,89,-10,212,168,0,0,166,167,181,156,1,12467
141.442242146,0,24,-1,2,18,-6,1,19,-3,168,105,215,90,0,213,168,0,0,162,167,176,165,1,12468
141.451878071,0,24,-1,2,26,4,2,22,0,15,-111,182,91,-4,213,168,0,0,165,172,181,152,1,12469
141.460958004,0,24,-1,2,22,-1,2,24,1,42,62,176,91,-10,207,168,0,0,164,168,185,153,1,12470
141.490411997,0,25,-1,0,26,5,1,24,1,-22,11,110,91,-3,202,168,0,0,168,170,180,152,1,12471
141.498341084,0,25,-1,0,19,1,0,22,3,179,145,162,92,-4,204,168,0,0,168,167,179,156,1,12472
141.506891012,0,25,-1,2,25,6,1,22,3,-39,-85,0,87,-14,196,168,0,0,167,171,177,154,1,12473
141.516891956,0,25,-1,-3,12,5,0,19,6,53,16,152,89,-4,197,168,0,0,171,167,172,160,1,12474
141.543915987,0,25,-1,-2,10,5,-3,11,5,68,121,69,86,7,199,168,0,0,174,164,162,170,1,12475
141.554005146,0,25,-1,0,9,-6,-1,9,0,41,36,69,89,2,193,168,0,0,165,164,169,172,1,12476
141.562845945,0,25,-1,1,16,0,0,12,-3,109,-142,144,89,2,191,168,0,0,164,169,174,163,1,12477
141.571913004,0,25,-1,3,20,-1,2,18,-1,-147,60,59,85,9,189,168,0,0,162,171,182,155,1,12478
141.599961996,0,25,-1,0,5,0,2,13,0,46,-6,134,85,10,193,168,0,0,165,169,166,169,1,12479
141.609162092,0,26,-1,0,25,5,0,15,3,68,-15,176,80,6,195,168,0,0,170,168,174,159,1,12480
141.618844032,0,26,-1,-2,3,-6,-1,14,0,49,-205,80,79,4,203,168,0,0,167,162,174,167,1,12481
141.628016949,0,25,-1,0,6,2,-1,5,-1,37,127,234,70,5,214,168,0,0,169,166,155,180,1,12482
141.65607214,0,25,-1,2,13,-6,1,10,-2,-36,-149,60,66,-4,214,168,0,0,161,168,176,166,1,12483
141.665218115,0,25,-1,-3,7,6,0,10,0,110,153,156,65,7,210,168,0,0,171,168,167,164,1,12484
141.67521596,0,25,-1,2,15,1,0,11,3,-64,-125,150,59,0,212,168,0,0,168,166,170,165,1,12485
141.684005976,0,25,-1,0,7,-4,0,11,-1,180,91,51,65,4,218,168,0,0,163,167,172,169,1,12486
141.712092161,0,25,-1,0,11,1,0,9,-1,68,-102,204,57,-2,219,168,0,0,168,167,165,170,1,12487
141.720935106,0,24,-1,-2,5,1,0,8,1,228,-90,13,60,-7,224,168,0,0,169,166,166,169,1,12488
141.729896069,0,24,-1,0,15,6,-1,10,3,84,131,183,58,2,236,168,0,0,170,168,169,163,1,12489
141.740132093,0,24,-1,5,27,7,3,21,6,44,-228,190,56,-8,243,168,0,0,163,176,187,144,1,12490
141.76859808,0,24,-1,1,33,5,3,30,6,-9,215,122,57,2,241,168,0,0,165,174,193,138,1,12491
141.776864052,0,24,-1,2,32,10,2,32,7,-76,58,100,55,4,243,168,0,0,170,172,188,139,1,12492
141.786208153,0,24,-1,0,19,-3,1,25,3,114,185,147,58,6,241,168,0,0,164,166,180,160,1,12493
141.795077085,0,24,-1,0,18,3,0,18,0,143,-40,213,58,6,236,168,0,0,168,168,170,164,1,12494
141.823056936,0,23,-1,6,28,-1,3,23,0,27,11,149,57,7,231,168,0,0,160,172,187,151,1,12495
141.832230091,0,23,-1,2,5,0,4,17,0,47,-251,147,53,3,236,168,0,0,162,172,170,166,1,12496
141.841979027,0,23,-1,3,17,1,2,11,0,41,90,193,53,7,231,168,0,0,166,169,165,170,1,12497
141.850938082,0,23,-1,-1,5,2,0,11,1,-42,-224,195,52,8,229,168,0,0,168,167,170,164,1,12498
141.879043102,0,23,-1,-2,0,0,-1,2,0,29,171,14,53,14,232,168,0,0,171,163,154,182,1,12499
141.890529156,0,22,-1,-1,-3,-3,-1,-2,-1,-38,-36,160,53,12,233,168,0,0,167,164,155,184,1,12500
141.903924942,0,22,-1,0,1,4,0,-1,0,-64,78,215,49,10,238,169,0,0,169,170,159,175,1,12501
141.912940025,0,22,-1,4,12,-3,2,6,0,76,-74,225,49,13,244,169,0,0,161,172,176,165,1,12502
141.940995932,0,21,-1,0,5,-1,2,9,-2,85,154,56,48,19,241,169,0,0,165,170,172,167,1,12503
141.950591087,1,21,-1,0,1,-1,0,3,-1,-50,-114,237,46,12,236,169,0,0,169,166,160,179,1,12504
141.959056139,1,21,-1,0,0,0,0,0,0,90,49,0,46,19,232,169,0,0,168,169,159,179,1,12505
141.968877077,1,20,-1,1,1,2,0,0,1,110,-53,95,47,4,237,169,0,0,167,171,161,175,1,12506
141.995914936,1,20,-1,2,12,-4,2,6,0,136,-15,68,47,12,241,169,0,0,162,170,175,166,1,12507
142.005867004,1,20,-1,0,4,5,1,8,0,-55,60,156,42,18,246,169,0,0,169,171,169,165,1,12508
142.014903069,1,20,-1,-1,1,1,0,2,3,-29,-40,219,41,19,254,169,0,0,170,167,159,178,1,12509
142.023976088,1,19,-1,1,15,3,0,8,2,111,72,112,42,26,252,169,0,0,168,171,173,162,1,12510
142.052085161,1,19,-1,0,3,-11,1,9,-3,165,-17,9,47,19,0,169,0,0,161,166,177,171,1,12511
142.061445951,1,19,-1,-1,4,-5,0,4,-8,93,242,23,45,21,252,169,0,0,167,164,164,179,1,12512
142.07456398,1,19,-1,0,10,1,0,7,-2,-1,-107,175,46,27,7,169,0,0,168,169,172,166,1,12513
142.080091,1,19,-1,5,23,-3,2,16,-1,192,80,37,49,23,11,169,0,0,160,173,188,153,1,12514
142.108170032,2,18,-1,0,20,5,2,22,1,116,-26,-29,51,19,2,169,0,0,167,173,185,148,1,12515
142.117159128,2,19,-1,1,13,0,0,16,2,-51,-176,201,48,13,12,169,0,0,168,168,174,165,1,12516
142.12620616,2,18,-1,0,6,0,0,9,0,0,221,86,45,23,10,169,0,0,167,169,166,172,1,12517
142.13645196,2,18,-1,-1,9,6,-1,8,3,57,-152,219,51,11,14,169,0,0,172,169,167,166,1,12518
142.163092136,2,18,-1,2,15,0,0,12,3,-44,-56,157,48,10,8,169,0,0,165,171,179,160,1,12519
142.173218966,2,18,-1,0,5,3,1,10,2,-184,1,127,42,10,13,169,0,0,167,172,169,166,1,12520
142.181918144,2,18,-1,2,14,0,1,9,1,-127,121,25,38,18,12,169,0,0,165,170,171,167,1,12521
142.190983057,2,17,-1,0,11,5,1,12,2,13,-138,253,37,12,6,169,0,0,168,172,175,159,1,12522
142.218887091,2,17,-1,-2,2,-1,-1,6,2,36,136,156,39,19,2,169,0,0,170,165,165,174,1,12523
142.22808814,2,17,-1,0,2,0,0,2,0,-44,-146,141,35,11,2,169,0,0,167,169,162,176,1,12524
142.237867117,2,17,-1,-3,0,0,-1,0,0,-21,74,170,36,16,2,169,0,0,168,167,162,176,1,12525
142.24694705,2,16,-1,0,2,3,-1,0,1,-14,34,13,31,15,1,169,0,0,170,168,162,173,1,12526
142.274801016,2,16,-1,2,2,4,1,2,3,28,38,197,30,25,1,169,0,0,165,174,166,169,1,12527
142.28582716,2,16,-1,1,4,-3,2,3,0,-2,-99,100,24,24,253,169,0,0,163,170,169,172,1,12528
142.293030024,2,16,-1,-1,6,-5,0,5,-4,-126,11,-119,19,21,239,169,0,0,166,166,172,170,1,12529
142.303061962,2,15,-1,0,-1,2,0,2,-1,-7,82,21,18,29,235,169,0,0,170,168,163,174,1,12530
142.330229998,2,15,-1,0,-7,0,0,-4,1,7,61,196,18,25,243,169,0,0,167,169,153,184,1,12531
142.339818954,2,14,-1,-1,-1,2,0,-4,1,16,-211,100,20,19,249,169,0,0,169,169,159,177,1,12532
142.34892416,2,14,-1,-1,-4,6,-1,-3,4,-86,236,184,15,20,1,169,0,0,172,170,159,173,1,12533
142.358194113,3,14,-1,-2,-2,5,-1,-3,6,-14,-27,222,11,20,7,169,0,0,171,169,158,176,1,12534
142.386059046,3,13,-1,-3,-1,2,-3,-1,3,-23,35,123,10,27,7,169,0,0,172,166,163,173,1,12535
142.395132065,3,13,-1,0,9,-1,-1,3,0,-85,-166,-67,7,29,251,169,0,0,166,169,173,166,1,12536
142.404941082,3,13,-1,-2,4,0,0,7,0,50,68,98,7,29,255,169,0,0,167,169,174,164,1,12537
142.414808035,3,12,-1,1,2,-5,0,3,-2,-4,-3,165,8,34,5,169,0,0,165,167,167,176,1,12538
142.442260981,3,12,-1,3,17,0,2,9,-3,147,164,97,11,34,7,169,0,0,162,174,179,159,1,12539
142.451054096,3,12,-1,0,2,7,1,9,3,-127,191,188,9,40,14,169,0,0,169,173,171,161,1,12540
142.460067034,3,12,-1,1,9,5,0,6,6,-8,24,132,10,38,12,169,0,0,169,171,165,168,1,12541
142.47864604,3,12,-1,-1,8,4,0,9,4,-45,178,154,7,45,4,169,0,0,169,171,175,160,1,12542
142.500044107,4,11,-1,1,3,-1,0,6,1,13,-22,193,5,34,13,169,0,0,166,169,169,170,1,12543
142.507076025,4,11,-1,-2,8,3,0,5,1,13,65,202,7,45,12,169,0,0,168,171,169,166,1,12544
142.516008139,4,11,-1,0,4,5,-1,6,4,52,-211,204,6,32,18,169,0,0,171,170,169,165,1,12545
142.524976015,4,11,-1,2,19,3,1,11,4,114,54,130,6,47,18,169,0,0,165,175,179,156,1,12546
142.552989006,4,10,-1,3,20,-3,3,19,0,-40,-213,204,2,43,15,169,0,0,160,173,193,148,1,12547
142.566815138,4,10,-1,2,11,-1,2,16,-2,-41,53,254,2,36,11,169,0,0,164,172,178,161,1,12548
142.570858002,4,10,-1,1,18,0,1,14,0,59,146,103,4,41,2,169,0,0,166,171,178,159,1,12549
142.581043005,4,10,-1,0,2,-6,0,10,-2,44,-95,229,2,30,5,169,0,0,165,166,174,169,1,12550
142.608941078,5,10,-1,2,15,0,0,9,-3,95,4,20,1,37,255,169,0,0,165,172,173,165,1,12551
142.622673988,5,9,-1,0,-6,0,1,4,0,13,28,151,0,32,2,169,0,0,165,172,166,171,1,12552
142.626857996,5,9,-1,2,6,1,0,0,1,-101,-100,141,-3,32,251,169,0,0,166,171,162,175,1,12553
142.636821985,5,9,-1,-1,8,5,0,7,3,-9,166,158,-8,34,248,169,0,0,168,173,176,157,1,12554
142.664443016,5,8,-1,0,-4,-6,-1,1,0,49,-155,43,-10,31,0,169,0,0,166,165,166,177,1,12555
142.673288107,5,8,-1,0,9,0,0,2,-3,-119,-8,30,-11,35,251,169,0,0,165,170,170,169,1,12556
142.686429024,5,8,-1,-3,7,-3,-1,8,-2,26,-159,238,-11,25,255,169,0,0,167,167,181,159,1,12557
142.692290068,5,8,-1,0,19,7,-1,13,2,34,131,46,-11,33,1,169,0,0,171,171,180,152,1,12558
142.719995975,5,7,-1,1,28,6,0,23,7,-61,89,188,-12,36,2,169,0,0,166,175,195,137,1,12559
142.729161024,5,8,-1,3,49,-3,2,38,1,-31,-148,214,-8,32,254,169,0,0,160,173,217,123,1,12560
142.738193035,5,8,-1,2,64,8,3,57,2,-123,-93,157,-8,27,251,169,0,0,165,177,233,99,1,12561
142.748031139,5,8,-1,-3,48,3,0,56,6,107,200,118,-5,36,254,169,0,0,171,168,219,116,1,12562
142.775920153,5,8,-1,2,66,8,0,57,6,88,95,96,-4,35,3,169,0,0,170,173,218,112,1,12563
142.78502512,5,9,0,-2,68,7,0,67,8,-6,125,198,-3,41,4,169,0,0,169,174,235,96,1,12564
142.79422307,5,9,0,4,78,4,1,73,6,0,-57,107,-3,38,9,169,0,0,166,174,239,95,1,12565
142.806538105,6,9,0,4,83,11,4,81,8,-58,16,90,-4,38,11,169,0,0,163,183,240,83,1,12566
142.830929995,6,9,0,2,75,12,3,79,12,34,195,59,-3,35,8,169,0,0,169,178,236,92,1,12567
142.840862036,6,10,0,6,62,0,4,69,5,143,-126,54,0,34,13,169,0,0,160,176,223,115,1,12568
142.850533962,6,10,0,6,55,-9,6,58,-5,-62,-250,93,-5,28,18,169,0,0,154,174,218,128,1,12569
142.859161139,6,10,0,-2,47,3,1,51,-3,133,51,156,-1,27,15,169,0,0,169,170,207,128,1,12570
142.886913061,6,10,0,0,42,12,-1,45,7,107,-17,35,0,25,11,169,0,0,175,171,199,129,1,12571
142.899090052,6,10,0,0,28,12,0,35,12,95,-80,1,2,28,9,169,0,0,170,176,187,141,1,12572
142.90595603,6,10,0,3,15,-10,1,22,0,-118,-20,179,2,16,2,169,0,0,158,170,180,166,1,12573
142.915030956,6,10,0,-1,24,12,1,20,0,-1,14,194,2,23,251,169,0,0,171,176,178,150,1,12574
142.942902088,6,10,0,2,15,1,0,19,6,68,-19,221,4,15,253,169,0,0,166,172,184,152,1,12575
142.951913118,6,9,0,0,5,8,1,10,4,89,-48,82,9,18,8,169,0,0,167,176,165,166,1,12576
142.961238146,6,9,0,3,21,0,1,13,4,-140,-77,70,4,8,0,169,0,0,164,173,181,156,1,12577
142.970901966,5,9,0,0,29,7,1,25,4,-84,17,236,2,15,252,169,0,0,168,175,197,134,1,12578
142.998461962,5,9,0,-3,19,2,-1,24,5,-2,-24,51,-1,10,251,169,0,0,172,167,188,147,1,12579
143.008126974,5,9,0,1,35,0,0,27,1,-164,-29,-1,-2,-1,240,169,0,0,167,171,195,142,1,12580
143.016924143,5,9,0,-4,39,0,-1,37,0,-90,251,231,-4,4,236,169,0,0,168,169,210,127,1,12581
143.02609396,5,9,0,2,45,10,-1,42,5,-92,-113,31,-5,-2,239,169,0,0,171,174,207,122,1,12582
143.054065943,5,9,0,3,55,2,2,50,6,-76,-38,68,-7,3,229,169,0,0,162,177,220,115,1,12583
143.063110113,5,10,0,3,54,4,3,54,3,-78,18,179,-10,2,229,169,0,0,164,176,220,114,1,12584
143.072976112,5,9,0,3,47,-3,3,51,0,46,-105,203,-10,4,222,169,0,0,162,172,213,127,1,12585
143.082288027,4,9,0,3,48,4,3,48,0,-217,-126,220,-18,-6,218,169,0,0,166,175,208,126,1,12586
143.109863043,4,9,0,-2,54,7,0,51,6,-102,123,247,-20,8,219,169,0,0,172,171,215,116,1,12587
143.119086981,4,10,0,1,52,13,0,53,10,-136,90,165,-22,15,217,169,0,0,173,174,213,114,1,12588
143.128112078,4,9,0,1,41,0,1,46,6,-59,-32,161,-25,11,219,169,0,0,164,173,205,132,1,12589
143.137931108,4,9,0,0,32,2,0,36,1,85,-98,154,-24,11,217,169,0,0,167,172,192,143,1,12590
143.164901972,4,9,0,2,38,2,1,35,2,-82,244,235,-28,17,222,169,0,0,166,173,198,137,1,12591
143.174906969,4,9,0,0,31,0,1,34,1,-107,-71,201,-31,14,217,169,0,0,166,171,199,138,1,12592
143.184374094,4,9,0,0,35,8,0,33,4,39,-81,177,-28,15,218,169,0,0,172,172,194,136,1,12593
143.193079948,4,8,0,4,37,11,2,36,10,-37,231,208,-29,17,219,169,0,0,167,179,199,129,1,12594
143.220848083,4,8,0,4,40,-2,4,38,4,-252,-15,81,-36,20,214,169,0,0,159,176,206,132,1,12595
143.230036974,4,8,0,8,38,-3,6,39,-3,-181,12,47,-38,21,208,169,0,0,158,177,206,134,1,12596
143.239130974,4,8,0,0,42,6,4,40,1,-55,-57,174,-40,23,206,169,0,0,166,176,204,128,1,12597
143.249032021,4,7,0,-4,29,2,-1,36,4,-31,-87,73,-41,18,207,169,0,0,175,164,196,138,1,12598
143.277034044,4,7,0,1,35,1,-1,32,1,-252,96,12,-46,18,202,169,0,0,168,170,194,142,1,12599
143.286102056,4,7,0,-3,35,-5,0,35,-2,-58,248,184,-47,28,202,169,0,0,165,168,205,136,1,12600
143.295094013,4,7,0,0,44,10,-1,40,2,-159,-107,52,-48,27,205,169,0,0,173,173,205,123,1,12601
143.305252075,4,6,0,3,45,0,1,44,5,-21,-50,67,-57,21,198,169,0,0,162,175,214,123,1,12602
143.332036972,5,6,0,-1,43,13,0,44,6,23,233,72,-59,25,191,169,0,0,172,176,203,123,1,12603
143.341930151,5,6,0,-2,37,6,-2,40,9,116,118,82,-56,24,188,169,0,0,174,168,200,131,1,12604
143.351042032,5,5,0,5,35,-1,1,36,2,-165,-206,251,-60,21,185,169,0,0,162,174,200,138,1,12605
143.359957933,5,5,0,1,36,-3,3,36,-2,-158,167,246,-63,24,182,169,0,0,161,174,203,136,1,12606
143.38826108,5,4,0,-3,22,2,-1,29,0,-10,-232,70,-64,14,189,169,0,0,172,167,190,145,1,12607
143.397338152,5,4,0,1,20,4,-1,21,3,19,-130,206,-67,14,186,169,0,0,170,171,180,153,1,12608
143.406883955,5,3,0,0,6,-11,0,13,-3,-135,-67,143,-62,12,188,169,0,0,160,168,179,167,1,12609
143.419902086,5,3,0,0,17,12,0,12,0,-183,4,35,-70,17,191,169,0,0,173,175,174,152,1,12610
143.443958044,5,2,0,6,13,1,3,15,7,3,65,68,-73,19,192,169,0,0,162,177,186,150,1,12611
143.453004122,5,2,0,1,6,0,4,9,0,-102,-147,133,-78,17,195,169,0,0,162,175,174,163,1,12612
143.461993933,5,1,0,5,12,4,3,9,2,-129,116,108,-78,34,193,169,0,0,166,175,176,157,1,12613
143.471987009,5,0,0,3,13,0,4,13,2,-144,-214,114,-81,22,191,169,0,0,162,176,185,151,1,12614
143.498959064,5,0,0,-3,1,-9,0,7,-4,35,40,232,-82,23,192,169,0,0,167,163,177,167,1,12615
143.509381056,5,0,0,3,16,0,0,9,-4,-229,21,173,-90,25,188,169,0,0,166,171,180,157,1,12616
143.518043995,5,-1,0,-6,-2,-5,-1,7,-3,-44,-22,224,-88,20,191,169,0,0,167,167,177,164,1,12617
143.527261019,5,-1,0,0,5,-5,-3,1,-5,-210,-13,58,-91,13,193,169,0,0,169,164,170,171,1,12618
143.555066109,5,-2,0,4,12,9,2,8,2,-122,-76,108,-94,11,195,169,0,0,164,181,182,147,1,12619
143.564033985,5,-3,0,0,4,0,2,8,4,-121,7,7,-93,19,201,169,0,0,165,173,179,158,1,12620
143.573938131,5,-3,0,5,7,2,2,6,1,-134,-42,5,-94,11,202,169,0,0,165,175,173,161,1,12621
143.582957029,5,-4,0,0,-9,4,2,0,3,-112,96,213,-94,17,200,169,0,0,166,175,164,169,1,12622
143.611021042,5,-5,0,-2,-16,-2,-1,-12,0,-167,42,130,-97,19,202,169,0,0,170,165,151,188,1,12623
143.619925022,5,-6,0,0,-31,-5,-1,-23,-4,63,-78,96,-93,10,200,169,0,0,166,167,142,199,1,12624
143.63263607,5,-6,0,-2,-34,-6,0,-32,-6,-34,74,15,-95,14,202,169,0,0,165,167,136,206,1,12625
143.639033079,5,-7,0,4,-27,-8,0,-30,-7,-241,-29,31,-96,10,197,169,0,0,161,170,149,195,1,12626
143.667083025,5,-8,0,-3,-40,-4,0,-33,-6,-164,-76,-143,-97,0,187,169,0,0,165,169,141,200,1,12627
143.676070929,4,-9,0,-1,-43,2,-2,-42,-1,-194,251,173,-99,-3,194,169,0,0,172,167,125,210,1,12628
143.685112953,4,-10,0,-3,-58,-4,-2,-51,-1,-111,-54,220,-100,-10,195,169,0,0,168,166,119,222,1,12629
143.694987059,4,-11,0,-4,-54,-2,-4,-56,-3,101,43,70,-100,-6,193,169,0,0,171,164,117,222,1,12630
143.722241163,4,-11,0,-2,-42,1,-3,-48,0,-255,2,90,-104,-12,189,169,0,0,171,167,134,201,1,12631
143.732255936,3,-13,0,-2,-48,6,-2,-45,3,-2,-20,17,-108,-11,191,169,0,0,171,171,131,201,1,12632
143.740993023,3,-13,0,0,-25,-9,-1,-37,-1,-81,-198,229,-111,-14,199,169,0,0,163,166,150,195,1,12633
143.750108004,3,-14,0,-8,-34,-3,-4,-30,-6,120,101,141,-107,-17,197,169,0,0,173,162,154,185,1,12634
143.77788806,3,-15,0,1,-30,3,-3,-32,0,19,44,107,-100,-15,198,169,0,0,171,169,142,193,1,12635
143.787822962,3,-15,0,0,-15,-5,0,-22,-1,64,-117,87,-94,-19,199,169,0,0,161,172,164,177,1,12636
143.796864033,2,-16,0,3,5,-3,2,-4,-4,-89,207,20,-95,-12,195,169,0,0,163,171,188,152,1,12637
143.806034088,2,-16,0,1,2,-2,2,4,-2,-27,-132,-110,-101,-13,184,169,0,0,164,171,188,151,1,12638
143.833949089,2,-16,0,-1,-3,-14,0,0,-8,98,201,106,-92,-11,186,169,0,0,165,161,178,170,1,12639
143.846846104,2,-17,0,1,15,-7,0,6,-10,74,175,97,-89,-12,184,169,0,0,165,167,191,152,1,12640
143.852455139,2,-17,0,-1,-1,-1,0,7,-4,87,-174,207,-83,-14,182,169,0,0,167,169,184,154,1,12641
143.861878157,1,-17,0,3,14,-4,0,6,-3,52,99,174,-75,-10,184,169,0,0,164,170,184,156,1,12642
143.889060974,1,-17,0,0,8,3,2,11,0,-161,-72,-64,-79,-18,181,169,0,0,166,174,191,143,1,12643
143.899007082,1,-17,0,0,-8,7,0,0,5,-95,118,28,-85,-18,186,169,0,0,172,171,164,166,1,12644
143.908174038,1,-17,0,-2,-13,6,-1,-10,6,-111,61,160,-83,-11,184,169,0,0,173,169,155,177,1,12645
143.917391062,1,-18,0,-5,-27,-1,-4,-20,2,83,-184,24,-77,-20,185,169,0,0,174,162,150,188,1,12646
143.945096016,0,-18,0,-1,-23,2,-3,-25,0,-88,-227,18,-79,-20,177,169,0,0,173,167,148,187,1,12647
143.953993082,0,-19,0,-1,-41,4,-1,-32,3,-57,-58,8,-81,-18,178,169,0,0,169,172,139,194,1,12648
143.963964939,0,-19,0,1,-28,-4,0,-35,0,-12,51,13,-78,-2,175,169,0,0,165,169,143,197,1,12649
143.973071098,0,-19,0,1,-25,-5,1,-27,-4,3,-226,29,-73,-15,168,169,0,0,164,169,160,181,1,12650
144.000929117,0,-20,0,0,-37,-13,1,-31,-9,76,162,124,-71,-12,163,169,0,0,162,164,149,199,1,12651
144.010081053,0,-20,0,0,-30,1,0,-34,-6,-101,159,35,-71,-4,155,169,0,0,169,170,142,193,1,12652
144.019148111,0,-21,0,-2,-41,-3,0,-36,0,102,-237,160,-66,-20,162,169,0,0,169,166,143,197,1,12653
144.028953075,0,-21,0,2,-24,-8,0,-33,-6,2,89,75,-62,-12,161,169,0,0,164,166,153,191,1,12654
144.057008028,0,-21,0,-2,-37,4,0,-31,-2,-4,-70,-21,-63,-15,155,169,0,0,171,170,148,185,1,12655
144.066375017,0,-22,0,-2,-28,2,-2,-33,3,33,-7,162,-56,-16,161,169,0,0,175,165,143,191,1,12656
144.075103998,0,-22,0,1,-23,0,0,-25,1,87,191,254,-53,-4,162,169,0,0,168,169,160,177,1,12657
144.084929943,0,-22,0,2,-25,-9,1,-24,-4,-13,-204,118,-48,-9,163,169,0,0,161,169,160,184,1,12658
144.112110138,0,-22,0,-1,-7,0,0,-16,-5,25,102,144,-44,-4,158,169,0,0,170,167,170,168,1,12659
144.122481108,0,-22,0,1,-15,-5,0,-11,-3,-123,-188,148,-45,-9,161,169,0,0,167,166,174,167,1,12660
144.131032944,0,-21,0,-1,-8,-4,0,-11,-4,-98,63,57,-44,-6,163,169,0,0,166,167,168,172,1,12661
144.140051126,0,-21,0,-3,-17,-6,-2,-12,-5,-216,-153,239,-46,-13,163,169,0,0,171,161,168,174,1,12662
144.16802907,0,-21,0,1,-12,-1,-1,-14,-3,-110,175,68,-45,-9,168,169,0,0,168,167,163,176,1,12663
144.177152157,0,-21,0,-2,-8,-3,0,-10,-2,-97,-10,133,-49,-8,169,169,0,0,168,167,173,167,1,12664
144.187314987,-1,-21,0,2,0,-1,0,-4,-2,-233,-121,74,-54,-13,171,169,0,0,168,168,179,158,1,12665
144.19608593,-1,-21,0,0,-1,1,1,-1,0,-235,175,111,-54,-1,179,169,0,0,167,171,180,157,1,12666
144.223933935,-1,-21,0,-2,-14,1,-1,-7,1,24,24,82,-49,1,185,169,0,0,173,165,164,171,1,12667
144.233150959,-1,-21,0,-4,-9,0,-3,-11,1,-73,55,-57,-46,-3,173,169,0,0,174,163,163,173,1,12668
144.245707035,-1,-21,0,-2,-21,-3,-3,-15,-1,-119,-113,113,-46,1,170,169,0,0,171,163,161,179,1,12669
144.252258062,-1,-21,0,0,-19,0,-1,-20,-1,-238,195,77,-55,4,176,169,0,0,169,168,154,182,1,12670
144.280025005,-1,-21,0,-4,-18,5,-2,-18,2,-90,61,180,-51,6,185,169,0,0,174,167,160,173,1,12671
144.288869143,0,-21,0,1,-16,-2,-1,-17,1,-99,-196,150,-47,1,182,169,0,0,168,167,163,175,1,12672
144.298258066,0,-21,0,-3,-20,-2,0,-18,-2,-135,195,-12,-48,11,170,169,0,0,168,167,160,179,1,12673
144.31139493,0,-21,0,-3,-26,-2,-3,-23,-2,-143,-29,153,-55,8,170,169,0,0,173,162,153,186,1,12674
144.335129976,0,-21,0,0,-23,-5,-1,-24,-3,-83,249,36,-57,13,174,169,0,0,167,166,156,186,1,12675
144.344983101,0,-21,0,-2,-19,-2,-1,-21,-4,-71,-31,-44,-60,15,171,169,0,0,169,166,161,178,1,12676
144.353950024,0,-21,0,-2,-24,0,-2,-22,-1,-143,-39,79,-62,9,179,169,0,0,172,165,156,181,1,12677
144.36303401,0,-21,0,-2,-19,1,-2,-22,0,-127,191,46,-58,17,189,169,0,0,171,167,156,179,1,12678
144.390987158,0,-21,0,-4,-27,0,-3,-23,1,43,122,151,-59,15,190,169,0,0,173,164,155,182,1,12679
144.400151968,0,-21,0,-2,-9,0,-3,-18,0,-20,-27,10,-62,10,188,169,0,0,172,165,164,172,1,12680
144.409893036,0,-21,0,-2,-15,-3,-2,-12,-1,17,230,-121,-63,20,180,169,0,0,169,165,172,168,1,12681
144.419023991,0,-21,0,-1,-1,7,-2,-8,2,-139,-73,97,-68,16,185,169,0,0,174,170,171,160,1,12682
144.446993113,0,-21,0,-1,-3,4,-1,-2,6,-118,187,226,-67,22,192,169,0,0,171,170,179,155,1,12683
144.456156969,0,-21,0,3,13,2,1,5,3,-115,5,-10,-68,20,184,169,0,0,166,173,188,147,1,12684
144.465973139,0,-21,0,0,2,2,1,7,2,-12,110,-50,-65,21,179,169,0,0,168,171,187,148,1,12685
144.475048065,0,-21,0,-3,-15,-4,-2,-6,0,2,74,125,-67,27,175,169,0,0,172,162,161,179,1,12686
144.502948999,1,-21,0,0,-13,-2,-2,-14,-3,-121,79,123,-68,35,184,169,0,0,169,166,158,180,1,12687
144.512129068,1,-21,0,-2,-18,-1,-1,-16,-2,-86,88,6,-69,39,178,169,0,0,168,167,162,177,1,12688
144.521116972,1,-21,0,-1,-12,4,-2,-15,1,-131,-72,172,-72,29,182,169,0,0,172,168,162,172,1,12689
144.53096199,1,-21,0,-2,-14,3,-2,-13,3,-109,236,91,-75,41,183,169,0,0,171,169,166,168,1,12690
144.558902979,2,-21,0,-3,-24,-1,-2,-19,0,-16,-167,44,-77,32,188,169,0,0,170,165,156,183,1,12691
144.56798315,2,-22,0,-1,-12,0,-2,-18,-1,7,-26,-14,-74,28,187,169,0,0,169,168,161,176,1,12692
144.576957941,2,-22,0,-2,-23,-5,-2,-18,-2,-36,-147,141,-78,30,180,169,0,0,167,165,163,178,1,12693
144.58695507,2,-22,0,0,-25,4,-1,-24,0,-98,213,138,-80,33,188,169,0,0,170,170,148,186,1,12694
144.614175081,2,-22,0,4,-9,-6,2,-17,0,-139,14,103,-84,35,197,169,0,0,160,172,170,172,1,12695
144.623985052,3,-22,0,3,-3,-2,3,-6,-4,-65,-123,-53,-86,32,185,169,0,0,162,174,182,157,1,12696
144.632966995,3,-22,0,-2,-17,0,0,-10,0,1,159,-61,-88,32,177,169,0,0,171,167,164,172,1,12697
144.641991138,3,-22,0,-4,-29,-7,-3,-23,-3,-103,-26,73,-90,36,176,169,0,0,171,160,149,194,1,12698
144.670248985,3,-23,0,-1,-25,-2,-2,-27,-5,-67,13,169,-93,34,183,169,0,0,168,167,151,188,1,12699
144.678951025,3,-23,0,-2,-20,-4,-2,-22,-3,48,59,0,-88,40,173,169,0,0,167,167,163,178,1,12700
144.688878059,3,-23,0,-1,-6,5,-1,-13,0,-137,-122,232,-89,35,171,169,0,0,171,170,171,161,1,12701
144.69798398,4,-24,0,-1,-5,5,-1,-6,5,-124,234,189,-87,45,170,169,0,0,170,172,177,156,1,12702
144.726048946,4,-24,0,-1,-11,-2,-1,-8,1,-136,24,23,-88,41,169,169,0,0,167,168,170,169,1,12703
144.735105038,4,-24,0,0,-1,-3,0,-6,-2,-32,-142,134,-86,38,169,169,0,0,165,169,176,164,1,12704
144.744213104,4,-24,0,-4,-17,-2,-2,-9,-2,-3,207,-21,-80,46,160,169,0,0,169,165,169,171,1,12705
144.753922939,5,-24,0,-2,-13,-1,-3,-15,-2,-85,-53,68,-77,41,159,169,0,0,170,166,160,179,1,12706
144.78205514,5,-24,0,0,-1,2,0,-7,0,-84,57,247,-79,48,163,169,0,0,166,173,177,158,1,12707
144.791939974,5,-24,0,2,-4,-1,1,-2,0,-94,-1,134,-80,46,168,169,0,0,163,173,181,157,1,12708
144.799947977,5,-24,0,0,-3,1,1,-3,0,-97,111,35,-79,52,166,169,0,0,166,172,174,162,1,12709
144.809945106,6,-24,0,-4,-18,0,-2,-11,1,-47,-34,50,-75,46,165,169,0,0,171,166,162,175,1,12710
144.836967945,6,-24,0,-2,-16,1,-3,-17,0,-97,-100,124,-75,42,164,169,0,0,171,167,157,179,1,12711
144.846918106,6,-25,0,-2,-19,-5,-2,-17,-2,53,103,-28,-71,50,159,169,0,0,165,167,165,177,1,12712
144.855843067,6,-25,0,2,-5,2,0,-12,-1,-72,-183,143,-69,40,163,169,0,0,165,175,171,164,1,12713
144.865066051,7,-25,0,0,-10,0,1,-7,1,-44,117,97,-67,50,162,169,0,0,163,173,176,162,1,12714
144.893011093,7,-25,0,-4,-22,-4,-2,-16,-2,-97,-37,39,-67,43,162,169,0,0,169,165,159,182,1,12715
144.902063131,7,-25,0,-2,-11,-5,-3,-17,-4,-34,0,23,-66,44,164,169,0,0,168,165,164,177,1,12716
144.912024975,7,-25,0,-4,-24,-2,-3,-18,-3,17,-225,100,-62,39,158,169,0,0,167,168,162,177,1,12717
144.920990944,7,-25,0,-2,-24,-2,-3,-24,-2,-38,43,251,-60,35,156,169,0,0,167,167,152,188,1,12718
144.94897294,7,-25,0,0,-14,3,-1,-19,0,-163,158,67,-65,36,161,169,0,0,167,172,164,171,1,12719
144.958343983,8,-25,0,0,-15,-1,0,-14,0,-70,-222,-5,-66,32,160,169,0,0,164,172,170,169,1,12720
144.96787405,8,-25,0,0,-11,1,0,-13,0,-83,217,-114,-69,31,161,169,0,0,166,172,167,169,1,12721
144.986631155,8,-25,0,-3,-24,0,-2,-18,0,-65,-87,62,-67,31,160,169,0,0,169,167,158,179,1,12722
145.00487709,8,-25,0,0,-21,-5,-1,-23,-2,40,142,136,-63,30,164,169,0,0,164,169,155,186,1,12723
145.013983011,8,-25,0,-1,-19,-4,0,-20,-5,15,7,62,-60,30,166,169,0,0,162,171,164,177,1,12724
145.022992134,8,-25,0,-2,-21,2,-1,-20,-1,-6,-59,158,-60,26,171,169,0,0,169,170,159,176,1,12725
145.032989979,8,-25,0,-1,-9,2,-2,-15,2,-138,198,70,-63,29,170,169,0,0,169,170,168,167,1,12726
145.060897112,8,-25,0,-3,-20,-5,-2,-14,-1,23,-30,4,-60,26,167,169,0,0,166,167,168,174,1,12727
145.069971085,8,-25,0,0,1,6,-1,-9,0,-78,-45,200,-59,23,171,169,0,0,169,173,173,160,1,12728
145.07894206,8,-25,0,-3,-15,-1,-2,-6,2,48,159,28,-55,28,168,169,0,0,167,169,176,163,1,12729
145.088982105,8,-25,0,-1,-8,4,-2,-11,1,-44,-28,160,-53,22,176,169,0,0,169,171,162,172,1,12730
145.11602807,8,-24,0,-2,1,6,-2,-3,5,-160,202,250,-57,31,175,169,0,0,169,172,181,152,1,12731
145.125873089,8,-24,0,0,0,2,-1,1,4,-88,-157,88,-59,28,177,169,0,0,167,172,183,152,1,12732
145.134999037,8,-24,0,-1,8,4,0,4,3,-43,24,-83,-59,38,172,169,0,0,166,174,185,148,1,12733
145.144109964,8,-24,0,-2,-12,-6,-1,-1,0,-112,-211,49,-60,28,169,169,0,0,165,166,175,168,1,12734
145.171124935,8,-24,0,0,-14,-3,-1,-13,-5,59,62,173,-55,29,171,169,0,0,165,168,158,182,1,12735
145.181087017,8,-24,0,-3,-17,0,-2,-16,-1,-43,52,105,-54,33,175,169,0,0,168,169,161,176,1,12736
145.190242052,8,-24,0,-1,-18,2,-2,-18,1,-39,49,138,-55,31,187,169,0,0,169,170,159,176,1,12737
145.198961973,8,-23,0,0,-9,1,0,-14,2,-96,28,115,-55,32,188,169,0,0,164,174,168,168,1,12738
145.227030992,8,-23,0,-3,-22,-4,-1,-16,-1,-41,-141,47,-54,28,185,169,0,0,166,168,164,177,1,12739
145.236009121,8,-23,0,-1,-8,4,-2,-15,0,-68,42,-23,-57,34,184,169,0,0,170,170,163,171,1,12740
145.245136023,8,-23,0,-4,-24,-1,-3,-16,1,-68,-133,84,-56,34,187,169,0,0,168,168,163,176,1,12741
145.255177021,8,-23,0,0,-23,5,-1,-23,2,4,198,125,-52,33,192,169,0,0,168,173,148,185,1,12742
145.283007145,8,-23,0,2,-7,-5,1,-15,0,-184,-205,143,-54,27,195,169,0,0,158,173,174,169,1,12743
145.292546988,8,-23,0,0,-10,2,1,-8,-1,49,123,126,-52,34,201,169,0,0,165,174,175,161,1,12744
145.300976992,8,-23,0,2,-8,-2,1,-9,0,-101,-25,93,-54,28,204,169,0,0,163,172,170,169,1,12745
145.311016083,8,-22,0,-1,-16,-6,0,-12,-4,60,4,123,-50,29,205,169,0,0,163,169,167,176,1,12746
145.338933945,8,-22,0,0,-17,-6,0,-16,-6,-33,1,28,-49,22,206,169,0,0,164,167,162,181,1,12747
145.348119974,8,-22,0,-1,-10,-5,0,-14,-6,56,-88,24,-45,19,210,169,0,0,164,168,170,172,1,12748
145.356987953,8,-22,0,0,-9,0,-1,-10,-2,-25,149,84,-44,20,217,169,0,0,166,170,172,166,1,12749
145.366091013,8,-22,0,0,-1,0,0,-5,0,-115,-153,124,-45,17,219,169,0,0,163,172,177,161,1,12750
145.394289017,8,-21,0,0,11,5,0,5,2,11,160,202,-43,24,215,169,0,0,167,175,190,143,1,12751
145.403085947,8,-21,0,0,11,4,0,11,5,-104,-17,137,-46,21,219,169,0,0,168,172,193,141,1,12752
145.412827015,7,-20,0,0,6,1,0,8,3,-68,-6,140,-46,25,225,169,0,0,166,172,184,153,1,12753
145.422018051,7,-20,0,0,-2,0,0,1,1,-37,-38,184,-46,15,234,169,0,0,165,172,174,163,1,12754
145.449909925,7,-20,0,2,10,2,1,3,1,39,83,166,-43,18,230,169,0,0,164,174,182,153,1,12755
145.458982944,7,-20,0,-1,-11,-1,0,0,0,-32,-14,26,-43,18,237,169,0,0,165,170,174,165,1,12756
145.468867064,7,-19,0,2,-1,-2,0,-6,-2,-19,-22,220,-44,23,240,169,0,0,164,171,168,172,1,12757
145.478410006,7,-19,0,0,-5,1,1,-3,0,-164,148,220,-47,26,239,169,0,0,163,174,176,160,1,12758
145.505921125,7,-19,0,0,-19,-4,0,-12,-1,183,-172,9,-38,17,238,169,0,0,164,169,160,181,1,12759
145.5154531,7,-19,0,0,-17,-4,0,-18,-4,6,143,243,-36,26,244,169,0,0,164,169,156,185,1,12760
145.523972988,7,-19,0,0,-20,-2,0,-19,-3,79,-17,161,-32,14,1,169,0,0,166,168,159,180,1,12761
145.534000158,7,-18,0,0,-12,5,0,-16,1,-134,73,2,-34,18,249,169,0,0,168,172,161,172,1,12762
145.56192112,7,-18,0,-1,-6,5,-1,-9,5,-38,-113,-91,-36,12,237,169,0,0,169,171,172,162,1,12763
145.570847988,7,-18,0,2,-5,-3,0,-6,0,33,152,66,-35,15,244,169,0,0,162,171,176,165,1,12764
145.580104113,6,-18,0,0,-3,0,1,-4,-1,-40,-123,43,-36,14,247,169,0,0,163,174,174,163,1,12765
145.589491129,6,-17,0,-2,-16,-1,0,-10,0,171,116,88,-28,12,248,169,0,0,168,168,163,176,1,12766
145.617042065,6,-17,0,0,-7,3,0,-12,0,67,-101,47,-27,10,242,169,0,0,167,172,162,173,1,12767
145.626183987,6,-17,0,-1,-17,-5,0,-12,-1,69,-140,70,-24,8,246,169,0,0,163,169,167,175,1,12768
145.635852098,6,-17,0,4,-1,-6,1,-9,-5,-23,66,-59,-25,5,243,169,0,0,160,171,173,169,1,12769
145.645059109,6,-16,0,-2,-7,-1,1,-4,-4,-39,-34,-60,-25,5,231,169,0,0,164,171,178,162,1,12770
145.672915936,6,-16,0,-3,-17,-5,-3,-12,-3,18,100,35,-21,3,226,169,0,0,170,162,160,182,1,12771
145.682899952,5,-16,0,0,-10,-8,-2,-13,-6,-19,-155,98,-19,3,233,169,0,0,164,166,165,179,1,12772
145.691983938,5,-16,0,-3,-13,0,-1,-11,-4,87,35,133,-16,-3,238,169,0,0,167,169,167,171,1,12773
145.701094151,5,-15,0,-1,-4,5,-2,-8,2,11,-108,63,-13,0,232,169,0,0,172,169,168,165,1,12774
145.729072094,5,-15,0,-1,1,7,-1,-1,6,-51,253,202,-16,4,226,169,0,0,170,172,178,154,1,12775
145.738198042,5,-15,0,1,4,-2,0,3,2,-49,-94,98,-16,0,226,169,0,0,163,171,184,156,1,12776
145.747010946,5,-14,0,0,10,4,1,7,0,-18,138,50,-15,2,218,169,0,0,166,174,185,149,1,12777
145.757116079,4,-14,0,-2,-7,0,0,1,2,37,19,57,-12,2,210,169,0,0,169,168,171,166,1,12778
145.78499198,4,-14,0,0,-5,4,-1,-6,2,73,175,177,-9,10,213,169,0,0,170,170,160,174,1,12779
145.793874025,4,-13,0,-1,-7,-7,-1,-6,-1,38,-123,207,-6,0,219,169,0,0,164,166,172,172,1,12780
145.806684971,4,-13,0,-1,-4,-4,-1,-5,-5,-7,-80,139,-5,1,214,169,0,0,167,166,172,169,1,12781
145.812868118,4,-13,0,0,4,3,0,0,0,-80,109,147,-7,0,208,169,0,0,168,171,179,156,1,12782
145.840141058,4,-12,0,-2,-9,-5,-1,-2,0,97,74,24,0,6,205,169,0,0,166,166,173,169,1,12783
145.849933147,4,-12,0,-1,10,9,-2,0,2,-53,66,75,-2,4,197,169,0,0,173,171,175,155,1,12784
145.85900712,4,-12,0,-1,-6,-1,-1,1,3,43,-87,252,0,3,201,169,0,0,167,168,178,161,1,12785
145.868113041,4,-11,0,-1,-6,4,-1,-6,1,-131,180,187,-4,7,203,169,0,0,169,171,159,175,1,12786
145.896037102,3,-11,0,-1,5,6,-1,0,5,-50,51,177,-4,8,206,169,0,0,170,171,176,156,1,12787
145.905218124,3,-11,0,-1,-2,-1,-1,1,2,-95,198,216,-8,15,205,169,0,0,168,168,177,161,1,12788
145.914206982,3,-10,0,0,3,4,0,0,1,-75,132,119,-9,15,206,169,0,0,169,171,172,162,1,12789
145.923970938,3,-10,0,0,-2,-6,0,0,0,-29,174,57,-7,23,198,169,0,0,164,168,177,165,1,12790
145.952005148,3,-10,0,0,-2,0,0,-2,-2,126,-69,82,-4,17,201,169,0,0,167,170,169,168,1,12791
145.961013079,3,-10,0,0,-9,-4,0,-6,-2,-73,155,88,-3,22,206,169,0,0,166,167,167,175,1,12792
145.970850945,4,-10,0,0,-9,-1,0,-9,-3,-24,-112,91,-2,19,205,169,0,0,167,169,162,177,1,12793
145.979984045,4,-9,0,1,10,2,0,0,0,-120,186,132,-4,25,197,169,0,0,167,172,182,153,1,12794
146.006963015,4,-9,0,0,0,0,0,5,1,119,-114,66,-2,20,195,169,0,0,166,170,184,154,1,12795
146.017022133,4,-9,0,1,7,6,0,3,2,-186,143,99,-6,24,197,169,0,0,168,173,173,159,1,12796
146.026015043,4,-8,0,0,-8,-1,0,0,2,-82,-195,240,-8,19,197,169,0,0,166,169,170,169,1,12797
146.035141945,4,-8,0,-2,-8,-7,-1,-8,-4,-54,61,108,-5,17,194,169,0,0,167,163,161,182,1,12798
146.062970161,4,-8,0,0,-6,2,-1,-7,-2,-84,-93,112,-12,19,190,169,0,0,169,170,166,170,1,12799
146.07198596,4,-8,0,0,-11,-1,0,-9,0,-39,29,180,-13,16,189,169,0,0,164,171,164,175,1,12800
146.082078934,4,-8,0,-1,1,7,0,-4,2,72,-95,100,-13,21,181,169,0,0,170,172,169,162,1,12801
146.090938091,4,-8,0,-2,-3,1,-1,0,4,-77,122,-178,-12,22,176,169,0,0,170,168,175,161,1,12802
146.119015932,4,-8,0,-2,-9,1,-2,-6,1,61,-10,97,-9,25,188,169,0,0,170,168,161,175,1,12803
146.127959967,4,-8,0,0,3,-2,-1,-2,0,-80,-100,142,-12,18,183,169,0,0,166,168,174,165,1,12804
146.137062073,4,-8,0,0,-2,-7,0,0,-4,10,-180,59,-11,17,177,169,0,0,164,167,180,163,1,12805
146.146952152,4,-7,0,1,9,3,0,3,-1,-52,151,108,-16,18,184,169,0,0,167,173,178,157,1,12806
146.174024105,4,-7,0,1,7,-2,1,8,0,-33,17,245,-19,21,189,169,0,0,163,172,186,154,1,12807
146.18396616,4,-7,0,2,12,-4,2,9,-3,18,-41,176,-20,23,185,169,0,0,162,171,185,156,1,12808
146.192921162,4,-7,0,0,2,6,1,7,0,9,-81,89,-19,19,189,169,0,0,169,173,176,157,1,12809
146.20203495,4,-7,0,-1,-6,2,0,-1,4,27,182,236,-17,25,196,169,0,0,170,168,163,173,1,12810
146.230062962,5,-7,0,0,0,5,0,-3,3,44,-204,156,-17,17,206,169,0,0,169,171,166,167,1,12811
146.239342928,4,-7,0,0,-7,-2,0,-3,1,175,136,13,-12,25,197,169,0,0,166,169,169,170,1,12812
146.248975992,5,-7,0,0,-4,6,0,-6,2,92,-84,164,-12,22,204,169,0,0,169,172,163,170,1,12813
146.257887125,5,-7,0,1,-1,0,0,-3,3,-10,217,222,-12,30,208,169,0,0,165,172,172,165,1,12814
146.285892963,5,-7,0,-1,-11,-1,0,-6,0,-26,-101,151,-12,21,207,169,0,0,166,169,164,175,1,12815
146.295545101,5,-7,0,-1,0,0,-1,-6,0,37,30,229,-10,24,210,169,0,0,170,168,167,170,1,12816
146.303898096,5,-6,0,0,-6,-5,0,-3,-2,-51,-175,107,-10,16,212,169,0,0,164,168,173,168,1,12817
146.31399703,5,-6,0,-2,0,1,0,-3,-1,106,150,13,-9,19,217,169,0,0,168,170,169,167,1,12818
146.341282129,5,-6,0,-1,1,2,-1,0,2,9,-195,85,-10,10,208,169,0,0,169,169,175,160,1,12819
146.350996017,5,-6,0,2,0,-2,0,0,0,109,160,96,-8,17,212,169,0,0,163,172,174,166,1,12820
146.359935045,5,-6,0,0,2,-2,1,0,-2,-58,-245,120,-10,13,218,169,0,0,163,171,175,164,1,12821
146.369014978,5,-6,0,1,-1,-4,1,0,-3,38,50,91,-7,12,217,169,0,0,164,169,174,167,1,12822
146.397109032,5,-6,0,0,-3,-1,0,-2,-3,75,-199,103,-7,5,212,169,0,0,165,170,168,171,1,12823
146.406193018,4,-6,0,3,-16,-2,1,-10,-1,35,43,123,-5,4,213,169,0,0,163,172,158,182,1,12824
146.416026115,4,-6,0,0,-23,-9,2,-20,-6,93,-251,248,-4,0,213,169,0,0,160,168,149,197,1,12825
146.424934149,4,-6,0,-5,-31,6,-2,-27,-1,-41,-52,170,-2,-5,206,169,0,0,175,167,137,195,1,12826
146.45291996,4,-6,0,-2,-31,5,-3,-31,6,3,-72,113,0,-8,198,169,0,0,173,167,137,196,1,12827
146.461936951,4,-6,0,-3,-44,-2,-2,-37,1,48,-66,181,2,-15,198,169,0,0,167,167,132,208,1,12828
146.471014023,3,-6,0,-2,-46,-4,-2,-45,-3,-18,-28,-178,4,-19,184,169,0,0,168,165,125,216,1,12829
146.480894089,3,-6,0,-2,-46,-4,-2,-46,-4,19,55,225,5,-21,188,169,0,0,167,165,130,212,1,12830
146.508940935,3,-6,0,-2,-50,2,-2,-48,-1,-3,145,59,2,-16,187,169,0,0,170,168,124,212,1,12831
146.517996073,3,-7,0,0,-54,-9,0,-52,-3,30,-26,140,4,-21,189,169,0,0,163,166,123,222,1,12832
146.52711916,2,-7,0,0,-41,-4,0,-47,-7,16,10,25,5,-18,181,169,0,0,164,169,133,209,1,12833
146.536015987,2,-7,0,-1,-48,0,0,-44,-2,-2,-10,214,8,-22,183,169,0,0,169,168,132,205,1,12834
146.564017057,2,-7,0,-4,-55,-11,-3,-51,-5,248,109,151,11,-17,185,169,0,0,167,159,122,225,1,12835
146.573176146,1,-8,-1,-4,-55,-12,-4,-55,-12,75,54,114,24,-13,179,169,0,0,168,158,122,226,1,12836
146.582885981,1,-7,-1,-3,-55,-6,-4,-55,-9,-70,44,169,25,-7,183,169,0,0,168,163,122,221,1,12837
146.592114925,1,-7,-1,1,-37,-12,0,-46,-9,13,-164,233,26,-12,193,169,0,0,160,166,141,207,1,12838
146.619884968,1,-7,-1,-6,-50,-5,-2,-43,-8,222,226,101,34,-4,199,169,0,0,169,163,135,207,1,12839
146.629251003,1,-7,-1,0,-32,-2,-3,-41,-3,15,67,221,35,-3,200,169,0,0,170,164,136,204,1,12840
146.638415098,1,-7,-1,-3,-49,-1,-1,-41,-2,104,-221,215,36,-7,203,169,0,0,167,168,135,205,1,12841
146.647994041,1,-6,-1,0,-33,-3,-1,-41,-2,131,47,11,42,-2,214,169,0,0,167,166,134,207,1,12842
146.675981045,1,-6,-1,-1,-40,6,0,-37,1,-118,-98,230,37,-4,211,169,0,0,170,171,138,194,1,12843
146.684998035,0,-7,-1,-2,-46,-2,-1,-43,2,156,-64,-25,43,-3,207,169,0,0,170,164,127,213,1,12844
146.693937063,0,-6,-1,0,-51,-3,-1,-49,-3,42,47,141,44,1,209,169,0,0,167,166,123,219,1,12845
146.703905106,0,-6,-1,-2,-51,-5,-1,-51,-4,-136,-165,5,42,-6,206,169,0,0,166,165,123,219,1,12846
146.731939077,0,-5,-1,-1,-48,-5,-2,-50,-5,-9,-212,185,42,-11,205,169,0,0,168,163,128,215,1,12847
146.741024017,0,-6,-1,3,-34,-4,0,-41,-5,98,-73,240,44,-12,213,169,0,0,163,170,142,200,1,12848
146.750195026,0,-5,-1,-4,-49,3,0,-41,0,172,91,15,48,-8,217,169,0,0,171,168,131,205,1,12849
146.759791136,0,-5,-1,0,-58,-10,-1,-54,-3,191,-130,145,52,-16,215,169,0,0,166,161,114,232,1,12850
146.787074089,0,-5,-1,2,-40,-10,1,-49,-10,-103,71,160,49,-9,209,169,0,0,159,169,132,215,1,12851
146.796929121,0,-5,-1,-2,-42,2,0,-41,-3,120,192,145,47,-7,212,169,0,0,170,168,138,198,1,12852
146.805999994,0,-5,-1,-1,-43,5,-1,-42,3,-21,-32,35,45,-6,202,169,0,0,173,167,127,206,1,12853
146.814945936,0,-4,-1,-3,-47,-9,-2,-45,-1,220,16,63,50,-11,205,169,0,0,167,161,129,216,1,12854
146.843026161,0,-4,-1,0,-45,1,-1,-46,-4,83,10,53,53,-8,202,169,0,0,170,167,126,212,1,12855
146.852112055,0,-4,-1,0,-33,0,0,-39,0,38,-43,102,53,-10,199,169,0,0,167,168,140,198,1,12856
146.861966133,0,-4,-1,-1,-44,-11,-1,-38,-5,70,-152,-43,56,-9,195,169,0,0,165,162,140,208,1,12857
146.870985031,0,-3,-1,-6,-53,0,-4,-48,-6,182,246,83,58,-7,197,169,0,0,174,161,116,223,1,12858
146.898863077,0,-3,-1,-5,-53,1,-6,-53,0,99,-213,210,60,-8,200,169,0,0,176,161,116,221,1,12859
146.90836215,0,-4,-1,-3,-52,1,-4,-52,1,-7,-249,179,57,-18,196,169,0,0,171,165,120,217,1,12860
146.916892052,0,-3,-1,1,-41,-6,0,-46,-2,119,114,186,62,-9,198,169,0,0,163,167,134,210,1,12861
146.926921129,0,-3,-1,-6,-47,2,-2,-44,-2,56,140,194,62,-7,200,169,0,0,172,165,130,207,1,12862
146.953918934,0,-2,-1,1,-44,-5,-2,-46,-1,160,-247,174,64,-8,202,169,0,0,169,163,127,215,1,12863
146.963883162,0,-3,-1,-1,-48,-6,0,-46,-5,191,-193,34,68,-14,200,169,0,0,164,167,128,215,1,12864
146.972953081,0,-2,-1,-1,-33,8,-1,-41,1,41,241,69,67,-1,195,169,0,0,174,169,133,199,1,12865
146.982067108,0,-2,-1,1,-35,-5,0,-34,1,-47,-154,211,67,-4,196,169,0,0,164,167,145,198,1,12866
147.009878159,0,-1,-1,-4,-48,-8,-1,-42,-6,60,-165,104,75,-6,196,169,0,0,168,161,127,218,1,12867
147.01987195,-1,-2,-2,-4,-52,-8,-4,-50,-8,225,-102,48,79,-7,199,169,0,0,171,157,118,227,1,12868
147.029022932,-1,-1,-2,-6,-46,0,-5,-49,-4,-22,19,99,79,-6,212,169,0,0,174,162,124,215,1,12869
147.038366079,-1,-1,-2,-2,-48,-13,-4,-47,-6,50,-47,-54,80,-9,205,169,0,0,167,158,132,218,1,12870
147.065991163,-1,0,-2,-2,-47,-8,-2,-47,-10,160,15,237,84,-5,204,169,0,0,166,163,127,218,1,12871
147.075130939,-1,-1,-2,-9,-58,0,-5,-53,-4,252,161,98,89,-1,196,169,0,0,176,159,115,224,1,12872
147.08495307,-1,0,-2,0,-46,7,-4,-52,3,27,-157,82,96,-5,204,169,0,0,174,167,117,216,1,12873
147.093944073,-1,0,-2,4,-31,-2,1,-38,2,98,138,220,99,-1,210,169,0,0,160,174,145,196,1,12874
147.121912003,-1,0,-2,-3,-41,2,0,-36,0,167,-100,160,97,-6,211,169,0,0,170,167,135,202,1,12875
147.131298065,-1,0,-2,3,-33,-9,0,-37,-3,36,-8,68,89,-14,210,169,0,0,164,163,136,211,1,12876
147.140268087,-1,1,-2,-4,-54,-12,0,-44,-11,58,-205,88,99,-21,208,169,0,0,164,162,127,222,1,12877
147.150973082,-1,1,-2,-1,-35,-1,-2,-44,-6,251,212,106,105,-11,198,169,0,0,173,162,126,214,1,12878
147.177941084,-1,2,-2,-3,-35,-3,-2,-35,-2,88,-7,-183,101,-23,184,169,0,0,169,164,144,198,1,12879
147.186922073,-1,2,-2,-2,-30,-10,-2,-32,-6,75,-90,-210,103,-27,174,169,0,0,167,160,144,204,1,12880
147.195958138,-1,3,-2,-3,-36,-8,-3,-33,-9,226,114,167,106,-19,172,169,0,0,168,161,139,206,1,12881
147.205951929,-2,3,-2,0,-26,1,-2,-31,-3,52,-48,84,104,-28,174,169,0,0,170,166,139,199,1,12882
147.233137131,-2,4,-2,3,-10,-5,1,-18,-1,16,-137,66,107,-29,170,169,0,0,162,169,163,180,1,12883
147.242884159,-2,5,-2,3,14,0,3,2,-2,61,-200,140,105,-32,181,169,0,0,163,172,187,153,1,12884
147.252051115,-2,6,-2,3,15,1,3,15,0,185,159,129,109,-29,187,169,0,0,165,171,192,145,1,12885
147.260977983,-2,6,-2,0,3,2,1,9,2,193,78,106,117,-23,183,169,0,0,169,167,171,167,1,12886
147.289139032,-2,7,-2,4,21,5,1,12,3,104,102,236,120,-15,184,169,0,0,169,170,179,156,1,12887
147.297908068,-2,9,-2,1,18,4,2,20,4,61,-228,154,125,-19,176,169,0,0,167,171,190,146,1,12888
147.307137012,-2,9,-2,2,27,3,1,23,3,161,201,-11,125,-17,169,169,0,0,169,169,190,147,1,12889
147.316889048,-2,10,-2,0,23,7,1,25,5,176,-6,77,124,-13,173,169,0,0,171,171,188,144,1,12890
147.344944,-2,11,-2,3,28,3,1,26,5,27,34,126,134,-14,179,169,0,0,168,169,189,148,1,12891
147.354196072,-2,13,-2,3,48,10,3,38,7,-35,107,-109,130,-16,172,169,0,0,169,175,208,122,1,12892
147.363005161,-2,14,-2,3,37,3,3,42,7,46,-73,108,132,-17,174,169,0,0,166,171,208,129,1,12893
147.371964931,-2,14,-2,1,52,18,2,44,11,-118,28,215,123,-11,172,169,0,0,174,176,200,124,1,12894
147.400099993,-2,15,-2,3,43,0,2,47,9,190,-197,148,126,-16,180,169,0,0,166,169,211,128,1,12895
147.408887148,-2,17,-2,0,51,9,2,47,4,88,48,-81,127,-14,176,169,0,0,171,172,205,127,1,12896
147.41824913,-2,18,-1,-1,51,3,0,51,6,224,22,108,131,-3,180,169,0,0,173,165,214,122,1,12897
147.428462028,-2,18,-1,3,40,-2,0,45,0,-16,-90,129,126,-18,174,169,0,0,166,167,202,139,1,12898
147.455870152,-2,19,-2,-5,50,-7,-1,45,-5,36,241,11,125,-6,169,169,0,0,168,161,208,137,1,12899
147.464936018,-3,20,-2,-5,37,6,-5,44,0,255,51,55,131,7,166,169,0,0,180,161,200,133,1,12900
147.474112988,-2,21,-2,-1,24,-4,-3,31,1,204,-75,230,133,-4,161,169,0,0,168,163,183,160,1,12901
147.483911037,-2,22,-2,-2,35,7,-1,30,1,96,14,198,134,0,161,169,0,0,173,169,185,147,1,12902
147.511281013,-2,22,-1,-2,15,-1,-2,25,3,172,-3,8,141,5,163,169,0,0,171,163,182,158,1,12903
147.521063089,-2,23,-2,2,5,0,0,10,0,57,-45,231,138,2,168,169,0,0,167,169,158,180,1,12904
147.529822111,-2,24,-1,-1,1,2,0,3,1,-36,168,177,136,0,171,169,0,0,169,168,157,179,1,12905
147.53895998,-2,24,-1,0,5,4,-1,3,3,182,-216,218,142,0,171,169,0,0,173,167,161,174,1,12906
147.567047119,-2,25,-1,7,2,-3,3,4,0,41,-86,70,135,-5,170,169,0,0,160,173,166,176,1,12907
147.576077938,-2,25,-1,2,0,9,5,1,3,51,163,144,130,1,166,169,0,0,167,176,156,175,1,12908
147.58514905,-2,25,-1,3,7,1,3,4,5,239,-244,209,137,-5,163,169,0,0,168,169,165,172,1,12909
147.594918966,-2,26,-1,0,7,10,2,7,6,56,95,86,137,-1,166,169,0,0,171,173,165,165,1,12910
147.622899055,-2,26,-1,0,5,1,0,6,5,163,-21,120,137,-8,170,169,0,0,169,167,164,173,1,12911
147.632008076,-2,27,-1,1,23,-2,1,14,0,18,-107,120,131,-15,170,169,0,0,166,168,181,160,1,12912
147.640985966,-2,27,-1,-3,18,-2,0,20,-2,118,-126,74,127,-14,170,169,0,0,170,163,185,155,1,12913
147.650876999,-2,28,-1,-1,16,-3,-2,17,-3,21,210,177,125,-13,169,169,0,0,171,162,173,168,1,12914
147.678190947,-2,28,-1,0,29,6,0,22,1,-8,0,24,121,-10,172,169,0,0,170,171,182,151,1,12915
147.686906099,-2,29,-1,2,42,0,1,35,3,16,169,222,127,-6,176,169,0,0,166,170,203,135,1,12916
147.696985006,-2,29,-1,5,45,0,3,43,0,-35,-107,13,118,-3,168,169,0,0,163,173,207,131,1,12917
147.706190109,-2,30,-1,2,48,2,3,46,1,23,44,122,119,-1,174,169,0,0,166,171,204,133,1,12918
147.734049082,-2,30,-1,1,39,2,1,44,2,-41,-172,61,115,0,187,169,0,0,169,168,196,140,1,12919
147.742907047,-1,31,-1,2,49,-3,1,44,0,67,218,30,115,8,199,169,0,0,165,168,202,139,1,12920
147.752155066,-1,31,-1,4,39,5,3,44,1,236,-10,230,115,5,207,169,0,0,166,173,198,136,1,12921
147.76671195,-1,31,-1,6,41,-3,5,40,0,-41,72,4,113,8,205,169,0,0,160,172,194,148,1,12922
147.789220095,-1,31,-1,0,47,8,3,44,2,49,110,94,114,14,206,169,0,0,171,171,200,132,1,12923
147.79914093,-1,32,-1,2,34,7,1,41,8,143,-54,125,116,18,206,169,0,0,172,170,191,141,1,12924
147.808105946,-1,32,-1,2,24,-3,2,29,2,-32,25,-72,110,14,194,169,0,0,163,170,177,164,1,12925
147.816946983,-1,32,-1,-1,15,1,0,20,0,194,-85,132,110,10,195,169,0,0,170,167,168,169,1,12926
147.845077991,0,32,-1,2,14,-3,0,15,0,103,-157,180,110,4,200,169,0,0,167,166,169,172,1,12927
147.854318142,0,32,-1,0,5,-13,0,10,-8,43,53,174,104,11,200,169,0,0,161,163,168,182,1,12928
147.863888025,0,32,-1,0,11,7,0,8,-3,75,89,91,101,8,209,169,0,0,172,169,161,171,1,12929
147.873023987,0,32,-1,2,8,0,1,9,3,125,243,230,100,14,207,169,0,0,165,170,168,171,1,12930
147.900866985,0,32,-1,0,13,2,1,10,1,73,-213,88,95,8,199,169,0,0,167,170,167,169,1,12931
147.909870148,0,32,-1,3,13,-1,1,13,0,-23,-27,90,95,5,211,169,0,0,165,169,173,167,1,12932
147.923314095,0,32,-1,0,11,-2,1,12,-2,39,90,114,95,9,211,169,0,0,165,168,169,172,1,12933
147.928900003,0,31,-1,0,15,2,0,13,0,-2,-74,196,98,0,210,169,0,0,170,168,170,166,1,12934
147.956002951,0,31,-1,0,9,2,0,12,2,18,11,241,94,5,206,169,0,0,169,168,168,169,1,12935
147.966086149,0,31,-1,0,18,1,0,13,1,57,-182,16,93,0,215,169,0,0,168,168,171,166,1,12936
147.978554964,0,31,-1,2,21,3,1,19,2,238,-93,160,93,-9,217,169,0,0,167,171,180,156,1,12937
147.984014034,0,31,-1,1,25,7,1,23,5,-32,-132,-4,93,-4,213,169,0,0,169,173,180,152,1,12938
148.011980057,0,31,-1,-1,27,5,0,26,6,179,116,94,96,-7,222,169,0,0,172,169,183,151,1,12939
148.021033049,0,31,-1,4,44,-3,1,35,1,-9,-244,40,90,-20,221,169,0,0,165,168,201,140,1,12940
148.030223131,0,31,-1,0,35,0,1,40,-1,163,-145,48,89,-16,223,169,0,0,166,170,199,139,1,12941
148.041160107,0,31,-1,1,37,2,0,36,1,128,10,42,90,-22,226,169,0,0,170,167,189,148,1,12942
148.070676088,0,31,-1,4,44,5,2,41,3,1,255,168,79,-16,223,169,0,0,166,174,198,136,1,12943
148.077051163,0,32,-1,0,50,5,2,47,5,160,-148,108,82,-12,220,169,0,0,168,172,206,128,1,12944
148.086081982,0,32,-1,4,49,2,2,49,3,-24,199,66,82,-11,217,169,0,0,167,171,206,131,1,12945
148.09591794,0,31,-1,0,46,6,1,47,4,87,203,124,79,-1,221,169,0,0,169,172,199,134,1,12946
148.123029947,0,31,-1,1,27,-1,0,36,2,79,-105,2,80,4,226,169,0,0,168,166,184,156,1,12947
148.13290906,0,31,-1,1,26,-4,1,26,-2,5,141,113,79,4,225,169,0,0,164,169,176,166,1,12948
148.142053127,0,31,-1,-2,14,0,0,20,-2,12,-100,136,74,7,224,169,0,0,170,166,172,167,1,12949
148.151170015,0,31,-1,5,27,-2,1,21,-1,89,106,169,74,8,226,169,0,0,164,170,179,161,1,12950
148.178885937,0,30,-1,0,12,0,2,20,-1,161,-147,221,74,4,222,169,0,0,165,171,176,162,1,12951
148.188202143,0,30,-1,2,17,0,0,15,0,104,-32,189,77,0,223,169,0,0,169,167,168,170,1,12952
148.197863102,0,30,-1,0,5,-1,0,11,0,-80,135,86,72,6,217,169,0,0,167,168,166,173,1,12953
148.207055092,0,30,-1,-1,1,-8,-1,3,-5,40,-42,159,72,0,211,169,0,0,168,161,159,187,1,12954
148.235056162,0,29,-1,-1,-4,4,-1,-1,-1,-7,151,162,72,4,214,169,0,0,172,168,151,184,1,12955
148.244111061,0,29,-1,-2,-2,-1,-1,-3,1,138,-38,127,69,0,218,169,0,0,169,165,153,186,1,12956
148.253154039,0,29,-1,1,0,2,0,-1,0,-41,22,115,69,2,227,169,0,0,168,169,158,179,1,12957
148.262938023,0,28,-1,3,7,-1,2,3,0,129,-121,86,65,-8,226,169,0,0,163,172,167,172,1,12958
148.290930033,0,28,-1,2,10,1,2,9,0,-6,106,15,66,-1,218,169,0,0,166,171,172,166,1,12959
148.299997091,0,28,-1,2,16,-4,2,13,-1,-30,-191,27,63,-11,218,169,0,0,164,168,177,165,1,12960
148.309030056,0,28,-1,2,15,-11,2,16,-8,62,173,101,59,-6,209,169,0,0,161,166,181,167,1,12961
148.318331003,0,27,-1,0,21,-2,1,18,-6,82,-184,8,62,-13,209,169,0,0,166,168,180,160,1,12962
148.345997095,0,27,-1,0,21,1,0,21,0,30,111,43,62,-13,208,169,0,0,170,167,182,156,1,12963
148.355000019,0,27,-1,0,24,0,0,23,0,78,-4,230,60,-18,210,169,0,0,169,167,182,156,1,12964
148.364916086,0,27,-1,3,31,0,1,28,0,69,-100,57,62,-21,220,169,0,0,165,171,190,148,1,12965
148.37439394,0,27,-1,1,38,7,2,34,4,11,-161,-1,58,-23,216,169,0,0,168,174,195,137,1,12966
148.402076006,0,27,-1,-3,28,6,0,33,6,146,58,133,59,-17,209,169,0,0,174,167,187,147,1,12967
148.411188126,-1,27,-1,3,32,-6,0,30,0,46,-39,5,59,-26,205,169,0,0,165,166,188,155,1,12968
148.419952154,-1,27,-1,0,28,-1,2,30,-4,67,-18,116,59,-29,199,169,0,0,164,170,189,150,1,12969
148.429909945,-1,26,-1,2,31,0,1,29,0,151,-208,8,60,-40,200,169,0,0,168,168,187,151,1,12970
148.457980156,-1,26,-1,2,27,-3,2,29,-1,-92,255,72,55,-29,199,169,0,0,164,168,189,153,1,12971
148.467049122,-1,26,-1,0,18,1,1,23,-1,-6,252,241,56,-22,197,169,0,0,168,168,176,161,1,12972
148.475983143,-2,26,-1,5,20,2,2,19,1,-104,-197,191,52,-29,199,169,0,0,166,172,174,162,1,12973
148.48547411,-2,26,-1,0,15,3,2,17,3,-9,152,216,52,-23,199,169,0,0,167,171,174,162,1,12974
148.51305604,-2,26,-1,-1,1,-2,0,8,0,198,-231,42,57,-29,201,169,0,0,171,162,161,180,1,12975
148.522196054,-2,25,-1,-1,-2,0,-1,0,-1,98,211,236,58,-19,200,169,0,0,171,165,152,187,1,12976
148.531912088,-2,25,-1,0,-5,-2,0,-4,-1,100,4,89,54,-17,204,169,0,0,167,166,154,187,1,12977
148.541134119,-2,25,-1,2,5,-1,1,0,-1,-1,-169,174,55,-18,209,169,0,0,165,169,164,176,1,12978
148.568961143,-2,24,-1,-1,0,-2,0,3,-1,38,-151,120,51,-24,203,169,0,0,168,166,167,173,1,12979
148.578067064,-2,24,-1,3,10,4,1,5,1,-44,-22,134,50,-19,205,169,0,0,170,170,166,169,1,12980
148.58694911,-2,24,-1,0,2,-1,1,6,1,30,51,195,47,-14,203,169,0,0,167,168,167,172,1,12981
148.596904039,-2,23,-1,-2,-5,-1,-1,-1,-1,47,-80,8,45,-16,202,169,0,0,172,162,153,187,1,12982
148.624112129,-2,23,-1,0,-4,0,0,-4,0,-84,177,195,43,-18,209,169,0,0,169,167,153,185,1,12983
148.63402915,-3,23,-1,-3,1,-5,-1,-1,-2,43,-15,158,40,-21,210,169,0,0,168,163,164,179,1,12984
148.642876148,-3,22,-1,0,6,6,-1,3,0,67,170,6,42,-22,215,169,0,0,173,168,166,167,1,12985
