TiempoEjecucion,AnguloPitch,AnguloRoll,AnguloYaw,G_Pitch,G_Roll,G_Yaw,G_Pitch_filtrada,G_Roll_filtrada,G_Yaw_filtrada,Ax,Ay,Az,Ax_filtrada,Ay_filtrada,Az_filtrada,posZ,posZ_filtrada,velZ,motorDelantero,motorTrasero,motorDerecho,motorIzquierdo,EstadoEncendido,MensajesRecibidos
123.025682927,0,-1,-28,0,0,0,0,0,0,-8,1,234,-8,2,235,6,5,0,0,0,0,0,0,11175
123.036750079,0,-1,-28,0,0,0,0,0,0,-8,1,234,-8,2,235,6,5,0,0,0,0,0,0,11176
123.0480721,0,-1,-28,0,0,0,0,0,0,-8,2,233,-8,2,235,6,5,0,0,0,0,0,0,11177
123.061537028,0,-1,-28,0,0,0,0,0,0,-8,2,233,-8,2,235,6,5,0,0,0,0,0,0,11178
123.070203066,0,-1,-28,0,0,0,0,0,0,-8,2,233,-8,2,235,6,5,0,0,0,0,0,0,11179
123.080845118,0,-1,-28,0,0,0,0,0,0,-7,2,235,-8,2,234,6,5,0,0,0,0,0,0,11180
123.09267807,0,-1,-28,0,0,0,0,0,0,-7,2,235,-8,2,234,6,5,0,0,0,0,0,0,11181
123.102898121,0,-1,-28,0,0,0,0,0,0,-7,2,235,-8,2,234,6,5,0,0,0,0,0,0,11182
123.113862992,0,-1,-28,0,0,0,0,0,0,-8,2,235,-8,2,234,6,5,0,0,0,0,0,0,11183
123.124769926,0,-1,-28,0,0,0,0,0,0,-8,2,235,-8,2,234,6,5,0,0,0,0,0,0,11184
123.13579011,0,-1,-28,0,0,0,0,0,0,-8,2,234,-7,2,234,6,5,0,0,0,0,0,0,11185
123.146858931,0,-1,-28,0,0,0,0,0,0,-8,2,234,-7,2,234,6,5,0,0,0,0,0,0,11186
123.15801096,0,-1,-28,0,0,0,0,0,0,-8,2,234,-7,2,234,6,5,0,0,0,0,0,0,11187
123.168785096,0,-1,-28,0,0,0,0,0,0,-8,2,234,-7,2,234,6,5,0,0,0,0,0,0,11188
123.181194067,0,-1,-28,0,0,0,0,0,0,-8,2,234,-7,2,234,6,5,0,0,0,0,0,0,11189
123.192146063,0,-1,-28,0,0,0,0,0,0,-8,2,234,-7,2,234,6,5,0,0,0,0,0,0,11190
123.20176816,0,-1,-28,0,0,0,0,0,0,-8,3,234,-7,2,234,6,5,0,0,0,0,0,0,11191
123.212798119,0,-1,-28,0,0,0,0,0,0,-8,3,234,-7,2,234,6,5,0,0,0,0,0,0,11192
123.225729943,0,-1,-28,0,0,0,0,0,0,-8,3,234,-7,2,234,6,5,0,0,0,0,0,0,11193
123.234801054,0,-1,-28,0,0,0,0,0,0,-9,4,234,-7,2,234,6,5,0,0,0,0,0,0,11194
123.245882988,0,-1,-28,0,0,0,0,0,0,-9,4,234,-7,2,234,6,5,0,0,0,0,0,0,11195
123.256840945,0,-1,-28,0,0,0,0,0,0,-8,2,235,-7,2,234,6,5,0,0,0,0,0,0,11196
123.267825127,0,-1,-28,0,0,0,0,0,0,-8,2,235,-7,2,234,6,5,0,0,0,0,0,0,11197
123.277810097,0,-1,-28,0,0,0,0,0,0,-8,2,235,-7,2,234,6,5,0,0,0,0,0,0,11198
123.288833142,0,-1,-28,0,0,0,0,0,0,-8,2,235,-8,2,234,6,5,0,0,0,0,0,0,11199
123.299860001,0,-1,-28,0,0,0,0,0,0,-8,2,235,-8,2,234,6,5,0,0,0,0,0,0,11200
123.310884953,0,-1,-28,0,0,0,0,0,0,-8,2,235,-8,2,234,6,5,0,0,0,0,0,0,11201
123.321944952,0,-1,-28,0,0,0,0,0,0,-8,2,235,-8,2,234,6,5,0,0,0,0,0,0,11202
123.33285904,0,-1,-28,0,0,0,0,0,0,-7,2,234,-8,2,234,6,5,0,0,0,0,0,0,11203
123.343879939,0,-1,-28,0,0,0,0,0,0,-7,2,234,-8,2,234,6,5,0,0,0,0,0,0,11204
123.354815007,0,-1,-28,0,0,0,0,0,0,-7,2,234,-8,2,234,6,5,0,0,0,0,0,0,11205
123.365879059,0,-1,-28,0,0,0,0,0,0,-7,2,234,-8,2,234,6,5,0,0,0,0,0,0,11206
123.377727986,0,-1,-28,0,0,0,0,0,0,-7,2,234,-8,2,234,6,5,0,0,0,0,0,0,11207
123.387840987,0,-1,-28,0,0,0,0,0,0,-7,2,234,-8,2,235,6,5,0,0,0,0,0,0,11208
123.398895979,0,-1,-28,0,0,0,0,0,0,-7,2,234,-8,2,235,6,5,0,0,0,0,0,0,11209
123.409893036,0,-1,-28,0,0,0,0,0,0,-7,2,234,-8,2,235,6,5,0,0,0,0,0,0,11210
123.420840979,0,-1,-28,0,0,0,0,0,0,-8,2,236,-8,2,235,6,5,0,0,0,0,0,0,11211
123.431993008,0,-1,-28,0,0,0,0,0,0,-8,2,236,-8,2,235,6,5,0,0,0,0,0,0,11212
123.442841053,0,-1,-28,0,0,0,0,0,0,-8,2,236,-8,3,235,6,5,0,0,0,0,0,0,11213
123.453913928,0,-1,-28,0,0,0,0,0,0,-8,2,236,-8,3,235,6,5,0,0,0,0,0,0,11214
123.464982987,0,-1,-28,0,0,0,0,0,0,-8,2,235,-8,2,235,6,5,0,0,0,0,0,0,11215
123.475932122,0,-1,-28,0,0,0,0,0,0,-8,2,235,-8,2,235,6,5,0,0,0,0,0,0,11216
123.489630938,0,-1,-28,0,0,0,0,0,0,-8,2,234,-8,2,235,6,5,0,0,0,0,0,0,11217
123.497925044,0,-1,-28,0,0,0,0,0,0,-8,2,234,-8,2,235,6,5,0,0,0,0,0,0,11218
123.508954049,0,-1,-28,0,0,0,0,0,0,-8,2,234,-8,2,235,6,5,0,0,0,0,0,0,11219
123.519937039,0,-1,-28,0,0,0,0,0,0,-8,2,234,-8,2,235,6,5,0,0,0,0,0,0,11220
123.530841113,0,-1,-28,0,0,0,0,0,0,-8,2,235,-8,2,235,6,5,0,0,0,0,0,0,11221
123.542088986,0,-1,-28,0,0,0,0,0,0,-8,2,235,-8,2,235,6,5,0,0,0,0,0,0,11222
123.552802086,0,-1,-28,0,0,0,0,0,0,-8,1,234,-8,2,235,6,5,0,0,0,0,0,0,11223
123.563980103,0,-1,-28,0,0,0,0,0,0,-8,1,234,-8,2,235,6,5,0,0,0,0,0,0,11224
123.574872971,0,-1,-28,0,0,0,0,0,0,-8,2,235,-8,2,235,6,5,0,0,0,0,0,0,11225
123.585920096,0,-1,-28,0,0,0,0,0,0,-8,2,235,-8,2,235,6,5,0,0,0,0,0,0,11226
123.597949028,0,-1,-28,0,0,0,0,0,0,-8,2,235,-8,2,235,6,5,0,0,0,0,0,0,11227
123.607824088,0,-1,-28,0,0,0,0,0,0,-8,2,234,-8,2,235,6,5,0,0,0,0,0,0,11228
123.61905098,0,-1,-28,0,0,0,0,0,0,-8,2,234,-8,2,235,6,5,0,0,0,0,0,0,11229
123.632883072,0,-1,-28,0,0,0,0,0,0,-8,1,234,-8,2,235,6,5,0,0,0,0,0,0,11230
123.643973113,0,-1,-28,0,0,0,0,0,0,-8,1,234,-8,2,235,6,5,0,0,0,0,0,0,11231
123.654822112,0,-1,-28,0,0,0,0,0,0,-8,1,234,-8,2,235,6,5,0,0,0,0,0,0,11232
123.665792942,0,-1,-28,0,0,0,0,0,0,-8,1,234,-8,2,235,6,5,0,0,0,0,0,0,11233
123.677644968,0,-1,-28,0,0,0,0,0,0,-8,1,234,-8,2,235,6,5,0,0,0,0,0,0,11234
123.687963963,0,-1,-28,0,0,0,0,0,0,-7,3,235,-8,2,235,6,5,0,0,0,0,0,0,11235
123.699001074,0,-1,-28,0,0,0,0,0,0,-7,3,235,-8,2,235,6,5,0,0,0,0,0,0,11236
123.70973301,0,-1,-28,0,0,0,0,0,0,-7,3,235,-8,2,235,6,5,0,0,0,0,0,0,11237
123.720809937,0,-1,-28,0,0,0,0,0,0,-8,2,235,-8,2,235,6,5,0,0,0,0,0,0,11238
123.731821061,0,-1,-28,0,0,0,0,0,0,-8,2,235,-8,2,235,6,5,0,0,0,0,0,0,11239
123.742849112,0,-1,-28,0,0,0,0,0,0,-8,2,235,-8,2,234,6,5,0,0,0,0,0,0,11240
123.754114151,0,-1,-28,0,0,0,0,0,0,-8,2,235,-8,2,234,6,5,0,0,0,0,0,0,11241
123.764869929,0,-1,-28,0,0,0,0,0,0,-8,2,234,-8,2,234,6,5,0,0,0,0,0,0,11242
123.775908947,0,-1,-28,0,0,0,0,0,0,-8,2,234,-8,2,234,6,5,0,0,0,0,0,0,11243
123.786926032,0,-1,-28,0,0,0,0,0,0,-8,2,236,-8,2,234,6,5,0,0,0,0,0,0,11244
123.797800065,0,-1,-28,0,0,0,0,0,0,-8,2,236,-8,2,234,6,5,0,0,0,0,0,0,11245
123.80885911,0,-1,-28,0,0,0,0,0,0,-8,2,235,-8,2,234,6,5,0,0,0,0,0,0,11246
123.819888115,0,-1,-28,0,0,0,0,0,0,-8,2,235,-8,2,234,6,5,0,0,0,0,0,0,11247
123.83088708,0,-1,-28,0,0,0,0,0,0,-9,3,234,-8,2,234,6,5,0,0,0,0,0,0,11248
123.841906071,0,-1,-28,0,0,0,0,0,0,-9,3,234,-8,2,234,6,5,0,0,0,0,0,0,11249
123.852983952,0,-1,-28,0,0,0,0,0,0,-8,3,234,-8,2,234,6,5,0,0,0,0,0,0,11250
123.863819123,0,-1,-28,0,0,0,0,0,0,-8,3,234,-8,2,234,6,5,0,0,0,0,0,0,11251
123.874940157,0,-1,-28,0,0,0,0,0,0,-7,2,235,-8,2,235,6,5,0,0,0,0,0,0,11252
123.885964156,0,-1,-28,0,0,0,0,0,0,-7,2,235,-8,2,235,6,5,0,0,0,0,0,0,11253
123.896809102,0,-1,-28,0,0,0,0,0,0,-7,2,235,-8,2,235,6,5,0,0,0,0,0,0,11254
123.907886982,0,-1,-28,0,0,0,0,0,0,-8,2,236,-8,2,235,6,5,0,0,0,0,0,0,11255
123.918885947,0,-1,-28,0,0,0,0,0,0,-8,2,236,-8,2,235,6,5,0,0,0,0,0,0,11256
123.92979908,0,-1,-28,0,0,0,0,0,0,-8,2,236,-8,2,235,6,5,0,0,0,0,0,0,11257
123.940987111,0,-1,-28,0,0,0,0,0,0,-8,2,235,-8,2,235,6,5,0,0,0,0,0,0,11258
123.951875925,0,-1,-28,0,0,0,0,0,0,-8,2,235,-8,2,235,6,5,0,0,0,0,0,0,11259
123.962851048,0,-1,-28,0,0,0,0,0,0,-7,2,236,-8,2,235,6,5,0,0,0,0,0,0,11260
123.974075079,0,-1,-28,0,0,0,0,0,0,-7,2,236,-8,2,235,6,5,0,0,0,0,0,0,11261
123.984982968,0,-1,-28,0,0,0,0,0,0,-8,2,235,-8,2,235,6,5,0,0,0,0,0,0,11262
123.996009112,0,-1,-28,0,0,0,0,0,0,-8,2,235,-8,2,235,6,5,0,0,0,0,0,0,11263
124.006962061,0,-1,-28,0,0,0,0,0,0,-8,2,235,-8,2,235,6,5,0,0,0,0,0,0,11264
124.020489932,0,-1,-28,0,0,0,0,0,0,-8,2,235,-8,2,235,6,5,0,0,0,0,0,0,11265
124.028887034,0,-1,-28,0,0,0,0,0,0,-8,2,235,-8,2,235,6,5,0,0,0,0,0,0,11266
124.039817095,0,-1,-28,0,0,0,0,0,0,-9,1,235,-8,2,235,6,5,0,0,0,0,0,0,11267
124.051123143,0,-1,-28,0,0,0,0,0,0,-9,1,235,-8,2,235,6,5,0,0,0,0,0,0,11268
124.064090014,0,-1,-28,0,0,0,0,0,0,-9,1,235,-8,2,235,6,5,0,0,0,0,0,0,11269
124.072824002,0,-1,-28,0,0,0,0,0,0,-9,2,236,-8,2,235,6,5,0,0,0,0,0,0,11270
124.083868981,0,-1,-28,0,0,0,0,0,0,-9,2,236,-8,2,235,6,5,0,0,0,0,0,0,11271
124.095087052,0,-1,-28,0,0,0,0,0,0,-9,2,236,-8,2,235,6,5,0,0,0,0,0,0,11272
124.105812073,0,-1,-28,0,0,0,0,0,0,-9,2,236,-8,2,235,6,5,0,0,0,0,0,0,11273
124.117015124,0,-1,-28,0,0,0,0,0,0,-9,2,235,-8,2,235,6,5,0,0,0,0,0,0,11274
124.127754927,0,-1,-28,0,0,0,0,0,0,-9,2,235,-8,2,235,6,5,0,0,0,0,0,0,11275
124.138837099,0,-1,-28,0,0,0,0,0,0,-8,2,237,-8,2,235,6,5,0,0,0,0,0,0,11276
124.149838925,0,-1,-28,0,0,0,0,0,0,-8,2,237,-8,2,235,6,5,0,0,0,0,0,0,11277
124.160836935,0,-1,-28,0,0,0,0,0,0,-9,3,235,-8,2,236,6,5,0,0,0,0,0,0,11278
124.171888113,0,-1,-28,0,0,0,0,0,0,-9,3,235,-8,2,236,6,5,0,0,0,0,0,0,11279
124.182918072,0,-1,-28,0,0,0,0,0,0,-9,2,237,-8,2,236,6,5,0,0,0,0,0,0,11280
124.193784953,0,-1,-28,0,0,0,0,0,0,-9,2,237,-8,2,236,6,5,0,0,0,0,0,0,11281
124.20479393,0,-1,-28,0,0,0,0,0,0,-9,2,236,-8,2,236,6,5,0,0,0,0,0,0,11282
124.215944052,0,-1,-28,0,0,0,0,0,0,-9,2,236,-8,2,236,6,5,0,0,0,0,0,0,11283
124.226846934,0,-1,-28,0,0,0,0,0,0,-9,2,235,-9,2,236,6,5,0,0,0,0,0,0,11284
124.23782301,0,-1,-28,0,0,0,0,0,0,-9,2,235,-9,2,236,6,5,0,0,0,0,0,0,11285
124.248842955,0,-1,-28,0,0,0,0,0,0,-9,2,235,-9,2,236,6,5,0,0,0,0,0,0,11286
124.260107041,0,-1,-28,0,0,0,0,0,0,-9,2,235,-9,2,236,6,5,0,0,0,0,0,0,11287
124.270956994,0,-1,-28,0,0,0,0,0,0,-8,2,235,-9,2,236,6,5,0,0,0,0,0,0,11288
124.281989098,0,-1,-28,0,0,0,0,0,0,-8,2,235,-9,2,236,6,5,0,0,0,0,0,0,11289
124.29358697,0,-1,-28,0,0,0,0,0,0,-9,3,234,-9,2,236,6,5,0,0,0,0,0,0,11290
124.305665017,0,-1,-28,0,0,0,0,0,0,-9,3,234,-9,2,236,6,5,0,0,0,0,0,0,11291
124.315098048,0,-1,-28,0,0,0,0,0,0,-8,3,234,-9,2,236,6,5,0,0,0,0,0,0,11292
124.325786114,0,-1,-28,0,0,0,0,0,0,-8,3,234,-9,2,236,6,5,0,0,0,0,0,0,11293
124.337260008,0,-1,-28,0,0,0,0,0,0,-8,3,235,-9,2,236,6,5,0,0,0,0,0,0,11294
124.347806931,0,-1,-28,0,0,0,0,0,0,-8,3,235,-9,2,236,6,5,0,0,0,0,0,0,11295
124.361186982,0,-1,-28,0,0,0,0,0,0,-8,2,235,-9,2,236,6,5,0,0,0,0,0,0,11296
124.369859934,0,-1,-28,0,0,0,0,0,0,-8,2,235,-9,2,236,6,5,0,0,0,0,0,0,11297
124.380887032,0,-1,-28,0,0,0,0,0,0,-9,2,235,-9,2,236,6,5,0,0,0,0,0,0,11298
124.391791106,0,-1,-28,0,0,0,0,0,0,-9,2,235,-9,2,236,6,5,0,0,0,0,0,0,11299
124.402832032,0,-1,-28,0,0,0,0,0,0,-9,1,236,-8,2,235,6,5,0,0,0,0,0,0,11300
124.413737059,0,-1,-28,0,0,0,0,0,0,-9,1,236,-8,2,235,6,5,0,0,0,0,0,0,11301
124.424834013,0,-1,-28,0,0,0,0,0,0,-8,2,235,-8,2,235,6,5,0,0,0,0,0,0,11302
124.435833931,0,-1,-28,0,0,0,0,0,0,-8,2,235,-8,2,235,6,5,0,0,0,0,0,0,11303
124.446839095,0,-1,-28,0,0,0,0,0,0,-8,2,235,-8,2,235,6,5,0,0,0,0,0,0,11304
124.457762957,0,-1,-28,0,0,0,0,0,0,-8,2,235,-8,2,235,6,5,0,0,0,0,0,0,11305
124.467829943,0,-1,-28,0,0,0,0,0,0,-8,3,234,-8,2,235,6,5,0,0,0,0,0,0,11306
124.478799105,0,-1,-28,0,0,0,0,0,0,-8,3,234,-8,2,235,6,5,0,0,0,0,0,0,11307
124.489915133,0,-1,-28,0,0,0,0,0,0,-7,2,234,-8,2,235,6,5,0,0,0,0,0,0,11308
124.50088501,0,-1,-28,0,0,0,0,0,0,-7,2,234,-8,2,235,6,5,0,0,0,0,0,0,11309
124.511892081,0,-1,-28,0,0,0,0,0,0,-7,1,236,-8,2,235,6,5,0,0,0,0,0,0,11310
124.522829056,0,-1,-28,0,0,0,0,0,0,-7,1,236,-8,2,235,6,5,0,0,0,0,0,0,11311
124.533967019,0,-1,-28,0,0,0,0,0,0,-7,2,235,-8,2,235,6,5,0,0,0,0,0,0,11312
124.544954062,0,-1,-28,0,0,0,0,0,0,-7,2,235,-8,2,235,6,5,0,0,0,0,0,0,11313
124.555819035,0,-1,-28,0,0,0,0,0,0,-7,1,235,-8,2,235,6,5,0,0,0,0,0,0,11314
124.566841126,0,-1,-28,0,0,0,0,0,0,-7,1,235,-8,2,235,6,5,0,0,0,0,0,0,11315
124.577930928,0,-1,-28,0,0,0,0,0,0,-7,2,234,-8,2,235,6,5,0,0,0,0,0,0,11316
124.589108944,0,-1,-28,0,0,0,0,0,0,-7,2,234,-8,2,235,6,5,0,0,0,0,0,0,11317
124.599838019,0,-1,-28,0,0,0,0,0,0,-8,2,233,-8,2,235,6,5,0,0,0,0,0,0,11318
124.610857964,0,-1,-28,0,0,0,0,0,0,-8,2,233,-8,2,235,6,5,0,0,0,0,0,0,11319
124.621995926,0,-1,-28,0,0,0,0,0,0,-8,1,235,-8,2,235,6,5,0,0,0,0,0,0,11320
124.63281107,0,-1,-28,0,0,0,0,0,0,-8,1,235,-8,2,235,6,5,0,0,0,0,0,0,11321
124.643931151,0,-1,-28,0,0,0,0,0,0,-8,1,235,-8,2,235,6,5,0,0,0,0,0,0,11322
124.654791117,0,-1,-28,0,0,0,0,0,0,-8,2,235,-8,2,235,6,5,0,0,0,0,0,0,11323
124.669501067,0,-1,-28,0,0,0,0,0,0,-8,2,235,-8,2,235,6,5,0,0,0,0,0,0,11324
124.676972151,0,-1,-28,0,0,0,0,0,0,-8,3,235,-7,2,235,6,5,0,0,0,0,0,0,11325
124.688045979,0,-1,-28,0,0,0,0,0,0,-8,3,235,-7,2,235,6,5,0,0,0,0,0,0,11326
124.700752974,0,-1,-28,0,0,0,0,0,0,-9,2,234,-7,2,235,6,5,0,0,0,0,0,0,11327
124.709917069,0,-1,-28,0,0,0,0,0,0,-9,2,234,-7,2,235,6,5,0,0,0,0,0,0,11328
124.72079897,0,-1,-28,0,0,0,0,0,0,-9,2,234,-7,2,235,6,5,0,0,0,0,0,0,11329
124.731776953,0,-1,-28,0,0,0,0,0,0,-8,3,234,-7,2,235,6,5,0,0,0,0,0,0,11330
124.743000031,0,-1,-28,0,0,0,0,0,0,-8,3,234,-7,2,235,6,5,0,0,0,0,0,0,11331
124.753875018,0,-1,-28,0,0,0,0,0,0,-8,2,235,-7,2,235,6,5,0,0,0,0,0,0,11332
124.764867068,0,-1,-28,0,0,0,0,0,0,-8,2,235,-7,2,235,6,5,0,0,0,0,0,0,11333
124.775979042,0,-1,-28,0,0,0,0,0,0,-8,2,235,-7,2,235,6,5,0,0,0,0,0,0,11334
124.786827088,0,-1,-28,0,0,0,0,0,0,-9,2,235,-7,2,235,6,5,0,0,0,0,0,0,11335
124.797915936,0,-1,-28,0,0,0,0,0,0,-9,2,235,-7,2,235,6,5,0,0,0,0,0,0,11336
124.80876112,0,-1,-28,0,0,0,0,0,0,-9,3,236,-7,2,235,6,5,0,0,0,0,0,0,11337
124.82008195,0,-1,-28,0,0,0,0,0,0,-9,3,236,-7,2,235,6,5,0,0,0,0,0,0,11338
124.830830098,0,-1,-28,0,0,0,0,0,0,-9,2,235,-8,2,235,6,5,0,0,0,0,0,0,11339
124.84183693,0,-1,-28,0,0,0,0,0,0,-9,2,235,-8,2,235,6,5,0,0,0,0,0,0,11340
124.852978945,0,-1,-28,0,0,0,0,0,0,-9,2,235,-8,2,235,6,5,0,0,0,0,0,0,11341
124.863866091,0,-1,-28,0,0,0,0,0,0,-8,2,235,-8,2,235,6,5,0,0,0,0,0,0,11342
124.874908925,0,-1,-28,0,0,0,0,0,0,-8,2,235,-8,2,235,6,5,0,0,0,0,0,0,11343
124.885802985,0,-1,-28,0,0,0,0,0,0,-7,2,236,-8,2,235,6,5,0,0,0,0,0,0,11344
124.896811963,0,-1,-28,0,0,0,0,0,0,-7,2,236,-8,2,235,6,5,0,0,0,0,0,0,11345
124.907926083,0,-1,-28,0,0,0,0,0,0,-7,2,236,-8,2,235,6,5,0,0,0,0,0,0,11346
124.918956042,0,-1,-28,0,0,0,0,0,0,-8,2,235,-8,2,235,6,5,0,0,0,0,0,0,11347
124.929831982,0,-1,-28,0,0,0,0,0,0,-8,2,235,-8,2,235,6,5,0,0,0,0,0,0,11348
124.9416461,0,-1,-28,0,0,0,0,0,0,-8,2,235,-8,2,235,6,5,0,0,0,0,0,0,11349
124.951951027,0,-1,-28,0,0,0,0,0,0,-8,2,235,-8,2,235,6,5,0,0,0,0,0,0,11350
124.962859154,0,-1,-28,0,0,0,0,0,0,-7,2,234,-8,2,235,6,5,0,0,0,0,0,0,11351
124.97398305,0,-1,-28,0,0,0,0,0,0,-7,2,234,-8,2,235,6,5,0,0,0,0,0,0,11352
124.984889985,0,-1,-28,0,0,0,0,0,0,-7,2,234,-8,2,235,6,5,0,0,0,0,0,0,11353
124.995842934,0,-1,-28,0,0,0,0,0,0,-8,1,233,-8,2,235,6,5,0,0,0,0,0,0,11354
125.006991148,0,-1,-28,0,0,0,0,0,0,-8,1,233,-8,2,235,6,5,0,0,0,0,0,0,11355
125.017848015,0,-1,-28,0,0,0,0,0,0,-8,0,234,-8,2,235,6,5,0,0,0,0,0,0,11356
125.028862,0,-1,-28,0,0,0,0,0,0,-8,0,234,-8,2,235,6,5,0,0,0,0,0,0,11357
125.039865971,0,-1,-28,0,0,0,0,0,0,-8,0,234,-8,2,235,6,5,0,0,0,0,0,0,11358
125.051102162,0,-1,-28,0,0,0,0,0,0,-8,1,234,-8,2,235,6,5,0,0,0,0,0,0,11359
125.061864138,0,-1,-28,0,0,0,0,0,0,-8,1,234,-8,2,235,6,5,0,0,0,0,0,0,11360
125.072945118,0,-1,-28,0,0,0,0,0,0,-8,2,233,-8,2,235,6,5,0,0,0,0,0,0,11361
125.083770991,0,-1,-28,0,0,0,0,0,0,-8,2,233,-8,2,235,6,5,0,0,0,0,0,0,11362
125.094838143,0,-1,-28,0,0,0,0,0,0,-8,2,233,-8,2,235,6,5,0,0,0,0,0,0,11363
125.105934143,0,-1,-28,0,0,0,0,0,0,-8,2,233,-8,2,235,6,5,0,0,0,0,0,0,11364
125.116884947,0,-1,-28,0,0,0,0,0,0,-8,2,233,-8,2,235,6,5,0,0,0,0,0,0,11365
125.129784108,0,-1,-28,0,0,0,0,0,0,-8,2,233,-8,2,235,6,5,0,0,0,0,0,0,11366
125.138929129,0,-1,-28,0,0,0,0,0,0,-8,2,235,-8,2,234,6,5,0,0,0,0,0,0,11367
125.149873019,0,-1,-28,0,0,0,0,0,0,-8,2,235,-8,2,234,6,5,0,0,0,0,0,0,11368
125.161673069,0,-1,-28,0,0,0,0,0,0,-8,2,235,-8,2,234,6,5,0,0,0,0,0,0,11369
125.171787978,0,-1,-28,0,0,0,0,0,0,-9,2,234,-8,1,234,6,5,0,0,0,0,0,0,11370
125.18284607,0,-1,-28,0,0,0,0,0,0,-9,2,234,-8,1,234,6,5,0,0,0,0,0,0,11371
125.194366932,0,-1,-28,0,0,0,0,0,0,-9,2,233,-8,1,234,6,5,0,0,0,0,0,0,11372
125.204946042,0,-1,-28,0,0,0,0,0,0,-9,2,233,-8,1,234,6,5,0,0,0,0,0,0,11373
125.219295025,0,-1,-28,0,0,0,0,0,0,-9,2,233,-8,1,234,6,5,0,0,0,0,0,0,11374
125.226843119,0,-1,-28,0,0,0,0,0,0,-8,2,235,-8,1,234,6,5,0,0,0,0,0,0,11375
125.237802029,0,-1,-28,0,0,0,0,0,0,-8,2,235,-8,1,234,6,5,0,0,0,0,0,0,11376
125.249660016,0,-1,-28,0,0,0,0,0,0,-7,2,235,-8,1,234,6,5,0,0,0,0,0,0,11377
125.25978899,0,-1,-28,0,0,0,0,0,0,-7,2,235,-8,1,234,6,5,0,0,0,0,0,0,11378
125.270903111,0,-1,-28,0,0,0,0,0,0,-7,3,235,-8,2,234,6,5,0,0,0,0,0,0,11379
125.281873942,0,-1,-28,0,0,0,0,0,0,-7,3,235,-8,2,234,6,5,0,0,0,0,0,0,11380
125.29280305,0,-1,-28,0,0,0,0,0,0,-7,3,235,-8,2,234,6,5,0,0,0,0,0,0,11381
125.303974152,0,-1,-28,0,0,0,0,0,0,-7,2,234,-8,2,234,6,5,0,0,0,0,0,0,11382
125.315128088,0,-1,-28,0,0,0,0,0,0,-7,2,234,-8,2,234,6,5,0,0,0,0,0,0,11383
125.325978041,0,-1,-28,0,0,0,0,0,0,-8,1,234,-8,2,234,6,5,0,0,0,0,0,0,11384
125.336879969,0,-1,-28,0,0,0,0,0,0,-8,1,234,-8,2,234,6,5,0,0,0,0,0,0,11385
125.347927094,0,-1,-28,0,0,0,0,0,0,-8,1,234,-8,2,234,6,5,0,0,0,0,0,0,11386
125.358828068,0,-1,-28,0,0,0,0,0,0,-7,2,234,-8,2,234,6,5,0,0,0,0,0,0,11387
125.369838953,0,-1,-28,0,0,0,0,0,0,-7,2,234,-8,2,234,6,5,0,0,0,0,0,0,11388
125.380819083,0,-1,-28,0,0,0,0,0,0,-8,2,235,-8,2,234,6,5,0,0,0,0,0,0,11389
125.391853095,0,-1,-28,0,0,0,0,0,0,-8,2,235,-8,2,234,6,5,0,0,0,0,0,0,11390
125.402851105,0,-1,-28,0,0,0,0,0,0,-9,2,236,-8,2,234,6,5,0,0,0,0,0,0,11391
125.413918019,0,-1,-28,0,0,0,0,0,0,-9,2,236,-8,2,234,6,5,0,0,0,0,0,0,11392
125.424817086,0,-1,-28,0,0,0,0,0,0,-9,2,236,-8,2,234,6,5,0,0,0,0,0,0,11393
125.441686154,0,-1,-28,0,0,0,0,0,0,-9,2,234,-8,2,235,6,5,0,0,0,0,0,0,11394
125.446920157,0,-1,-28,0,0,0,0,0,0,-9,2,234,-8,2,235,6,5,0,0,0,0,0,0,11395
125.456830025,0,-1,-28,0,0,0,0,0,0,-9,2,234,-8,2,235,6,5,0,0,0,0,0,0,11396
125.467987061,0,-1,-28,0,0,0,0,0,0,-9,2,234,-8,2,235,6,5,0,0,0,0,0,0,11397
125.478798151,0,-1,-28,0,0,0,0,0,0,-9,2,234,-8,2,235,6,5,0,0,0,0,0,0,11398
125.49030304,0,-1,-28,0,0,0,0,0,0,-8,3,234,-8,2,235,6,5,0,0,0,0,0,0,11399
125.500959158,0,-1,-28,0,0,0,0,0,0,-8,3,234,-8,2,235,6,5,0,0,0,0,0,0,11400
125.512094021,0,-1,-28,0,0,0,0,0,0,-8,3,235,-8,2,235,6,5,0,0,0,0,0,0,11401
125.524551154,0,-1,-28,0,0,0,0,0,0,-8,3,235,-8,2,235,6,5,0,0,0,0,0,0,11402
125.533893109,0,-1,-28,0,0,0,0,0,0,-8,3,235,-8,2,235,6,5,0,0,0,0,0,0,11403
125.544832945,0,-1,-28,0,0,0,0,0,0,-9,1,235,-8,2,235,6,5,0,0,0,0,0,0,11404
125.55696702,0,-1,-28,0,0,0,0,0,0,-9,1,235,-8,2,235,6,5,0,0,0,0,0,0,11405
125.566831112,0,-1,-28,0,0,0,0,0,0,-8,2,234,-8,2,235,6,5,0,0,0,0,0,0,11406
125.577826024,0,-1,-28,0,0,0,0,0,0,-8,2,234,-8,2,235,6,5,0,0,0,0,0,0,11407
125.58879304,0,-1,-28,0,0,0,0,0,0,-8,2,235,-8,2,235,6,5,0,0,0,0,0,0,11408
125.599885941,0,-1,-28,0,0,0,0,0,0,-8,2,235,-8,2,235,6,5,0,0,0,0,0,0,11409
125.610901118,0,-1,-28,0,0,0,0,0,0,-8,2,235,-8,2,235,6,5,0,0,0,0,0,0,11410
125.624107123,0,-1,-28,0,0,0,0,0,0,-7,3,235,-8,2,234,6,5,0,0,0,0,0,0,11411
125.632863999,0,-1,-28,0,0,0,0,0,0,-7,3,235,-8,2,234,6,5,0,0,0,0,0,0,11412
125.645698071,0,-1,-28,0,0,0,0,0,0,-7,3,235,-8,2,234,6,5,0,0,0,0,0,0,11413
125.656702042,0,-1,-28,0,0,0,0,0,0,-7,3,235,-9,2,235,6,5,0,0,0,0,0,0,11414
125.665848971,0,-1,-28,0,0,0,0,0,0,-7,3,235,-9,2,235,6,5,0,0,0,0,0,0,11415
125.676818133,0,-1,-28,0,0,0,0,0,0,-8,3,235,-9,2,235,6,5,0,0,0,0,0,0,11416
125.687902928,0,-1,-28,0,0,0,0,0,0,-8,3,235,-9,2,235,6,5,0,0,0,0,0,0,11417
125.698807955,0,-1,-28,0,0,0,0,0,0,-7,2,236,-8,2,235,6,5,0,0,0,0,0,0,11418
125.713804961,0,-1,-28,0,0,0,0,0,0,-7,2,236,-8,2,235,6,5,0,0,0,0,0,0,11419
125.725965977,0,-1,-28,0,0,0,0,0,0,-8,2,235,-8,2,235,6,5,0,0,0,0,0,0,11420
125.73191309,0,-1,-28,0,0,0,0,0,0,-8,2,235,-8,2,235,6,5,0,0,0,0,0,0,11421
125.742830992,0,-1,-28,0,0,0,0,0,0,-8,3,234,-8,2,235,6,5,0,0,0,0,0,0,11422
125.753818989,0,-1,-28,0,0,0,0,0,0,-8,3,234,-8,2,235,6,5,0,0,0,0,0,0,11423
125.76486516,0,-1,-28,0,0,0,0,0,0,-8,2,233,-8,2,235,6,5,0,0,0,0,0,0,11424
125.775928021,0,-1,-28,0,0,0,0,0,0,-8,2,233,-8,2,235,6,5,0,0,0,0,0,0,11425
125.786751986,0,-1,-28,0,0,0,0,0,0,-8,3,235,-8,2,235,6,5,0,0,0,0,0,0,11426
125.797863007,0,-1,-28,0,0,0,0,0,0,-8,3,235,-8,2,235,6,5,0,0,0,0,0,0,11427
125.80892396,0,-1,-28,0,0,0,0,0,0,-7,3,235,-7,2,235,6,5,0,0,0,0,0,0,11428
125.819838047,0,-1,-28,0,0,0,0,0,0,-7,3,235,-7,2,235,6,5,0,0,0,0,0,0,11429
125.83089304,0,-1,-28,0,0,0,0,0,0,-7,3,235,-7,2,235,6,5,0,0,0,0,0,0,11430
125.842083931,0,-1,-28,0,0,0,0,0,0,-7,3,235,-7,2,235,6,5,0,0,0,0,0,0,11431
125.85285306,0,-1,-28,0,0,0,0,0,0,-8,3,236,-7,3,235,6,5,0,0,0,0,0,0,11432
125.865647078,0,-1,-28,0,0,0,0,0,0,-8,3,236,-7,3,235,6,5,0,0,0,0,0,0,11433
125.874895096,0,-1,-28,0,0,0,0,0,0,-8,3,236,-7,3,235,6,5,0,0,0,0,0,0,11434
125.886152983,0,-1,-28,0,0,0,0,0,0,-8,3,236,-7,3,235,6,5,0,0,0,0,0,0,11435
125.896836043,0,-1,-28,0,0,0,0,0,0,-9,3,235,-8,3,235,6,5,0,0,0,0,0,0,11436
125.90824914,0,-1,-28,0,0,0,0,0,0,-9,3,235,-8,3,235,6,5,0,0,0,0,0,0,11437
125.918869973,0,-1,-28,0,0,0,0,0,0,-9,3,235,-8,3,235,6,5,0,0,0,0,0,0,11438
125.929918051,0,-1,-28,0,0,0,0,0,0,-8,3,234,-8,3,235,6,5,0,0,0,0,0,0,11439
125.940858126,0,-1,-28,0,0,0,0,0,0,-8,3,234,-8,3,235,6,5,0,0,0,0,0,0,11440
125.951863051,0,-1,-28,0,0,0,0,0,0,-9,2,234,-8,3,235,6,5,0,0,0,0,0,0,11441
125.96290207,0,-1,-28,0,0,0,0,0,0,-9,2,234,-8,3,235,6,5,0,0,0,0,0,0,11442
125.973888159,0,-1,-28,0,0,0,0,0,0,-8,2,234,-8,3,235,6,5,0,0,0,0,0,0,11443
125.985129118,0,-1,-28,0,0,0,0,0,0,-8,2,234,-8,3,235,6,5,0,0,0,0,0,0,11444
125.995933056,0,-1,-28,0,0,0,0,0,0,-7,2,235,-8,3,235,6,5,0,0,0,0,0,0,11445
126.006900073,0,-1,-28,0,0,0,0,0,0,-7,2,235,-8,3,235,6,5,0,0,0,0,0,0,11446
126.018391133,0,-1,-28,0,0,0,0,0,0,-7,2,235,-8,3,235,6,5,0,0,0,0,0,0,11447
126.028834105,0,-1,-28,0,0,0,0,0,0,-7,2,235,-8,3,235,6,5,0,0,0,0,0,0,11448
126.042935133,0,-1,-28,0,0,0,0,0,0,-7,2,235,-8,3,235,6,5,0,0,0,0,0,0,11449
126.053811074,0,-1,-28,0,0,0,0,0,0,-7,2,235,-8,3,235,6,5,0,0,0,0,0,0,11450
126.064774037,0,-1,-28,0,0,0,0,0,0,-3,-7,233,-8,3,235,6,5,0,0,0,0,0,0,11451
126.075797081,0,-1,-28,2,0,1,0,0,0,-3,-7,233,-8,3,235,6,5,0,0,0,0,0,0,11452
126.086957932,0,-1,-28,2,0,1,0,0,0,-3,-7,233,-8,3,235,6,5,0,0,0,0,0,0,11453
126.097834111,0,-1,-28,4,0,1,0,0,0,0,-1,234,-8,2,235,6,5,0,0,0,0,0,0,11454
126.10881114,0,-1,-28,3,0,1,0,0,0,0,-1,234,-8,2,235,6,5,0,0,0,0,0,0,11455
126.124158144,0,-1,-28,4,0,1,0,0,0,-5,0,239,-8,2,235,6,5,0,0,0,0,0,0,11456
126.13389802,0,-1,-28,1,0,0,0,0,0,-5,0,239,-8,2,235,6,5,0,0,0,0,0,0,11457
126.144912005,0,-1,-28,1,0,0,0,0,0,-4,2,238,-7,2,235,6,5,0,0,0,0,0,0,11458
126.155910969,0,-1,-28,0,0,-1,1,0,0,-4,2,238,-7,2,235,6,5,0,0,0,0,0,0,11459
126.166846991,0,-1,-28,-1,0,-1,1,0,0,-4,2,238,-7,2,235,6,5,0,0,0,0,0,0,11460
126.178036929,0,-1,-28,-3,0,-2,2,0,1,-7,4,236,-7,1,235,6,5,0,0,0,0,0,0,11461
126.188847065,0,-1,-28,-4,0,-2,2,0,1,-7,4,236,-7,1,235,6,5,0,0,0,0,0,0,11462
126.199748993,0,-1,-28,-5,0,-2,2,0,0,-8,5,235,-6,0,235,6,5,0,0,0,0,0,0,11463
126.210884095,0,-1,-28,-5,0,-2,2,0,0,-8,5,235,-6,0,235,6,5,0,0,0,0,0,0,11464
126.221847058,0,-1,-28,-5,-1,-1,2,0,0,-8,5,235,-6,0,235,6,5,0,0,0,0,0,0,11465
126.232823134,0,-1,-28,-5,-1,-1,2,0,0,-8,-7,236,-5,0,235,6,5,0,0,0,0,0,0,11466
126.243905068,0,-1,-28,-3,-1,1,0,0,0,-8,-7,236,-5,0,235,6,5,0,0,0,0,0,0,11467
126.25483203,0,-1,-28,2,-1,1,0,0,-1,-2,-17,232,-5,0,235,6,5,0,0,0,0,0,0,11468
126.265763998,0,-1,-28,7,0,3,-2,0,-1,-2,-17,232,-5,0,235,6,5,0,0,0,0,0,0,11469
126.276872158,0,-1,-28,7,0,3,-2,0,-1,-1,-16,236,-4,0,236,6,5,0,0,0,0,0,0,11470
126.287981987,0,-1,-28,12,2,7,-3,0,-1,-1,-16,236,-4,0,236,6,5,0,0,0,0,0,0,11471
126.301818133,0,-1,-28,13,3,8,-4,0,-1,-1,-16,236,-4,0,236,6,5,0,0,0,0,0,0,11472
126.309787035,0,-1,-28,12,5,8,-3,0,0,-4,6,237,-4,0,236,6,5,0,0,0,0,0,0,11473
126.320853949,0,-1,-28,10,6,9,-1,0,0,-4,6,237,-4,0,236,6,5,0,0,0,0,0,0,11474
126.332137108,0,-1,-28,10,6,9,-1,0,0,-4,6,237,-4,0,236,6,5,0,0,0,0,0,0,11475
126.342886925,0,-1,-28,2,6,9,1,0,2,-8,21,235,-4,0,236,6,5,0,0,0,0,0,0,11476
126.353768111,0,-1,-28,-2,5,9,4,0,4,-8,21,235,-4,0,236,6,5,0,0,0,0,0,0,11477
126.364830971,0,-1,-28,-2,5,9,4,0,4,-14,27,235,-5,-1,236,6,5,0,0,0,0,0,0,11478
126.375859976,0,-1,-28,-13,1,8,8,1,6,-14,27,235,-5,-1,236,6,5,0,0,0,0,0,0,11479
126.38678813,0,-1,-28,-13,1,8,8,1,6,-16,25,234,-5,-2,236,6,5,0,0,0,0,0,0,11480
126.397837162,0,-1,-27,-18,-6,6,10,3,8,-16,25,234,-5,-2,236,6,5,0,0,0,0,0,0,11481
126.408753157,0,-1,-27,-18,-6,6,10,3,8,-14,4,234,-5,-2,236,6,5,0,0,0,0,0,0,11482
126.420254946,0,-1,-27,-13,-8,5,10,4,9,-14,4,234,-5,-2,236,6,5,0,0,0,0,0,0,11483
126.430896998,0,-1,-27,-7,-9,5,8,4,9,-14,-14,235,-6,-1,236,6,5,0,0,0,0,0,0,11484
126.441900015,0,-1,-27,7,-8,7,4,4,9,-14,-14,235,-6,-1,236,6,5,0,0,0,0,0,0,11485
126.45203805,0,-1,-27,7,-8,7,4,4,9,0,-19,236,-7,1,235,6,5,0,0,0,0,0,0,11486
126.463022948,0,0,-27,13,-5,7,0,3,9,0,-19,236,-7,1,235,6,5,0,0,0,0,0,0,11487
126.474173069,0,-1,-27,13,-5,7,0,3,9,0,-3,239,-8,4,235,6,5,0,0,0,0,0,0,11488
126.485793114,0,0,-27,15,6,10,-6,0,8,0,-3,239,-8,4,235,6,5,0,0,0,0,0,0,11489
126.495892048,0,-1,-27,15,6,10,-6,0,8,0,19,234,-9,7,235,6,5,0,0,0,0,0,0,11490
126.507004023,0,-1,-27,10,8,9,-9,-1,7,0,19,234,-9,7,235,6,5,0,0,0,0,0,0,11491
126.517890931,0,-1,-27,10,8,9,-9,-1,7,-9,35,229,-10,9,235,6,5,0,0,0,0,0,0,11492
126.528851986,0,-1,-27,-11,7,5,-10,-4,6,-9,35,229,-10,9,235,6,5,0,0,0,0,0,0,11493
126.539761067,0,-1,-27,-11,7,5,-10,-4,6,-14,34,230,-11,9,235,6,5,0,0,0,0,0,0,11494
126.550884009,0,-1,-27,-21,2,0,-7,-6,6,-14,34,230,-11,9,235,6,5,0,0,0,0,0,0,11495
126.561923027,0,-1,-27,-21,2,0,-7,-6,6,-21,11,228,-10,8,235,6,5,0,0,0,0,0,0,11496
126.572891951,0,-1,-27,-19,-5,-3,-3,-6,6,-21,11,228,-10,8,235,6,5,0,0,0,0,0,0,11497
126.583874941,0,-1,-27,-19,-5,-3,-3,-6,6,-21,-9,232,-9,7,235,6,5,0,0,0,0,0,0,11498
126.594817162,0,-1,-27,-7,-11,-3,1,-4,6,-21,-9,232,-9,7,235,6,5,0,0,0,0,0,0,11499
126.606147051,0,-1,-27,-7,-11,-3,1,-4,6,-21,-9,232,-9,7,235,6,5,0,0,0,0,0,0,11500
126.617165089,0,-1,-27,6,-11,-1,3,-1,6,0,-21,236,-8,7,235,6,5,0,0,0,0,0,0,11501
126.629591942,0,-1,-27,10,-9,0,3,0,5,0,-21,236,-8,7,235,6,5,0,0,0,0,0,0,11502
126.639111996,0,-1,-27,10,-9,0,3,0,5,3,-11,232,-8,7,234,6,5,0,0,0,0,0,0,11503
126.649845124,0,-1,-27,10,0,1,1,1,4,3,-11,232,-8,7,234,6,5,0,0,0,0,0,0,11504
126.661535979,0,-1,-27,8,3,2,-2,1,2,9,10,234,-8,9,233,6,5,0,0,0,0,0,0,11505
126.672265053,0,-1,-27,0,8,0,-4,0,0,9,10,234,-8,9,233,6,5,0,0,0,0,0,0,11506
126.682955981,0,-1,-27,0,8,0,-4,0,0,2,18,236,-8,9,233,6,5,0,0,0,0,0,0,11507
126.693861962,0,-1,-27,-4,10,-2,-5,-2,0,2,18,236,-8,9,233,6,5,0,0,0,0,0,0,11508
126.70478797,0,-1,-27,-7,9,-4,-4,-4,-1,-9,11,234,-8,9,232,6,5,0,0,0,0,0,0,11509
126.715850115,0,-1,-27,-7,9,-4,-4,-4,-1,-9,11,234,-8,9,232,6,5,0,0,0,0,0,0,11510
126.729789019,0,-1,-27,-5,6,-4,-1,-5,-2,-19,-16,232,-8,7,232,6,5,0,0,0,0,0,0,11511
126.740895033,0,-1,-27,2,0,-3,1,-4,-1,-19,-16,232,-8,7,232,6,5,0,0,0,0,0,0,11512
126.751780034,0,-1,-27,2,0,-3,1,-4,-1,-13,-12,236,-7,5,232,6,5,0,0,0,0,0,0,11513
126.762951136,0,-1,-27,10,-5,0,3,-1,-1,-13,-12,236,-7,5,232,6,5,0,0,0,0,0,0,11514
126.773828984,0,-1,-27,10,-5,0,3,-1,-1,-13,-12,236,-7,5,232,6,5,0,0,0,0,0,0,11515
126.784968138,0,-1,-27,9,-5,4,4,1,-1,-10,4,236,-6,3,232,6,5,0,0,0,0,0,0,11516
126.795784951,0,-1,-27,5,-3,5,3,5,-1,-10,4,236,-6,3,232,6,5,0,0,0,0,0,0,11517
126.806971074,0,-1,-27,0,-1,5,2,6,-1,-7,21,234,-5,1,233,6,5,0,0,0,0,0,0,11518
126.819868088,0,-1,-27,0,-1,5,2,6,-1,-7,21,234,-5,1,233,6,5,0,0,0,0,0,0,11519
126.829626084,0,-1,-27,-10,2,2,1,6,-1,-7,21,234,-5,1,233,6,5,0,0,0,0,0,0,11520
126.839866162,0,-1,-27,-10,2,2,1,6,-1,-10,14,236,-4,0,233,6,5,0,0,0,0,0,0,11521
126.853743077,0,-1,-27,-14,3,0,1,4,0,-10,14,236,-4,0,233,6,5,0,0,0,0,0,0,11522
126.862097979,0,-1,-27,-13,3,-1,1,2,0,-9,-4,234,-4,-1,234,6,5,0,0,0,0,0,0,11523
126.87283206,0,-1,-27,-3,0,-1,1,0,1,-9,-4,234,-4,-1,234,6,5,0,0,0,0,0,0,11524
126.88419509,0,-1,-27,-3,0,-1,1,0,1,-12,-21,235,-5,-1,235,6,5,0,0,0,0,0,0,11525
126.894833088,0,-1,-27,2,-2,-2,0,-2,2,-12,-21,235,-5,-1,235,6,5,0,0,0,0,0,0,11526
126.905882121,0,-1,-27,2,-2,-2,0,-2,2,-8,-20,236,-6,0,235,6,5,0,0,0,0,0,0,11527
126.916968108,0,-1,-27,13,-3,0,-1,-3,2,-8,-20,236,-6,0,235,6,5,0,0,0,0,0,0,11528
126.927956105,0,-1,-27,13,-3,0,-1,-3,2,-3,-8,237,-8,0,235,6,5,0,0,0,0,0,0,11529
126.938934088,0,-1,-27,11,0,2,-3,-2,2,-3,-8,237,-8,0,235,6,5,0,0,0,0,0,0,11530
126.949909926,0,-1,-27,11,0,2,-3,-2,2,-4,9,235,-10,1,236,6,5,0,0,0,0,0,0,11531
126.960977078,0,-1,-27,-3,5,1,-5,-1,2,-4,9,235,-10,1,236,6,5,0,0,0,0,0,0,11532
126.973555088,0,-1,-27,-3,5,1,-5,-1,2,-5,21,232,-11,1,236,6,5,0,0,0,0,0,0,11533
126.983150006,0,-1,-27,-11,4,-1,-5,0,1,-5,21,232,-11,1,236,6,5,0,0,0,0,0,0,11534
126.993950129,0,-1,-27,-12,2,-2,-4,0,0,-14,2,233,-11,0,236,6,5,0,0,0,0,0,0,11535
127.004806042,0,-1,-27,-11,0,-2,-2,1,0,-14,2,233,-11,0,236,6,5,0,0,0,0,0,0,11536
127.015936137,0,-1,-27,-11,0,-2,-2,1,0,-14,-14,235,-10,-1,235,6,5,0,0,0,0,0,0,11537
127.026999951,0,-1,-27,-2,-4,-2,0,1,0,-14,-14,235,-10,-1,235,6,5,0,0,0,0,0,0,11538
127.037012101,0,-1,-27,-2,-4,-2,0,1,0,-8,-16,236,-9,-2,235,6,5,0,0,0,0,0,0,11539
127.047979117,0,-1,-27,6,-6,0,0,1,-1,-8,-16,236,-9,-2,235,6,5,0,0,0,0,0,0,11540
127.058946133,0,-1,-27,6,-6,0,0,1,-1,1,-8,234,-8,-3,235,6,5,0,0,0,0,0,0,11541
127.069707156,0,-1,-27,8,-3,3,0,1,-1,1,-8,234,-8,-3,235,6,5,0,0,0,0,0,0,11542
127.080997944,0,-1,-27,8,-3,3,0,1,-1,1,5,237,-7,-3,235,6,5,0,0,0,0,0,0,11543
127.091834069,0,-1,-27,4,2,3,-1,1,-1,1,5,237,-7,-3,235,6,5,0,0,0,0,0,0,11544
127.102844954,0,-1,-27,4,2,3,-1,1,-1,0,3,237,-7,-3,235,6,5,0,0,0,0,0,0,11545
127.113902092,0,-1,-27,0,4,0,-2,0,-1,0,3,237,-7,-3,235,6,5,0,0,0,0,0,0,11546
127.124850035,0,-1,-27,0,4,0,-2,0,-1,-15,9,237,-6,-3,235,6,5,0,0,0,0,0,0,11547
127.136121035,0,-1,-27,-3,2,-4,-3,0,0,-15,9,237,-6,-3,235,6,5,0,0,0,0,0,0,11548
127.146888018,0,-1,-27,-3,2,-4,-3,0,0,-13,1,235,-6,-2,235,6,5,0,0,0,0,0,0,11549
127.157938004,0,-1,-27,-2,0,-3,-3,-1,0,-13,1,235,-6,-2,235,6,5,0,0,0,0,0,0,11550
127.168800116,0,-1,-27,-2,0,-3,-3,-1,0,-13,1,235,-6,-2,235,6,5,0,0,0,0,0,0,11551
127.179790974,0,-1,-27,0,-2,-2,-2,-1,0,-11,-2,234,-6,-2,235,6,5,0,0,0,0,0,0,11552
127.193792105,0,-1,-27,0,-3,-1,0,-1,0,-11,-2,234,-6,-2,235,6,5,0,0,0,0,0,0,11553
127.202018977,0,-1,-27,0,-3,-1,0,-1,0,-10,-4,233,-5,-2,235,6,5,0,0,0,0,0,0,11554
127.21281004,0,-1,-27,1,-3,0,0,0,0,-10,-4,233,-5,-2,235,6,5,0,0,0,0,0,0,11555
127.223895073,0,-1,-27,1,-1,1,1,0,0,-4,1,234,-5,-1,235,6,5,0,0,0,0,0,0,11556
127.234822989,0,-1,-27,1,0,2,1,0,0,-4,1,234,-5,-1,235,6,5,0,0,0,0,0,0,11557
127.245821,0,-1,-27,1,0,2,1,0,0,-5,1,235,-6,0,236,6,5,0,0,0,0,0,0,11558
127.257272006,0,-1,-27,0,2,2,1,0,-1,-5,1,235,-6,0,236,6,5,0,0,0,0,0,0,11559
127.267831088,0,-1,-27,0,2,2,0,0,-1,-6,3,237,-6,0,236,6,5,0,0,0,0,0,0,11560
127.278823138,0,-1,-27,0,2,1,0,0,-1,-6,3,237,-6,0,236,6,5,0,0,0,0,0,0,11561
127.292958022,0,-1,-27,0,2,0,0,0,0,-14,1,234,-7,1,236,6,5,0,0,0,0,0,0,11562
127.303874016,0,-1,-27,0,0,0,0,0,0,-14,1,234,-7,1,236,6,5,0,0,0,0,0,0,11563
127.314913989,0,-1,-27,0,0,0,0,0,0,-14,1,234,-7,1,236,6,5,0,0,0,0,0,0,11564
127.325880051,0,-1,-27,0,0,-1,0,0,1,-12,2,232,-8,1,236,6,5,0,0,0,0,0,0,11565
127.336840153,0,-1,-27,0,0,-1,0,0,1,-12,2,232,-8,1,236,6,5,0,0,0,0,0,0,11566
127.347802163,0,-1,-27,0,-2,-2,0,0,1,-10,1,235,-8,1,235,6,5,0,0,0,0,0,0,11567
127.358782053,0,-1,-27,0,-2,-2,0,0,1,-10,1,235,-8,1,235,6,5,0,0,0,0,0,0,11568
127.369739056,0,-1,-27,0,-1,-2,0,0,2,-10,1,235,-8,1,235,6,5,0,0,0,0,0,0,11569
127.38080597,0,-1,-27,0,-1,-2,0,0,2,-5,1,236,-9,1,235,6,5,0,0,0,0,0,0,11570
127.392055035,0,-1,-27,0,0,0,0,1,1,-5,1,236,-9,1,235,6,5,0,0,0,0,0,0,11571
127.402826071,0,-1,-27,0,0,0,0,1,1,-6,1,236,-9,1,235,6,5,0,0,0,0,0,0,11572
127.414021016,0,-1,-27,0,1,1,0,1,1,-6,1,236,-9,1,235,6,5,0,0,0,0,0,0,11573
127.42493701,0,-1,-27,0,1,1,0,1,1,-8,2,236,-9,1,235,6,5,0,0,0,0,0,0,11574
127.435846091,0,-1,-27,0,1,1,0,1,0,-8,2,236,-9,1,235,6,5,0,0,0,0,0,0,11575
127.446853161,0,-1,-27,0,1,1,0,1,0,-9,3,236,-9,1,234,6,5,0,0,0,0,0,0,11576
127.458063126,0,-1,-27,0,0,1,0,0,0,-9,3,236,-9,1,234,6,5,0,0,0,0,0,0,11577
127.469594956,0,-1,-27,0,0,1,0,0,0,-9,3,236,-9,1,234,6,5,0,0,0,0,0,0,11578
127.47992301,0,-1,-27,0,0,0,0,0,-1,-9,4,235,-9,1,234,6,5,0,0,0,0,0,0,11579
127.490725041,0,-1,-27,0,0,0,0,0,-1,-9,4,235,-9,1,234,6,5,0,0,0,0,0,0,11580
127.501860142,0,-1,-27,0,-1,0,0,0,-1,-9,4,235,-9,1,234,6,5,0,0,0,0,0,0,11581
127.512887001,0,-1,-27,0,0,-1,0,0,-1,-7,2,234,-9,1,235,6,5,0,0,0,0,0,0,11582
127.523842097,0,-1,-27,0,0,-1,0,0,0,-7,2,234,-9,1,235,6,5,0,0,0,0,0,0,11583
127.53491807,0,-1,-27,0,0,-1,0,0,0,-5,1,233,-8,1,235,6,5,0,0,0,0,0,0,11584
127.545926094,0,-1,-27,0,0,0,0,0,0,-5,1,233,-8,1,235,6,5,0,0,0,0,0,0,11585
127.55756116,0,-1,-27,0,0,0,0,0,0,-7,0,233,-8,2,235,6,5,0,0,0,0,0,0,11586
127.567893029,0,-1,-27,0,0,0,0,0,0,-7,0,233,-8,2,235,6,5,0,0,0,0,0,0,11587
127.578875065,0,-1,-27,0,0,0,0,0,0,-8,1,234,-8,2,235,6,5,0,0,0,0,0,0,11588
127.597515107,0,-1,-27,0,0,0,0,0,0,-8,1,234,-8,2,235,6,5,0,0,0,0,0,0,11589
127.601309061,0,-1,-27,0,0,0,0,0,0,-8,1,234,-8,2,235,6,5,0,0,0,0,0,0,11590
127.611793995,0,-1,-27,0,0,0,0,0,0,-8,3,235,-8,2,235,6,5,0,0,0,0,0,0,11591
127.622887135,0,-1,-27,0,0,0,0,0,0,-8,3,235,-8,2,235,6,5,0,0,0,0,0,0,11592
127.633855105,0,-1,-27,0,0,0,0,0,0,-8,3,235,-8,2,235,6,5,0,0,0,0,0,0,11593
127.644928933,0,-1,-27,0,0,0,0,0,0,-10,3,235,-7,2,235,6,5,0,0,0,0,0,0,11594
127.656598092,0,-1,-27,0,0,0,0,0,0,-10,3,235,-7,2,235,6,5,0,0,0,0,0,0,11595
127.666826964,0,-1,-27,0,0,0,0,0,0,-7,2,234,-7,2,235,6,5,0,0,0,0,0,0,11596
127.6778121,0,-1,-27,0,0,0,0,0,0,-7,2,234,-7,2,235,6,5,0,0,0,0,0,0,11597
127.691148043,0,-1,-27,0,0,0,0,0,0,-8,1,233,-7,2,235,6,5,0,0,0,0,0,0,11598
127.698943139,0,-1,-27,0,0,0,0,0,0,-8,1,233,-7,2,235,6,5,0,0,0,0,0,0,11599
127.709830046,0,-1,-27,0,0,0,0,0,0,-8,0,235,-7,2,234,6,5,0,0,0,0,0,0,11600
127.72093916,0,-1,-27,0,0,0,0,0,0,-8,0,235,-7,2,234,6,5,0,0,0,0,0,0,11601
127.734405041,0,-1,-27,0,0,0,0,0,0,-8,1,236,-7,2,234,6,5,0,0,0,0,0,0,11602
127.74286294,0,-1,-27,0,0,0,0,0,0,-8,1,236,-7,2,234,6,5,0,0,0,0,0,0,11603
127.75393796,0,-1,-27,0,0,0,0,0,0,-9,2,234,-8,1,234,6,5,0,0,0,0,0,0,11604
127.764805079,0,-1,-27,0,0,0,0,0,0,-9,2,234,-8,1,234,6,5,0,0,0,0,0,0,11605
127.775902033,0,-1,-27,0,0,0,0,0,0,-8,4,235,-8,1,234,6,5,0,0,0,0,0,0,11606
127.787016154,0,-1,-27,0,0,0,0,0,0,-8,4,235,-8,1,234,6,5,0,0,0,0,0,0,11607
127.797858954,0,-1,-27,0,0,0,0,0,0,-7,3,235,-8,1,234,6,5,0,0,0,0,0,0,11608
127.808938981,0,-1,-27,0,0,0,0,0,0,-7,3,235,-8,1,234,6,5,0,0,0,0,0,0,11609
127.819822073,0,-1,-27,0,0,0,0,0,0,-8,3,234,-8,1,234,6,5,0,0,0,0,0,0,11610
127.830961943,0,-1,-27,0,0,0,0,0,0,-8,3,234,-8,1,234,6,5,0,0,0,0,0,0,11611
127.841963053,0,-1,-27,0,0,0,0,0,0,-8,1,235,-8,1,234,6,5,0,0,0,0,0,0,11612
127.852838993,0,-1,-27,0,0,0,0,0,0,-8,1,235,-8,1,234,6,5,0,0,0,0,0,0,11613
127.863844157,0,-1,-27,0,0,0,0,0,0,-8,2,235,-8,1,235,6,5,0,0,0,0,0,0,11614
127.874932051,0,-1,-27,0,0,0,0,0,0,-8,2,235,-8,1,235,6,5,0,0,0,0,0,0,11615
127.88590312,0,-1,-27,0,0,0,0,0,0,-8,2,235,-8,2,235,6,5,0,0,0,0,0,0,11616
127.896919966,0,-1,-27,0,0,0,0,0,0,-8,2,235,-8,2,235,6,5,0,0,0,0,0,0,11617
127.907868147,0,-1,-27,0,0,0,0,0,0,-8,2,234,-8,2,235,6,5,0,0,0,0,0,0,11618
127.918867112,0,-1,-27,0,0,0,0,0,0,-8,2,234,-8,2,235,6,5,0,0,0,0,0,0,11619
127.93009615,0,-1,-27,0,0,0,0,0,0,-8,2,233,-8,2,235,6,5,0,0,0,0,0,0,11620
127.940809012,0,-1,-27,0,0,0,0,0,0,-8,2,233,-8,2,235,6,5,0,0,0,0,0,0,11621
127.951864005,0,-1,-27,0,0,0,0,0,0,-8,2,234,-8,2,235,6,5,0,0,0,0,0,0,11622
127.962852955,0,-1,-27,0,0,0,0,0,0,-8,2,234,-8,2,235,6,5,0,0,0,0,0,0,11623
127.973926068,0,-1,-27,0,0,0,0,0,0,-8,1,234,-8,2,235,6,5,0,0,0,0,0,0,11624
127.984894038,0,-1,-27,0,0,0,0,0,0,-8,1,234,-8,2,235,6,5,0,0,0,0,0,0,11625
127.995765925,0,-1,-27,0,0,0,0,0,0,-8,2,233,-8,2,235,6,5,0,0,0,0,0,0,11626
128.006792069,0,-1,-27,0,0,0,0,0,0,-8,2,233,-8,2,235,6,5,0,0,0,0,0,0,11627
128.017894984,0,-1,-27,0,0,0,0,0,0,-7,3,234,-8,2,235,6,5,0,0,0,0,0,0,11628
128.028934002,0,-1,-27,0,0,0,0,0,0,-7,3,234,-8,2,235,6,5,0,0,0,0,0,0,11629
128.039868117,0,-1,-27,0,0,0,0,0,0,-8,4,234,-8,2,234,6,5,0,0,0,0,0,0,11630
128.050873042,0,-1,-27,0,0,0,0,0,0,-8,4,234,-8,2,234,6,5,0,0,0,0,0,0,11631
128.062134982,0,-1,-27,0,0,0,0,0,0,-7,3,235,-8,2,234,6,5,0,0,0,0,0,0,11632
128.072798968,0,-1,-27,0,0,0,0,0,0,-7,3,235,-8,2,234,6,5,0,0,0,0,0,0,11633
128.083918095,0,-1,-27,0,0,0,0,0,0,-6,2,235,-8,2,234,6,5,0,0,0,0,0,0,11634
128.094810963,0,-1,-27,0,0,0,0,0,0,-6,2,235,-8,2,234,6,5,0,0,0,0,0,0,11635
128.10590911,0,-1,-27,0,0,0,0,0,0,-7,2,235,-8,2,234,6,5,0,0,0,0,0,0,11636
128.116980076,0,-1,-27,0,0,0,0,0,0,-7,2,235,-8,2,234,6,5,0,0,0,0,0,0,11637
128.127870083,0,-1,-27,0,0,0,0,0,0,-7,1,235,-8,2,234,6,5,0,0,0,0,0,0,11638
128.138761998,0,-1,-27,0,0,0,0,0,0,-7,1,235,-8,2,234,6,5,0,0,0,0,0,0,11639
128.149863959,0,-1,-27,0,0,0,0,0,0,-7,2,237,-8,2,234,6,5,0,0,0,0,0,0,11640
128.16080308,0,-1,-27,0,0,0,0,0,0,-7,2,237,-8,2,234,6,5,0,0,0,0,0,0,11641
128.172009945,0,-1,-27,0,0,0,0,0,0,-7,2,237,-8,2,234,6,5,0,0,0,0,0,0,11642
128.182932139,0,-1,-27,0,0,0,0,0,0,-8,3,235,-7,2,234,6,5,0,0,0,0,0,0,11643
128.193768979,0,-1,-27,0,0,0,0,0,0,-8,3,235,-7,2,234,6,5,0,0,0,0,0,0,11644
128.204859019,0,-1,-27,0,0,0,0,0,0,-9,3,235,-7,2,234,6,5,0,0,0,0,0,0,11645
128.216217041,0,-1,-27,0,0,0,0,0,0,-9,3,235,-7,2,234,6,5,0,0,0,0,0,0,11646
128.226901055,0,-1,-27,0,0,0,0,0,0,-8,2,234,-7,3,235,6,5,0,0,0,0,0,0,11647
128.237961054,0,-1,-27,0,0,0,0,0,0,-8,2,234,-7,3,235,6,5,0,0,0,0,0,0,11648
128.248999119,0,-1,-27,0,0,0,0,0,0,-8,2,235,-7,3,235,6,5,0,0,0,0,0,0,11649
128.25980115,0,-1,-27,0,0,0,0,0,0,-8,2,235,-7,3,235,6,5,0,0,0,0,0,0,11650
128.270944119,0,-1,-27,0,0,0,0,0,0,-8,2,235,-7,3,235,6,5,0,0,0,0,0,0,11651
128.282016039,0,-1,-27,0,0,0,0,0,0,-8,2,235,-7,3,235,6,5,0,0,0,0,0,0,11652
128.292848111,0,-1,-27,0,0,0,0,0,0,-8,2,235,-7,3,235,6,5,0,0,0,0,0,0,11653
128.303931952,0,-1,-27,0,0,0,0,0,0,-8,3,235,-7,2,235,6,5,0,0,0,0,0,0,11654
128.315040112,0,-1,-27,0,0,0,0,0,0,-8,3,235,-7,2,235,6,5,0,0,0,0,0,0,11655
128.325962067,0,-1,-27,0,0,0,0,0,0,-8,3,234,-7,2,235,6,5,0,0,0,0,0,0,11656
128.336913109,0,-1,-27,0,0,0,0,0,0,-8,3,234,-7,2,235,6,5,0,0,0,0,0,0,11657
128.347872019,0,-1,-27,0,0,0,0,0,0,-8,3,234,-7,2,235,6,5,0,0,0,0,0,0,11658
128.359231949,0,-1,-27,0,0,0,0,0,0,-9,3,235,-8,2,235,6,5,0,0,0,0,0,0,11659
128.369987011,0,-1,-27,0,0,0,0,0,0,-9,3,235,-8,2,235,6,5,0,0,0,0,0,0,11660
128.380852938,0,-1,-27,0,0,0,0,0,0,-8,2,235,-8,2,235,6,5,0,0,0,0,0,0,11661
128.391868115,0,-1,-27,0,0,0,0,0,0,-8,2,235,-8,2,235,6,5,0,0,0,0,0,0,11662
128.402969122,0,-1,-27,0,0,0,0,0,0,-8,1,235,-8,2,235,6,5,0,0,0,0,0,0,11663
128.413792134,0,-1,-27,0,0,0,0,0,0,-8,1,235,-8,2,235,6,5,0,0,0,0,0,0,11664
128.425573111,0,-1,-27,0,0,0,0,0,0,-8,1,235,-8,2,235,6,5,0,0,0,0,0,0,11665
128.43584013,0,-1,-27,0,0,0,0,0,0,-7,1,234,-8,2,235,6,5,0,0,0,0,0,0,11666
128.446880103,0,-1,-27,0,0,0,0,0,0,-7,1,234,-8,2,235,6,5,0,0,0,0,0,0,11667
128.458022118,0,-1,-27,0,0,0,0,0,0,-8,3,235,-8,2,235,6,5,0,0,0,0,0,0,11668
128.468852044,0,-1,-27,0,0,0,0,0,0,-8,3,235,-8,2,235,6,5,0,0,0,0,0,0,11669
128.479813099,0,-1,-27,0,0,0,0,0,0,-8,3,236,-8,3,235,6,5,0,0,0,0,0,0,11670
128.490838051,0,-1,-27,0,0,0,0,0,0,-8,3,236,-8,3,235,6,5,0,0,0,0,0,0,11671
128.501783133,0,-1,-27,0,0,0,0,0,0,-8,3,235,-8,3,235,6,5,0,0,0,0,0,0,11672
128.513720036,0,-1,-27,0,0,0,0,0,0,-8,3,235,-8,3,235,6,5,0,0,0,0,0,0,11673
128.52374506,0,-1,-27,0,0,0,0,0,0,-8,3,235,-8,3,235,6,5,0,0,0,0,0,0,11674
128.534817934,0,-1,-27,0,0,0,0,0,0,-7,1,235,-8,2,235,6,5,0,0,0,0,0,0,11675
128.545875073,0,-1,-27,0,0,0,0,0,0,-7,1,235,-8,2,235,6,5,0,0,0,0,0,0,11676
128.55696702,0,-1,-27,0,0,0,0,0,0,-7,1,235,-8,2,235,6,5,0,0,0,0,0,0,11677
128.567786932,0,-1,-27,0,0,0,0,0,0,-7,1,235,-8,2,235,6,5,0,0,0,0,0,0,11678
128.578902007,0,-1,-27,0,0,0,0,0,0,-7,1,235,-8,2,235,6,5,0,0,0,0,0,0,11679
128.589857102,0,-1,-27,0,0,0,0,0,0,-7,2,236,-8,2,235,6,5,0,0,0,0,0,0,11680
128.60086298,0,-1,-27,0,0,0,0,0,0,-7,2,236,-8,2,235,6,5,0,0,0,0,0,0,11681
128.611954928,0,-1,-27,0,0,0,0,0,0,-7,3,236,-8,2,235,6,5,0,0,0,0,0,0,11682
128.622898102,0,-1,-27,0,0,0,0,0,0,-7,3,236,-8,2,235,6,5,0,0,0,0,0,0,11683
128.633780957,0,-1,-27,0,0,0,0,0,0,-8,4,236,-8,2,235,6,5,0,0,0,0,0,0,11684
128.644916058,0,-1,-27,0,0,0,0,0,0,-8,4,236,-8,2,235,6,5,0,0,0,0,0,0,11685
128.657582045,0,-1,-27,0,0,0,0,0,0,-8,4,236,-8,2,235,6,5,0,0,0,0,0,0,11686
128.668233157,0,-1,-27,0,0,0,0,0,0,-8,3,235,-8,2,235,6,5,0,0,0,0,0,0,11687
128.677804947,0,-1,-27,0,0,0,0,0,0,-8,3,235,-8,2,235,6,5,0,0,0,0,0,0,11688
128.687793971,0,-1,-27,0,0,0,0,0,0,-8,3,235,-8,2,235,6,5,0,0,0,0,0,0,11689
128.699042082,0,-1,-27,0,0,0,0,0,0,-8,2,234,-7,2,235,6,5,0,0,0,0,0,0,11690
128.709852934,0,-1,-27,0,0,0,0,0,0,-8,2,234,-7,2,235,6,5,0,0,0,0,0,0,11691
128.720978022,0,-1,-27,0,0,0,0,0,0,-9,2,234,-7,2,235,6,5,0,0,0,0,0,0,11692
128.731754065,0,-1,-27,0,0,0,0,0,0,-9,2,234,-7,2,235,6,5,0,0,0,0,0,0,11693
128.742793084,0,-1,-27,0,0,0,0,0,0,-8,2,236,-7,2,236,6,5,0,0,0,0,0,0,11694
128.753895045,0,-1,-27,0,0,0,0,0,0,-8,2,236,-7,2,236,6,5,0,0,0,0,0,0,11695
128.764873028,0,-1,-27,0,0,0,0,0,0,-9,3,235,-7,2,236,6,5,0,0,0,0,0,0,11696
128.776101113,0,-1,-27,0,0,0,0,0,0,-9,3,235,-7,2,236,6,5,0,0,0,0,0,0,11697
128.787097931,0,-1,-27,0,0,0,0,0,0,-9,3,235,-7,2,236,6,5,0,0,0,0,0,0,11698
128.797863007,0,-1,-27,0,0,0,0,0,0,-8,2,234,-7,2,235,6,5,0,0,0,0,0,0,11699
128.808831931,0,-1,-27,0,0,0,0,0,0,-8,2,234,-7,2,235,6,5,0,0,0,0,0,0,11700
128.821761132,0,-1,-27,0,0,0,0,0,0,-8,2,234,-7,2,235,6,5,0,0,0,0,0,0,11701
128.830906153,0,-1,-27,0,0,0,0,0,0,-8,2,235,-8,2,235,6,5,0,0,0,0,0,0,11702
128.841854096,0,-1,-27,0,0,0,0,0,0,-8,2,235,-8,2,235,6,5,0,0,0,0,0,0,11703
128.852858067,0,-1,-27,0,0,0,0,0,0,-8,2,233,-8,2,235,6,5,0,0,0,0,0,0,11704
128.86381197,0,-1,-27,0,0,0,0,0,0,-8,2,233,-8,2,235,6,5,0,0,0,0,0,0,11705
128.874925137,0,-1,-27,0,0,0,0,0,0,-8,1,233,-8,2,235,6,5,0,0,0,0,0,0,11706
128.88587308,0,-1,-27,0,0,0,0,0,0,-8,1,233,-8,2,235,6,5,0,0,0,0,0,0,11707
128.89688015,0,-1,-27,0,0,0,0,0,0,-8,2,233,-8,2,235,6,5,0,0,0,0,0,0,11708
128.907943964,0,-1,-27,0,0,0,0,0,0,-8,2,233,-8,2,235,6,5,0,0,0,0,0,0,11709
128.918946028,0,-1,-27,0,0,0,0,0,0,-8,3,234,-8,2,234,6,5,0,0,0,0,0,0,11710
128.929963112,0,-1,-27,0,0,0,0,0,0,-8,3,234,-8,2,234,6,5,0,0,0,0,0,0,11711
128.941611052,0,-1,-27,0,0,0,0,0,0,-8,2,234,-8,2,234,6,5,0,0,0,0,0,0,11712
128.951888085,0,-1,-27,0,0,0,0,0,0,-8,2,234,-8,2,234,6,5,0,0,0,0,0,0,11713
128.965625048,0,-1,-27,0,0,0,0,0,0,-8,1,234,-8,2,234,6,5,0,0,0,0,0,0,11714
128.974374056,0,-1,-27,0,0,0,0,0,0,-8,1,234,-8,2,234,6,5,0,0,0,0,0,0,11715
128.984841109,0,-1,-27,0,0,0,0,0,0,-7,1,234,-8,2,234,6,5,0,0,0,0,0,0,11716
128.996413947,0,-1,-27,0,0,0,0,0,0,-7,1,234,-8,2,234,6,5,0,0,0,0,0,0,11717
129.006855011,0,-1,-27,0,0,0,0,0,0,-7,1,234,-8,2,234,6,5,0,0,0,0,0,0,11718
129.017821074,0,-1,-27,0,0,0,0,0,0,-8,2,235,-8,2,234,6,5,0,0,0,0,0,0,11719
129.02894497,0,-1,-27,0,0,0,0,0,0,-8,2,235,-8,2,234,6,5,0,0,0,0,0,0,11720
129.039826155,0,-1,-27,0,0,0,0,0,0,-8,2,235,-8,2,234,6,5,0,0,0,0,0,0,11721
129.050894022,0,-1,-27,0,0,0,0,0,0,-8,1,235,-8,2,233,6,5,0,0,0,0,0,0,11722
129.066084147,0,-1,-27,0,0,0,0,0,0,-8,1,235,-8,2,233,6,5,0,0,0,0,0,0,11723
129.07289815,0,-1,-27,0,0,0,0,0,0,-8,3,235,-8,2,233,6,5,0,0,0,0,0,0,11724
129.083784104,0,-1,-27,0,0,0,0,0,0,-8,3,235,-8,2,233,6,5,0,0,0,0,0,0,11725
129.095133067,0,-1,-27,0,0,0,0,0,0,-9,3,234,-8,2,234,6,5,0,0,0,0,0,0,11726
129.105839014,0,-1,-27,0,0,0,0,0,0,-9,3,234,-8,2,234,6,5,0,0,0,0,0,0,11727
129.11686802,0,-1,-27,0,0,0,0,0,0,-8,1,234,-8,2,234,6,5,0,0,0,0,0,0,11728
129.129218102,0,-1,-27,0,0,0,0,0,0,-8,1,234,-8,2,234,6,5,0,0,0,0,0,0,11729
129.138821125,0,-1,-27,0,0,0,0,0,0,-8,1,234,-8,2,234,6,5,0,0,0,0,0,0,11730
129.149856091,0,-1,-27,0,0,0,0,0,0,-8,2,234,-8,2,234,6,5,0,0,0,0,0,0,11731
129.160850048,0,-1,-27,0,0,0,0,0,0,-8,2,234,-8,2,234,6,5,0,0,0,0,0,0,11732
129.171888113,0,-1,-27,0,0,0,0,0,0,-8,2,234,-8,2,234,6,5,0,0,0,0,0,0,11733
129.182908059,0,-1,-27,0,0,0,0,0,0,-7,3,234,-8,2,234,6,5,0,0,0,0,0,0,11734
129.194453001,0,-1,-27,0,0,0,0,0,0,-7,3,234,-8,2,234,6,5,0,0,0,0,0,0,11735
129.204807044,0,-1,-27,0,0,0,0,0,0,-8,3,233,-8,2,234,6,5,0,0,0,0,0,0,11736
129.216021061,0,-1,-27,0,0,0,0,0,0,-8,3,233,-8,2,234,6,5,0,0,0,0,0,0,11737
129.226871968,0,-1,-27,0,0,0,0,0,0,-8,3,235,-8,2,235,6,5,0,0,0,0,0,0,11738
129.237834931,0,-1,-27,0,0,0,0,0,0,-8,3,235,-8,2,235,6,5,0,0,0,0,0,0,11739
129.248881102,0,-1,-27,0,0,0,0,0,0,-8,2,234,-8,2,235,6,5,0,0,0,0,0,0,11740
129.259935141,0,-1,-27,0,0,0,0,0,0,-8,2,234,-8,2,235,6,5,0,0,0,0,0,0,11741
129.270967007,0,-1,-27,0,0,0,0,0,0,-8,1,234,-8,2,234,6,5,0,0,0,0,0,0,11742
129.281970025,0,-1,-27,0,0,0,0,0,0,-8,1,234,-8,2,234,6,5,0,0,0,0,0,0,11743
129.297184945,0,-1,-27,0,0,0,0,0,0,-8,1,233,-8,2,234,6,5,0,0,0,0,0,0,11744
129.3049891,0,-1,-27,0,0,0,0,0,0,-8,1,233,-8,2,234,6,5,0,0,0,0,0,0,11745
129.314996958,0,-1,-27,0,0,0,0,0,0,-8,2,234,-8,2,234,6,5,0,0,0,0,0,0,11746
129.326859951,0,-1,-27,0,0,0,0,0,0,-8,2,234,-8,2,234,6,5,0,0,0,0,0,0,11747
129.336904049,0,-1,-27,0,0,0,0,0,0,-8,2,234,-8,2,234,6,5,0,0,0,0,0,0,11748
129.348274947,0,-1,-27,0,0,0,0,0,0,-8,2,234,-8,2,234,6,5,0,0,0,0,0,0,11749
129.358819962,0,-1,-27,0,0,0,0,0,0,-8,3,234,-8,2,234,6,5,0,0,0,0,0,0,11750
129.369873047,0,-1,-27,0,0,0,0,0,0,-8,3,234,-8,2,234,6,5,0,0,0,0,0,0,11751
129.380942107,0,-1,-27,0,0,0,0,0,0,-7,2,234,-8,2,234,6,5,0,0,0,0,0,0,11752
129.391862154,0,-1,-27,0,0,0,0,0,0,-7,2,234,-8,2,234,6,5,0,0,0,0,0,0,11753
129.402909041,0,-1,-27,0,0,0,0,0,0,-8,2,235,-8,2,234,6,5,0,0,0,0,0,0,11754
129.413953066,0,-1,-27,0,0,0,0,0,0,-8,2,235,-8,2,234,6,5,0,0,0,0,0,0,11755
129.429719925,0,-1,-27,0,0,0,0,0,0,-8,2,234,-8,2,234,6,5,0,0,0,0,0,0,11756
129.436161042,0,-1,-27,0,0,0,0,0,0,-8,2,234,-8,2,234,6,5,0,0,0,0,0,0,11757
129.447001934,0,-1,-27,0,0,0,0,0,0,-8,2,235,-8,2,234,6,5,0,0,0,0,0,0,11758
129.457911015,0,-1,-27,0,0,0,0,0,0,-8,2,235,-8,2,234,6,5,0,0,0,0,0,0,11759
129.468801022,0,-1,-27,0,0,0,0,0,0,-8,2,235,-8,2,234,6,5,0,0,0,0,0,0,11760
129.479820013,0,-1,-27,0,0,0,0,0,0,-8,2,235,-8,2,234,6,5,0,0,0,0,0,0,11761
129.490864039,0,-1,-27,0,0,0,0,0,0,-8,2,235,-8,2,234,6,5,0,0,0,0,0,0,11762
129.501945019,0,-1,-27,0,0,0,0,0,0,-8,2,235,-8,2,234,6,5,0,0,0,0,0,0,11763
129.512861014,0,-1,-27,0,0,0,0,0,0,-8,3,235,-8,2,234,6,5,0,0,0,0,0,0,11764
129.523864031,0,-1,-27,0,0,0,0,0,0,-8,3,235,-8,2,234,6,5,0,0,0,0,0,0,11765
129.534812928,0,-1,-27,0,0,0,0,0,0,-7,3,235,-8,2,235,6,5,0,0,0,0,0,0,11766
129.545763016,0,-1,-27,0,0,0,0,0,0,-7,3,235,-8,2,235,6,5,0,0,0,0,0,0,11767
129.556915045,0,-1,-27,0,0,0,0,0,0,-7,2,234,-8,2,235,6,5,0,0,0,0,0,0,11768
129.567759991,0,-1,-27,0,0,0,0,0,0,-7,2,234,-8,2,235,6,5,0,0,0,0,0,0,11769
129.578778983,0,-1,-27,0,0,0,0,0,0,-8,2,236,-8,2,235,6,5,0,0,0,0,0,0,11770
129.589920044,0,-1,-27,0,0,0,0,0,0,-8,2,236,-8,2,235,6,5,0,0,0,0,0,0,11771
129.600871087,0,-1,-27,0,0,0,0,0,0,-8,3,235,-8,2,235,6,5,0,0,0,0,0,0,11772
129.611803055,0,-1,-27,0,0,0,0,0,0,-8,3,235,-8,2,235,6,5,0,0,0,0,0,0,11773
129.623136998,0,-1,-27,0,0,0,0,0,0,-9,2,234,-8,2,235,6,5,0,0,0,0,0,0,11774
129.633763075,0,-1,-27,0,0,0,0,0,0,-9,2,234,-8,2,235,6,5,0,0,0,0,0,0,11775
129.644818068,0,-1,-27,0,0,0,0,0,0,-8,3,233,-8,2,235,6,5,0,0,0,0,0,0,11776
129.655866147,0,-1,-27,0,0,0,0,0,0,-8,3,233,-8,2,235,6,5,0,0,0,0,0,0,11777
129.666857005,0,-1,-27,0,0,0,0,0,0,-8,3,234,-8,2,235,6,5,0,0,0,0,0,0,11778
129.677032948,0,-1,-27,0,0,0,0,0,0,-8,3,234,-8,2,235,6,5,0,0,0,0,0,0,11779
129.688096047,0,-1,-27,0,0,0,0,0,0,-7,2,235,-8,2,235,6,5,0,0,0,0,0,0,11780
129.698943139,0,-1,-27,0,0,0,0,0,0,-7,2,235,-8,2,235,6,5,0,0,0,0,0,0,11781
129.709831953,0,-1,-27,0,0,0,0,0,0,-7,2,235,-8,2,235,6,5,0,0,0,0,0,0,11782
129.72089696,0,-1,-27,0,0,0,0,0,0,-7,2,235,-8,2,235,6,5,0,0,0,0,0,0,11783
129.733938933,0,-1,-27,0,0,0,0,0,0,-7,2,234,-8,3,235,6,5,0,0,0,0,0,0,11784
129.742831946,0,-1,-27,0,0,0,0,0,0,-7,2,234,-8,3,235,6,5,0,0,0,0,0,0,11785
129.753932,0,-1,-27,0,0,0,0,0,0,-7,2,234,-8,3,235,6,5,0,0,0,0,0,0,11786
129.765442133,0,-1,-27,0,0,0,0,0,0,-7,1,234,-8,3,235,6,5,0,0,0,0,0,0,11787
129.777680159,0,-1,-27,0,0,0,0,0,0,-7,1,234,-8,3,235,6,5,0,0,0,0,0,0,11788
129.78725195,0,-1,-27,0,0,0,0,0,0,-9,1,232,-8,3,234,6,5,0,0,0,0,0,0,11789
129.798030138,0,-1,-27,0,0,0,0,0,0,-9,1,232,-8,3,234,6,5,0,0,0,0,0,0,11790
129.808891058,0,-1,-27,0,0,0,0,0,0,-8,2,235,-8,2,234,6,5,0,0,0,0,0,0,11791
129.819947005,0,-1,-27,0,0,0,0,0,0,-8,2,235,-8,2,234,6,5,0,0,0,0,0,0,11792
129.831136942,0,-1,-27,0,0,0,0,0,0,-8,2,235,-8,2,234,6,5,0,0,0,0,0,0,11793
129.841911078,0,-1,-27,0,0,0,0,0,0,-8,2,235,-8,2,234,6,5,0,0,0,0,0,0,11794
129.852878094,0,-1,-27,0,0,0,0,0,0,-8,2,235,-8,2,234,6,5,0,0,0,0,0,0,11795
129.863829136,0,-1,-27,0,0,0,0,0,0,-7,1,235,-8,2,234,6,5,0,0,0,0,0,0,11796
129.874923945,0,-1,-27,0,0,0,0,0,0,-7,1,235,-8,2,234,6,5,0,0,0,0,0,0,11797
129.885942936,0,-1,-27,0,0,0,0,0,0,-7,1,235,-8,2,234,6,5,0,0,0,0,0,0,11798
129.898005009,0,-1,-27,0,0,0,0,0,0,-8,1,235,-8,2,234,6,5,0,0,0,0,0,0,11799
129.90792203,0,-1,-27,0,0,0,0,0,0,-8,1,235,-8,2,234,6,5,0,0,0,0,0,0,11800
129.920226098,0,-1,-27,0,0,0,0,0,0,-7,2,236,-7,2,234,6,5,0,0,0,0,0,0,11801
129.930259943,0,-1,-27,0,0,0,0,0,0,-7,2,236,-7,2,234,6,5,0,0,0,0,0,0,11802
129.94085908,0,-1,-27,0,0,0,0,0,0,-8,2,234,-7,2,234,6,5,0,0,0,0,0,0,11803
129.951843977,0,-1,-27,0,0,0,0,0,0,-8,2,234,-7,2,234,6,5,0,0,0,0,0,0,11804
129.96290207,0,-1,-27,0,0,0,0,0,0,-8,2,234,-7,2,234,6,5,0,0,0,0,0,0,11805
129.973912001,0,-1,-27,0,0,0,0,0,0,-8,2,234,-7,1,234,6,5,0,0,0,0,0,0,11806
129.984987975,0,-1,-27,0,0,0,0,0,0,-8,2,234,-7,1,234,6,5,0,0,0,0,0,0,11807
129.995972157,0,-1,-27,0,0,0,0,0,0,-8,1,235,-8,1,235,6,5,0,0,0,0,0,0,11808
130.006889105,0,-1,-27,0,0,0,0,0,0,-8,1,235,-8,1,235,6,5,0,0,0,0,0,0,11809
130.017895937,0,-1,-27,0,0,0,0,0,0,-8,1,235,-8,1,235,6,5,0,0,0,0,0,0,11810
130.02899313,0,-1,-27,0,0,0,0,0,0,-8,2,234,-8,1,235,6,5,0,0,0,0,0,0,11811
130.039775134,0,-1,-27,0,0,0,0,0,0,-8,2,234,-8,1,235,6,5,0,0,0,0,0,0,11812
130.050847054,0,-1,-27,0,0,0,0,0,0,-7,2,234,-8,2,235,6,5,0,0,0,0,0,0,11813
130.062144041,0,-1,-27,0,0,0,0,0,0,-7,2,234,-8,2,235,6,5,0,0,0,0,0,0,11814
130.072896004,0,-1,-27,0,0,0,0,0,0,-8,3,234,-8,2,235,6,5,0,0,0,0,0,0,11815
130.083867073,0,-1,-27,0,0,0,0,0,0,-8,3,234,-8,2,235,6,5,0,0,0,0,0,0,11816
130.094975949,0,-1,-27,0,0,0,0,0,0,-8,3,234,-8,2,235,6,5,0,0,0,0,0,0,11817
130.105913163,0,-1,-27,0,0,0,0,0,0,-9,4,234,-8,2,235,6,5,0,0,0,0,0,0,11818
130.116865159,0,-1,-27,0,0,0,0,0,0,-9,4,234,-8,2,235,6,5,0,0,0,0,0,0,11819
130.128113985,0,-1,-27,0,0,0,0,0,0,-9,3,234,-8,2,235,6,5,0,0,0,0,0,0,11820
130.138998032,0,-1,-27,0,0,0,0,0,0,-9,3,234,-8,2,235,6,5,0,0,0,0,0,0,11821
130.149837971,0,-1,-27,0,0,0,0,0,0,-9,3,234,-8,2,235,6,5,0,0,0,0,0,0,11822
130.160880089,0,-1,-27,0,0,0,0,0,0,-7,2,236,-8,2,235,6,5,0,0,0,0,0,0,11823
130.171810151,0,-1,-27,0,0,0,0,0,0,-7,2,236,-8,2,235,6,5,0,0,0,0,0,0,11824
130.182888031,0,-1,-27,0,0,0,0,0,0,-7,1,235,-8,2,235,6,5,0,0,0,0,0,0,11825
130.193885088,0,-1,-27,0,0,0,0,0,0,-7,1,235,-8,2,235,6,5,0,0,0,0,0,0,11826
130.205548048,0,-1,-27,0,0,0,0,0,0,-8,2,233,-8,2,234,6,5,0,0,0,0,0,0,11827
130.215989113,0,-1,-27,0,0,0,0,0,0,-8,2,233,-8,2,234,6,5,0,0,0,0,0,0,11828
130.228295088,0,-1,-27,0,0,0,0,0,0,-8,2,233,-8,2,234,6,5,0,0,0,0,0,0,11829
130.237822056,0,-1,-27,0,0,0,0,0,0,-8,4,234,-8,2,234,6,5,0,0,0,0,0,0,11830
130.249170065,0,-1,-27,0,0,0,0,0,0,-8,4,234,-8,2,234,6,5,0,0,0,0,0,0,11831
130.259963036,0,-1,-27,0,0,0,0,0,0,-8,4,235,-8,2,234,6,5,0,0,0,0,0,0,11832
130.270879031,0,-1,-27,0,0,0,0,0,0,-8,4,235,-8,2,234,6,5,0,0,0,0,0,0,11833
130.281895161,0,-1,-27,0,0,0,0,0,0,-8,3,234,-8,2,234,6,5,0,0,0,0,0,0,11834
130.292919159,0,-1,-27,0,0,0,0,0,0,-8,3,234,-8,2,234,6,5,0,0,0,0,0,0,11835
130.304024935,0,-1,-27,0,0,0,0,0,0,-8,3,234,-8,2,234,6,5,0,0,0,0,0,0,11836
130.314970971,0,-1,-27,0,0,0,0,0,0,-7,3,236,-8,3,234,6,5,0,0,0,0,0,0,11837
130.326331139,0,-1,-27,0,0,0,0,0,0,-7,3,236,-8,3,234,6,5,0,0,0,0,0,0,11838
130.336910963,0,-1,-27,0,0,0,0,0,0,-7,3,235,-8,3,234,6,5,0,0,0,0,0,0,11839
130.34790206,0,-1,-27,0,0,0,0,0,0,-7,3,235,-8,3,234,6,5,0,0,0,0,0,0,11840
130.360645056,0,-1,-27,0,0,0,0,0,0,-8,4,235,-8,3,235,6,5,0,0,0,0,0,0,11841
130.369807005,0,-1,-27,0,0,0,0,0,0,-8,4,235,-8,3,235,6,5,0,0,0,0,0,0,11842
130.381006957,0,-1,-27,0,0,0,0,0,0,-8,3,236,-8,3,235,6,5,0,0,0,0,0,0,11843
130.393656969,0,-1,-27,0,0,0,0,0,0,-8,3,236,-8,3,235,6,5,0,0,0,0,0,0,11844
130.404564143,0,-1,-27,0,0,0,0,0,0,-8,3,236,-8,3,235,6,5,0,0,0,0,0,0,11845
130.413819075,0,-1,-27,0,0,0,0,0,0,-9,3,236,-8,3,235,6,5,0,0,0,0,0,0,11846
130.424963952,0,-1,-27,0,0,0,0,0,0,-9,3,236,-8,3,235,6,5,0,0,0,0,0,0,11847
130.435857058,0,-1,-27,0,0,0,0,0,0,-8,2,236,-8,3,235,6,5,0,0,0,0,0,0,11848
130.446918965,0,-1,-27,0,0,0,0,0,0,-8,2,236,-8,3,235,6,5,0,0,0,0,0,0,11849
130.45787716,0,-1,-27,0,0,0,0,0,0,-8,2,236,-8,3,235,6,5,0,0,0,0,0,0,11850
130.468820095,0,-1,-27,0,0,0,0,0,0,-8,3,235,-8,3,235,6,5,0,0,0,0,0,0,11851
130.479743958,0,-1,-27,0,0,0,0,0,0,-8,3,235,-8,3,235,6,5,0,0,0,0,0,0,11852
130.490906001,0,-1,-27,0,0,0,0,0,0,-8,3,235,-8,3,235,6,5,0,0,0,0,0,0,11853
130.501882077,0,-1,-27,0,0,0,0,0,0,-8,3,235,-8,3,235,6,5,0,0,0,0,0,0,11854
130.512803078,0,-1,-27,0,0,0,0,0,0,-8,3,234,-8,3,235,6,5,0,0,0,0,0,0,11855
130.523862124,0,-1,-27,0,0,0,0,0,0,-8,3,234,-8,3,235,6,5,0,0,0,0,0,0,11856
130.534983159,0,-1,-27,0,0,0,0,0,0,-8,3,234,-8,3,235,6,5,0,0,0,0,0,0,11857
130.545800925,0,-1,-27,0,0,0,0,0,0,-8,2,234,-8,3,236,6,5,0,0,0,0,0,0,11858
130.556892157,0,-1,-27,0,0,0,0,0,0,-8,2,234,-8,3,236,6,5,0,0,0,0,0,0,11859
130.567921162,0,-1,-27,0,0,0,0,0,0,-8,1,234,-8,3,236,6,5,0,0,0,0,0,0,11860
130.578917027,0,-1,-27,0,0,0,0,0,0,-8,1,234,-8,3,236,6,5,0,0,0,0,0,0,11861
130.589900017,0,-1,-27,0,0,0,0,0,0,-8,1,234,-8,3,236,6,5,0,0,0,0,0,0,11862
130.601360083,0,-1,-27,0,0,0,0,0,0,-7,1,235,-8,3,236,6,5,0,0,0,0,0,0,11863
130.611989022,0,-1,-27,0,0,0,0,0,0,-7,1,235,-8,3,236,6,5,0,0,0,0,0,0,11864
130.622959137,0,-1,-27,0,0,0,0,0,0,-7,1,235,-8,3,236,6,5,0,0,0,0,0,0,11865
130.633912087,0,-1,-27,0,0,0,0,0,0,-8,2,234,-8,3,236,6,5,0,0,0,0,0,0,11866
130.644787074,0,-1,-27,0,0,0,0,0,0,-8,2,234,-8,3,236,6,5,0,0,0,0,0,0,11867
130.655874014,0,-1,-27,0,0,0,0,0,0,-8,3,235,-8,3,235,6,5,0,0,0,0,0,0,11868
130.666147948,0,-1,-27,0,0,0,0,0,0,-8,3,235,-8,3,235,6,5,0,0,0,0,0,0,11869
130.677575112,0,-1,-27,0,0,0,0,0,0,-8,3,235,-8,2,235,6,5,0,0,0,0,0,0,11870
130.687883139,0,-1,-27,0,0,0,0,0,0,-8,3,235,-8,2,235,6,5,0,0,0,0,0,0,11871
130.698801995,0,-1,-27,0,0,0,0,0,0,-8,3,234,-8,2,235,6,5,0,0,0,0,0,0,11872
130.709896088,0,-1,-27,0,0,0,0,0,0,-8,3,234,-8,2,235,6,5,0,0,0,0,0,0,11873
130.721151114,0,-1,-27,0,0,0,0,0,0,-7,3,235,-8,2,235,6,5,0,0,0,0,0,0,11874
130.733847142,0,-1,-27,0,0,0,0,0,0,-7,3,235,-8,2,235,6,5,0,0,0,0,0,0,11875
130.743030072,0,-1,-27,0,0,0,0,0,0,-7,2,235,-8,2,234,6,5,0,0,0,0,0,0,11876
130.753957034,0,-1,-27,0,0,0,0,0,0,-7,2,235,-8,2,234,6,5,0,0,0,0,0,0,11877
130.764907122,0,-1,-27,0,0,0,0,0,0,-7,2,234,-8,2,234,6,5,0,0,0,0,0,0,11878
130.775851965,0,-1,-27,0,0,0,0,0,0,-7,2,234,-8,2,234,6,5,0,0,0,0,0,0,11879
130.786921025,0,-1,-27,0,0,0,0,0,0,-8,2,235,-8,2,234,6,5,0,0,0,0,0,0,11880
130.798097134,0,-1,-27,0,0,0,0,0,0,-8,2,235,-8,2,234,6,5,0,0,0,0,0,0,11881
130.809000016,0,-1,-27,0,0,0,0,0,0,-8,2,234,-8,2,234,6,5,0,0,0,0,0,0,11882
130.825886965,0,-1,-27,0,0,0,0,0,0,-8,2,234,-8,2,234,6,5,0,0,0,0,0,0,11883
130.833680153,0,-1,-27,0,0,0,0,0,0,-8,2,234,-8,2,234,6,5,0,0,0,0,0,0,11884
130.84177804,0,-1,-27,0,0,0,0,0,0,-8,2,234,-8,2,234,6,5,0,0,0,0,0,0,11885
130.852885008,0,-1,-27,0,0,0,0,0,0,-9,2,233,-8,2,235,6,5,0,0,0,0,0,0,11886
130.863929987,0,-1,-27,0,0,0,0,0,0,-9,2,233,-8,2,235,6,5,0,0,0,0,0,0,11887
130.87506795,0,-1,-27,0,0,0,0,0,0,-9,2,234,-7,2,235,6,5,0,0,0,0,0,0,11888
130.885859967,0,-1,-27,0,0,0,0,0,0,-9,2,234,-7,2,235,6,5,0,0,0,0,0,0,11889
130.896939993,0,-1,-27,0,0,0,0,0,0,-9,2,234,-7,2,235,6,5,0,0,0,0,0,0,11890
130.907990933,0,-1,-27,0,0,0,0,0,0,-8,1,234,-7,2,235,6,5,0,0,0,0,0,0,11891
130.919019938,0,-1,-27,0,0,0,0,0,0,-8,1,234,-7,2,235,6,5,0,0,0,0,0,0,11892
130.929912091,0,-1,-27,0,0,0,0,0,0,-8,2,234,-7,2,235,6,5,0,0,0,0,0,0,11893
130.940964938,0,-1,-27,0,0,0,0,0,0,-8,2,234,-7,2,235,6,5,0,0,0,0,0,0,11894
130.951853037,0,-1,-27,0,0,0,0,0,0,-8,2,233,-8,2,234,6,5,0,0,0,0,0,0,11895
130.963041068,0,-1,-27,0,0,0,0,0,0,-8,2,233,-8,2,234,6,5,0,0,0,0,0,0,11896
130.974076987,0,-1,-27,0,0,0,0,0,0,-8,3,234,-8,2,234,6,5,0,0,0,0,0,0,11897
130.984812975,0,-1,-27,0,0,0,0,0,0,-8,3,234,-8,2,234,6,5,0,0,0,0,0,0,11898
130.996129036,0,-1,-27,0,0,0,0,0,0,-8,3,235,-8,2,234,6,5,0,0,0,0,0,0,11899
131.006911993,0,-1,-27,0,0,0,0,0,0,-8,3,235,-8,2,234,6,5,0,0,0,0,0,0,11900
131.017904044,0,-1,-27,0,0,0,0,0,0,-7,3,235,-8,2,234,6,5,0,0,0,0,0,0,11901
131.028946162,0,-1,-27,0,0,0,0,0,0,-7,3,235,-8,2,234,6,5,0,0,0,0,0,0,11902
131.039828062,0,-1,-27,0,0,0,0,0,0,-8,2,235,-8,2,234,6,5,0,0,0,0,0,0,11903
131.050891161,0,-1,-27,0,0,0,0,0,0,-8,2,235,-8,2,234,6,5,0,0,0,0,0,0,11904
131.062049151,0,-1,-27,0,0,0,0,0,0,-8,2,235,-8,2,234,6,5,0,0,0,0,0,0,11905
131.072879076,0,-1,-27,0,0,0,0,0,0,-8,2,234,-8,2,234,6,5,0,0,0,0,0,0,11906
131.084005118,0,-1,-27,0,0,0,0,0,0,-8,2,234,-8,2,234,6,5,0,0,0,0,0,0,11907
131.095062972,0,-1,-27,0,0,0,0,0,0,-9,3,235,-8,2,234,6,5,0,0,0,0,0,0,11908
131.105865956,0,-1,-27,0,0,0,0,0,0,-9,3,235,-8,2,234,6,5,0,0,0,0,0,0,11909
131.117129088,0,-1,-27,0,0,0,0,0,0,-8,3,235,-8,2,234,6,5,0,0,0,0,0,0,11910
131.128029108,0,-1,-27,0,0,0,0,0,0,-8,3,235,-8,2,234,6,5,0,0,0,0,0,0,11911
131.138992072,0,-1,-27,0,0,0,0,0,0,-9,3,235,-8,2,234,6,5,0,0,0,0,0,0,11912
131.149974108,0,-1,-27,0,0,0,0,0,0,-9,3,235,-8,2,234,6,5,0,0,0,0,0,0,11913
131.160845042,0,-1,-27,0,0,0,0,0,0,-9,3,235,-8,2,234,6,5,0,0,0,0,0,0,11914
131.172420979,0,-1,-27,0,0,0,0,0,0,-8,2,233,-8,2,234,6,5,0,0,0,0,0,0,11915
131.182929993,0,-1,-27,0,0,0,0,0,0,-8,2,233,-8,2,234,6,5,0,0,0,0,0,0,11916
131.193917036,0,-1,-27,0,0,0,0,0,0,-8,2,233,-8,2,234,6,5,0,0,0,0,0,0,11917
131.204851151,0,-1,-27,0,0,0,0,0,0,-7,2,233,-8,2,235,6,5,0,0,0,0,0,0,11918
131.222141028,0,-1,-27,0,0,0,0,0,0,-7,2,233,-8,2,235,6,5,0,0,0,0,0,0,11919
131.227043152,0,-1,-27,0,0,0,0,0,0,-9,2,234,-8,3,235,6,5,0,0,0,0,0,0,11920
131.237862111,0,-1,-27,0,0,0,0,0,0,-9,2,234,-8,3,235,6,5,0,0,0,0,0,0,11921
131.248873949,0,-1,-27,0,0,0,0,0,0,-9,2,234,-8,3,235,6,5,0,0,0,0,0,0,11922
131.259910107,0,-1,-27,0,0,0,0,0,0,-9,2,234,-8,3,235,6,5,0,0,0,0,0,0,11923
131.270892144,0,-1,-27,0,0,0,0,0,0,-9,2,234,-8,3,235,6,5,0,0,0,0,0,0,11924
131.281775952,0,-1,-27,0,0,0,0,0,0,-9,2,234,-8,3,235,6,5,0,0,0,0,0,0,11925
131.292804957,0,-1,-27,0,0,0,0,0,0,-9,2,234,-8,3,235,6,5,0,0,0,0,0,0,11926
131.303898097,0,-1,-27,0,0,0,0,0,0,-8,1,235,-8,3,235,6,5,0,0,0,0,0,0,11927
131.314813137,0,-1,-27,0,0,0,0,0,0,-8,1,235,-8,3,235,6,5,0,0,0,0,0,0,11928
131.328048945,0,-1,-27,0,0,0,0,0,0,-8,2,234,-8,3,235,6,5,0,0,0,0,0,0,11929
131.338911057,0,-1,-27,0,0,0,0,0,0,-8,2,234,-8,3,235,6,5,0,0,0,0,0,0,11930
131.34995699,0,-1,-27,0,0,0,0,0,0,-8,3,235,-8,2,234,6,5,0,0,0,0,0,0,11931
131.360917092,0,-1,-27,0,0,0,0,0,0,-8,3,235,-8,2,234,6,5,0,0,0,0,0,0,11932
131.371886969,0,-1,-27,0,0,0,0,0,0,-9,3,235,-8,2,234,6,5,0,0,0,0,0,0,11933
131.383167029,0,-1,-27,0,0,0,0,0,0,-9,3,235,-8,2,234,6,5,0,0,0,0,0,0,11934
131.393962145,0,-1,-27,0,0,0,0,0,0,-8,3,234,-8,2,234,6,5,0,0,0,0,0,0,11935
131.404798031,0,-1,-27,0,0,0,0,0,0,-8,3,234,-8,2,234,6,5,0,0,0,0,0,0,11936
131.416064024,0,-1,-27,0,0,0,0,0,0,-8,3,234,-8,2,234,6,5,0,0,0,0,0,0,11937
131.427085162,0,-1,-27,0,0,0,0,0,0,-8,3,234,-8,2,234,6,5,0,0,0,0,0,0,11938
131.441550017,0,-1,-27,0,0,0,0,0,0,-7,2,234,-8,2,234,6,5,0,0,0,0,0,0,11939
131.448827982,0,-1,-27,0,0,0,0,0,0,-7,2,234,-8,2,234,6,5,0,0,0,0,0,0,11940
131.460322142,0,-1,-27,0,0,0,0,0,0,-7,3,235,-8,2,234,6,5,0,0,0,0,0,0,11941
131.470996142,0,-1,-27,0,0,0,0,0,0,-7,3,235,-8,2,234,6,5,0,0,0,0,0,0,11942
131.482064963,0,-1,-27,0,0,0,0,0,0,-7,1,235,-8,2,234,6,5,0,0,0,0,0,0,11943
131.494066954,0,-1,-27,0,0,0,0,0,0,-7,1,235,-8,2,234,6,5,0,0,0,0,0,0,11944
131.504017115,0,-1,-27,0,0,0,0,0,0,-7,1,235,-8,2,234,6,5,0,0,0,0,0,0,11945
131.514883042,0,-1,-27,0,0,0,0,0,0,-8,2,234,-8,2,234,6,5,0,0,0,0,0,0,11946
131.526004076,0,-1,-27,0,0,0,0,0,0,-8,2,234,-8,2,234,6,5,0,0,0,0,0,0,11947
131.53688407,0,-1,-27,0,0,0,0,0,0,-8,2,234,-8,2,234,6,5,0,0,0,0,0,0,11948
131.547882081,0,-1,-27,0,0,0,0,0,0,-8,2,235,-8,2,234,6,5,0,0,0,0,0,0,11949
131.558871031,0,-1,-27,0,0,0,0,0,0,-8,2,235,-8,2,234,6,5,0,0,0,0,0,0,11950
131.569813014,0,-1,-27,0,0,0,0,0,0,-8,3,236,-8,3,235,6,5,0,0,0,0,0,0,11951
131.580881119,0,-1,-27,0,0,0,0,0,0,-8,3,236,-8,3,235,6,5,0,0,0,0,0,0,11952
131.591856957,0,-1,-27,0,0,0,0,0,0,-8,3,235,-8,3,235,6,5,0,0,0,0,0,0,11953
131.602981091,0,-1,-27,0,0,0,0,0,0,-8,3,235,-8,3,235,6,5,0,0,0,0,0,0,11954
131.613841057,0,-1,-27,0,0,0,0,0,0,-7,2,235,-8,3,235,6,5,0,0,0,0,0,0,11955
131.625041962,0,-1,-27,0,0,0,0,0,0,-7,2,235,-8,3,235,6,5,0,0,0,0,0,0,11956
131.63588214,0,-1,-27,0,0,0,0,0,0,-7,2,235,-8,3,235,6,5,0,0,0,0,0,0,11957
131.646922112,0,-1,-27,0,0,0,0,0,0,-8,2,236,-8,3,235,6,5,0,0,0,0,0,0,11958
131.657977105,0,-1,-27,0,0,0,0,0,0,-8,2,236,-8,3,235,6,5,0,0,0,0,0,0,11959
131.668863059,0,-1,-27,0,0,0,0,0,0,-8,2,236,-8,3,235,6,5,0,0,0,0,0,0,11960
131.679878951,0,-1,-27,0,0,0,0,0,0,-8,2,235,-8,2,235,6,5,0,0,0,0,0,0,11961
131.690906048,0,-1,-27,0,0,0,0,0,0,-8,2,235,-8,2,235,6,5,0,0,0,0,0,0,11962
131.701970101,0,-1,-27,0,0,0,0,0,0,-8,3,235,-8,2,235,6,5,0,0,0,0,0,0,11963
131.71291709,0,-1,-27,0,0,0,0,0,0,-8,3,235,-8,2,235,6,5,0,0,0,0,0,0,11964
131.723916054,0,-1,-27,0,0,0,0,0,0,-8,2,235,-8,2,235,6,5,0,0,0,0,0,0,11965
131.735007048,0,-1,-27,0,0,0,0,0,0,-8,2,235,-8,2,235,6,5,0,0,0,0,0,0,11966
131.745892048,0,-1,-27,0,0,0,0,0,0,-8,2,235,-8,2,235,6,5,0,0,0,0,0,0,11967
131.756991148,0,-1,-27,0,0,0,0,0,0,-8,2,235,-8,2,235,6,5,0,0,0,0,0,0,11968
131.769662142,0,-1,-27,0,0,0,0,0,0,-8,2,235,-8,2,235,6,5,0,0,0,0,0,0,11969
131.778882981,0,-1,-27,0,0,0,0,0,0,-8,2,235,-8,2,235,6,5,0,0,0,0,0,0,11970
131.789860011,0,-1,-27,0,0,0,0,0,0,-7,3,236,-8,2,235,6,5,0,0,0,0,0,0,11971
131.804928065,0,-1,-27,0,0,0,0,0,0,-7,3,236,-8,2,235,6,5,0,0,0,0,0,0,11972
131.811866045,0,-1,-27,0,0,0,0,0,0,-7,3,235,-8,2,235,6,5,0,0,0,0,0,0,11973
131.822967053,0,-1,-27,0,0,0,0,0,0,-7,3,235,-8,2,235,6,5,0,0,0,0,0,0,11974
131.841609955,0,-1,-27,0,0,0,0,0,0,-8,3,235,-8,2,235,6,5,0,0,0,0,0,0,11975
131.844877005,0,-1,-27,0,0,0,0,0,0,-8,3,235,-8,2,235,6,5,0,0,0,0,0,0,11976
131.855913163,0,-1,-27,0,0,0,0,0,0,-8,2,235,-8,2,235,6,5,0,0,0,0,0,0,11977
131.866791964,0,-1,-27,0,0,0,0,0,0,-8,2,235,-8,2,235,6,5,0,0,0,0,0,0,11978
131.877920151,0,-1,-27,0,0,0,0,0,0,-8,3,235,-8,2,235,6,5,0,0,0,0,0,0,11979
131.888952971,0,-1,-27,0,0,0,0,0,0,-8,3,235,-8,2,235,6,5,0,0,0,0,0,0,11980
131.900853157,0,-1,-27,0,0,0,0,0,0,-8,3,235,-8,2,235,6,5,0,0,0,0,0,0,11981
131.910995007,0,-1,-27,0,0,0,0,0,0,-8,2,234,-8,2,235,6,5,0,0,0,0,0,0,11982
131.921851159,0,-1,-27,0,0,0,0,0,0,-8,2,234,-8,2,235,6,5,0,0,0,0,0,0,11983
131.932894946,0,-1,-27,0,0,0,0,0,0,-8,2,234,-8,2,235,6,5,0,0,0,0,0,0,11984
131.944158078,0,-1,-27,0,0,0,0,0,0,-8,2,236,-8,2,235,6,5,0,0,0,0,0,0,11985
131.954885006,0,-1,-27,0,0,0,0,0,0,-8,2,236,-8,2,235,6,5,0,0,0,0,0,0,11986
131.965840102,0,-1,-27,0,0,0,0,0,0,-9,2,236,-8,3,235,6,5,0,0,0,0,0,0,11987
131.97684908,0,-1,-27,0,0,0,0,0,0,-9,2,236,-8,3,235,6,5,0,0,0,0,0,0,11988
131.988094092,0,-1,-27,0,0,0,0,0,0,-8,2,235,-8,3,235,6,5,0,0,0,0,0,0,11989
131.998919964,0,-1,-27,0,0,0,0,0,0,-8,2,235,-8,3,235,6,5,0,0,0,0,0,0,11990
132.009995938,0,-1,-27,0,0,0,0,0,0,-7,2,233,-8,3,235,6,5,0,0,0,0,0,0,11991
132.020923138,0,-1,-27,0,0,0,0,0,0,-7,2,233,-8,3,235,6,5,0,0,0,0,0,0,11992
132.031791926,0,-1,-27,0,0,0,0,0,0,-7,2,233,-8,3,235,6,5,0,0,0,0,0,0,11993
132.042932988,0,-1,-27,0,0,0,0,0,0,-6,2,233,-8,3,235,6,5,0,0,0,0,0,0,11994
132.053907156,0,-1,-27,0,0,0,0,0,0,-6,2,233,-8,3,235,6,5,0,0,0,0,0,0,11995
132.063954115,0,-1,-27,0,0,0,0,0,0,-6,2,233,-8,3,235,6,5,0,0,0,0,0,0,11996
132.074871064,0,-1,-27,0,0,0,0,0,0,-8,2,235,-8,2,235,6,5,0,0,0,0,0,0,11997
132.085893155,0,-1,-27,0,0,0,0,0,0,-8,2,235,-8,2,235,6,5,0,0,0,0,0,0,11998
132.096966982,0,-1,-27,0,0,0,0,0,0,-8,3,234,-8,2,235,6,5,0,0,0,0,0,0,11999
132.108359099,0,-1,-27,0,0,0,0,0,0,-8,3,234,-8,2,235,6,5,0,0,0,0,0,0,12000
132.118857146,0,-1,-27,0,0,0,0,0,0,-8,2,233,-8,2,235,6,5,0,0,0,0,0,0,12001
132.130078078,0,-1,-27,0,0,0,0,0,0,-8,2,233,-8,2,235,6,5,0,0,0,0,0,0,12002
132.140884161,0,-1,-27,0,0,0,0,0,0,-8,2,233,-8,2,235,6,5,0,0,0,0,0,0,12003
132.151922942,0,-1,-27,0,0,0,0,0,0,-8,2,233,-8,2,235,6,5,0,0,0,0,0,0,12004
132.162812949,0,-1,-27,0,0,0,0,0,0,-8,2,235,-8,2,235,6,5,0,0,0,0,0,0,12005
132.174024105,0,-1,-27,0,0,0,0,0,0,-8,2,235,-8,2,235,6,5,0,0,0,0,0,0,12006
132.184885025,0,-1,-27,0,0,0,0,0,0,-9,1,236,-8,2,234,6,5,0,0,0,0,0,0,12007
132.195904971,0,-1,-27,0,0,0,0,0,0,-9,1,236,-8,2,234,6,5,0,0,0,0,0,0,12008
132.20698905,0,-1,-27,0,0,0,0,0,0,-8,2,236,-8,2,234,6,5,0,0,0,0,0,0,12009
132.218019009,0,-1,-27,0,0,0,0,0,0,-8,2,236,-8,2,234,6,5,0,0,0,0,0,0,12010
132.228960991,0,-1,-27,0,0,0,0,0,0,-7,2,235,-8,2,234,6,5,0,0,0,0,0,0,12011
132.239886046,0,-1,-27,0,0,0,0,0,0,-7,2,235,-8,2,234,6,5,0,0,0,0,0,0,12012
132.251224041,0,-1,-27,0,0,0,0,0,0,-7,2,235,-8,2,234,6,5,0,0,0,0,0,0,12013
132.262006045,0,-1,-27,0,0,0,0,0,0,-7,2,235,-8,2,234,6,5,0,0,0,0,0,0,12014
132.273003102,0,-1,-27,0,0,0,0,0,0,-7,2,235,-8,2,234,6,5,0,0,0,0,0,0,12015
132.283893109,0,-1,-27,0,0,0,0,0,0,-7,2,235,-8,2,234,6,5,0,0,0,0,0,0,12016
132.294899941,0,-1,-27,0,0,0,0,0,0,-8,2,235,-8,2,234,6,5,0,0,0,0,0,0,12017
132.306062937,0,-1,-27,0,0,0,0,0,0,-8,2,235,-8,2,234,6,5,0,0,0,0,0,0,12018
132.316853047,0,-1,-27,0,0,0,0,0,0,-8,2,235,-8,2,234,6,5,0,0,0,0,0,0,12019
132.327898026,0,-1,-27,0,0,0,0,0,0,-8,2,235,-8,2,234,6,5,0,0,0,0,0,0,12020
132.338957072,0,-1,-27,0,0,0,0,0,0,-9,1,235,-8,2,235,6,5,0,0,0,0,0,0,12021
132.350100995,0,-1,-27,0,0,0,0,0,0,-9,1,235,-8,2,235,6,5,0,0,0,0,0,0,12022
132.366173029,0,-1,-27,0,0,0,0,0,0,-8,2,234,-8,2,235,6,5,0,0,0,0,0,0,12023
132.371989012,0,-1,-27,0,0,0,0,0,0,-8,2,234,-8,2,235,6,5,0,0,0,0,0,0,12024
132.382833958,0,-1,-27,0,0,0,0,0,0,-8,3,235,-8,2,235,6,5,0,0,0,0,0,0,12025
132.393924952,0,-1,-27,0,0,0,0,0,0,-8,3,235,-8,2,235,6,5,0,0,0,0,0,0,12026
132.404987097,0,-1,-27,0,0,0,0,0,0,-8,3,235,-8,2,235,6,5,0,0,0,0,0,0,12027
132.415780068,0,-1,-27,0,0,0,0,0,0,-8,3,235,-8,2,235,6,5,0,0,0,0,0,0,12028
132.427024126,0,-1,-27,0,0,0,0,0,0,-9,3,235,-8,2,235,6,5,0,0,0,0,0,0,12029
132.437953949,0,-1,-27,0,0,0,0,0,0,-9,3,235,-8,2,235,6,5,0,0,0,0,0,0,12030
132.448791981,0,-1,-27,0,0,0,0,0,0,-9,2,235,-8,2,235,6,5,0,0,0,0,0,0,12031
132.460090161,0,-1,-27,0,0,0,0,0,0,-9,2,235,-8,2,235,6,5,0,0,0,0,0,0,12032
132.470901967,0,-1,-27,0,0,0,0,0,0,-9,2,235,-8,2,235,6,5,0,0,0,0,0,0,12033
132.483624936,0,-1,-27,0,0,0,0,0,0,-8,2,234,-8,2,235,6,5,0,0,0,0,0,0,12034
132.493046999,0,-1,-27,0,0,0,0,0,0,-8,2,234,-8,2,235,6,5,0,0,0,0,0,0,12035
132.503745079,0,-1,-27,0,0,0,0,0,0,-9,2,234,-8,2,235,6,5,0,0,0,0,0,0,12036
132.514903069,0,-1,-27,0,0,0,0,0,0,-9,2,234,-8,2,235,6,5,0,0,0,0,0,0,12037
132.525866986,0,-1,-27,0,0,0,0,0,0,-8,3,234,-8,2,235,6,5,0,0,0,0,0,0,12038
132.536904097,0,-1,-27,0,0,0,0,0,0,-8,3,234,-8,2,235,6,5,0,0,0,0,0,0,12039
132.547883988,0,-1,-27,0,0,0,0,0,0,-8,2,235,-8,2,235,6,5,0,0,0,0,0,0,12040
132.558962107,0,-1,-27,0,0,0,0,0,0,-8,2,235,-8,2,235,6,5,0,0,0,0,0,0,12041
132.56991911,0,-1,-27,0,0,0,0,0,0,-8,2,236,-8,2,235,6,5,0,0,0,0,0,0,12042
132.580919028,0,-1,-27,0,0,0,0,0,0,-8,2,236,-8,2,235,6,5,0,0,0,0,0,0,12043
132.591849089,0,-1,-27,0,0,0,0,0,0,-8,2,236,-8,2,235,6,5,0,0,0,0,0,0,12044
132.602795124,0,-1,-27,0,0,0,0,0,0,-8,1,235,-8,3,235,6,5,0,0,0,0,0,0,12045
132.614058972,0,-1,-27,0,0,0,0,0,0,-8,1,235,-8,3,235,6,5,0,0,0,0,0,0,12046
132.624913931,0,-1,-27,0,0,0,0,0,0,-8,2,235,-9,3,235,6,5,0,0,0,0,0,0,12047
132.635829926,0,-1,-27,0,0,0,0,0,0,-8,2,235,-9,3,235,6,5,0,0,0,0,0,0,12048
132.64686513,0,-1,-27,0,0,0,0,0,0,-7,2,235,-9,2,235,6,5,0,0,0,0,0,0,12049
132.658082009,0,-1,-27,0,0,0,0,0,0,-7,2,235,-9,2,235,6,5,0,0,0,0,0,0,12050
132.66880107,0,-1,-27,0,0,0,0,0,0,-7,3,233,-8,2,235,6,5,0,0,0,0,0,0,12051
132.679947138,0,-1,-27,0,0,0,0,0,0,-7,3,233,-8,2,235,6,5,0,0,0,0,0,0,12052
132.690895081,0,-1,-27,0,0,0,0,0,0,-8,3,233,-8,2,235,6,5,0,0,0,0,0,0,12053
132.701763154,0,-1,-27,0,0,0,0,0,0,-8,3,233,-8,2,235,6,5,0,0,0,0,0,0,12054
132.713081122,0,-1,-27,0,0,0,0,0,0,-8,2,235,-8,2,235,6,5,0,0,0,0,0,0,12055
132.724143982,0,-1,-27,0,0,0,0,0,0,-8,2,235,-8,2,235,6,5,0,0,0,0,0,0,12056
132.737081051,0,-1,-27,0,0,0,0,0,0,-8,2,235,-8,2,235,6,5,0,0,0,0,0,0,12057
132.745903969,0,-1,-27,0,0,0,0,0,0,-8,2,235,-8,2,235,6,5,0,0,0,0,0,0,12058
132.756917,0,-1,-27,0,0,0,0,0,0,-8,2,235,-8,2,235,6,5,0,0,0,0,0,0,12059
132.770828009,0,-1,-27,0,0,0,0,0,0,-9,1,236,-8,2,235,6,5,0,0,0,0,0,0,12060
132.781903029,0,-1,-27,0,0,0,0,0,0,-9,1,236,-8,2,235,6,5,0,0,0,0,0,0,12061
132.796994925,0,-1,-27,0,0,0,0,0,0,-7,3,234,-8,2,235,6,5,0,0,0,0,0,0,12062
132.802866936,0,-1,-27,0,0,0,0,0,0,-7,3,234,-8,2,235,6,5,0,0,0,0,0,0,12063
132.813885928,0,-1,-27,0,0,0,0,0,0,-7,3,234,-8,2,235,6,5,0,0,0,0,0,0,12064
132.825824976,0,-1,-27,0,0,0,0,0,0,-7,1,234,-8,2,235,6,5,0,0,0,0,0,0,12065
132.835829974,0,-1,-27,0,0,0,0,0,0,-7,1,234,-8,2,235,6,5,0,0,0,0,0,0,12066
132.847036124,0,-1,-27,0,0,0,0,0,0,-7,1,234,-8,2,235,6,5,0,0,0,0,0,0,12067
132.857880116,0,-1,-27,0,0,0,0,0,0,-8,2,234,-8,2,234,6,5,0,0,0,0,0,0,12068
132.868899107,0,-1,-27,0,0,0,0,0,0,-8,2,234,-8,2,234,6,5,0,0,0,0,0,0,12069
132.879889012,0,-1,-27,0,0,0,0,0,0,-8,1,234,-8,2,234,6,5,0,0,0,0,0,0,12070
132.890952111,0,-1,-27,0,0,0,0,0,0,-8,1,234,-8,2,234,6,5,0,0,0,0,0,0,12071
132.90198493,0,-1,-27,0,0,0,0,0,0,-8,1,234,-8,2,234,6,5,0,0,0,0,0,0,12072
132.912744046,0,-1,-27,0,0,0,0,0,0,-8,2,234,-8,2,234,6,5,0,0,0,0,0,0,12073
132.923920155,0,-1,-27,0,0,0,0,0,0,-8,2,234,-8,2,234,6,5,0,0,0,0,0,0,12074
132.934917927,0,-1,-27,0,0,0,0,0,0,-8,2,234,-8,2,234,6,5,0,0,0,0,0,0,12075
132.945773125,0,-1,-27,0,0,0,0,0,0,-8,2,235,-8,2,234,6,5,0,0,0,0,0,0,12076
132.956973076,0,-1,-27,0,0,0,0,0,0,-8,2,235,-8,2,234,6,5,0,0,0,0,0,0,12077
132.967913151,0,-1,-27,0,0,0,0,0,0,-9,2,235,-8,2,234,6,5,0,0,0,0,0,0,12078
132.978924036,0,-1,-27,0,0,0,0,0,0,-9,2,235,-8,2,234,6,5,0,0,0,0,0,0,12079
132.989928008,0,-1,-27,0,0,0,0,0,0,-9,2,235,-8,2,234,6,5,0,0,0,0,0,0,12080
133.001927138,0,-1,-27,0,0,0,0,0,0,-9,1,234,-8,2,234,6,5,0,0,0,0,0,0,12081
133.013579131,0,-1,-27,0,0,0,0,0,0,-9,1,234,-8,2,234,6,5,0,0,0,0,0,0,12082
133.022936106,0,-1,-27,0,0,0,0,0,0,-9,2,234,-8,2,234,6,5,0,0,0,0,0,0,12083
133.033854962,0,-1,-27,0,0,0,0,0,0,-9,2,234,-8,2,234,6,5,0,0,0,0,0,0,12084
133.044810057,0,-1,-27,0,0,0,0,0,0,-9,2,234,-8,2,234,6,5,0,0,0,0,0,0,12085
133.055869103,0,-1,-27,0,0,0,0,0,0,-8,2,234,-8,2,235,6,5,0,0,0,0,0,0,12086
133.069684983,0,-1,-27,0,0,0,0,0,0,-8,2,234,-8,2,235,6,5,0,0,0,0,0,0,12087
133.077775002,0,-1,-27,0,0,0,0,0,0,-9,2,235,-8,2,235,6,5,0,0,0,0,0,0,12088
133.088009119,0,-1,-27,0,0,0,0,0,0,-9,2,235,-8,2,235,6,5,0,0,0,0,0,0,12089
133.101660014,0,-1,-27,0,0,0,0,0,0,-8,2,235,-8,2,235,6,5,0,0,0,0,0,0,12090
133.109919072,0,-1,-27,0,0,0,0,0,0,-8,2,235,-8,2,235,6,5,0,0,0,0,0,0,12091
133.120938063,0,-1,-27,0,0,0,0,0,0,-8,2,235,-8,2,235,6,5,0,0,0,0,0,0,12092
133.131802082,0,-1,-27,0,0,0,0,0,0,-8,3,235,-8,2,235,6,5,0,0,0,0,0,0,12093
133.14307499,0,-1,-27,0,0,0,0,0,0,-8,3,235,-8,2,235,6,5,0,0,0,0,0,0,12094
133.153977156,0,-1,-27,0,0,0,0,0,0,-8,3,235,-8,2,235,6,5,0,0,0,0,0,0,12095
133.164879084,0,-1,-27,0,0,0,0,0,0,-7,3,235,-8,2,235,6,5,0,0,0,0,0,0,12096
133.175904036,0,-1,-27,0,0,0,0,0,0,-7,3,235,-8,2,235,6,5,0,0,0,0,0,0,12097
133.187011958,0,-1,-27,0,0,0,0,0,0,-7,3,234,-8,2,235,6,5,0,0,0,0,0,0,12098
133.19779706,0,-1,-27,0,0,0,0,0,0,-7,3,234,-8,2,235,6,5,0,0,0,0,0,0,12099
133.208871127,0,-1,-27,0,0,0,0,0,0,-8,2,234,-8,2,235,6,5,0,0,0,0,0,0,12100
133.220195055,0,-1,-27,0,0,0,0,0,0,-8,2,234,-8,2,235,6,5,0,0,0,0,0,0,12101
133.230951071,0,-1,-27,0,0,0,0,0,0,-8,2,235,-8,2,235,6,5,0,0,0,0,0,0,12102
133.241807938,0,-1,-27,0,0,0,0,0,0,-8,2,235,-8,2,235,6,5,0,0,0,0,0,0,12103
133.252999068,0,-1,-27,0,0,0,0,0,0,-7,2,234,-8,2,235,6,5,0,0,0,0,0,0,12104
133.263885975,0,-1,-27,0,0,0,0,0,0,-7,2,234,-8,2,235,6,5,0,0,0,0,0,0,12105
133.274960995,0,-1,-27,0,0,0,0,0,0,-8,1,236,-8,2,235,6,5,0,0,0,0,0,0,12106
133.285958052,0,-1,-27,0,0,0,0,0,0,-8,1,236,-8,2,235,6,5,0,0,0,0,0,0,12107
133.29707098,0,-1,-27,0,0,0,0,0,0,-7,2,234,-8,2,235,6,5,0,0,0,0,0,0,12108
133.307832957,0,-1,-27,0,0,0,0,0,0,-7,2,234,-8,2,235,6,5,0,0,0,0,0,0,12109
133.318803072,0,-1,-27,0,0,0,0,0,0,-7,1,235,-8,2,235,6,5,0,0,0,0,0,0,12110
133.32992816,0,-1,-27,0,0,0,0,0,0,-7,1,235,-8,2,235,6,5,0,0,0,0,0,0,12111
133.340929985,0,-1,-27,0,0,0,0,0,0,-7,1,235,-8,2,235,6,5,0,0,0,0,0,0,12112
133.351839066,0,-1,-27,0,0,0,0,0,0,-7,1,235,-8,2,235,6,5,0,0,0,0,0,0,12113
133.362946988,0,-1,-27,0,0,0,0,0,0,-7,1,234,-7,2,235,6,5,0,0,0,0,0,0,12114
133.373898983,0,-1,-27,0,0,0,0,0,0,-7,1,234,-7,2,235,6,5,0,0,0,0,0,0,12115
133.384922982,0,-1,-27,0,0,0,0,0,0,-8,1,235,-7,2,235,6,5,0,0,0,0,0,0,12116
133.39598012,0,-1,-27,0,0,0,0,0,0,-8,1,235,-7,2,235,6,5,0,0,0,0,0,0,12117
133.406984091,0,-1,-27,0,0,0,0,0,0,-8,2,235,-7,2,235,6,5,0,0,0,0,0,0,12118
133.417860985,0,-1,-27,0,0,0,0,0,0,-8,2,235,-7,2,235,6,5,0,0,0,0,0,0,12119
133.428933144,0,-1,-27,0,0,0,0,0,0,-7,2,236,-7,2,235,6,5,0,0,0,0,0,0,12120
133.43994999,0,-1,-27,0,0,0,0,0,0,-7,2,236,-7,2,235,6,5,0,0,0,0,0,0,12121
133.450964928,0,-1,-27,0,0,0,0,0,0,-8,3,234,-7,1,235,6,5,0,0,0,0,0,0,12122
133.461841107,0,-1,-27,0,0,0,0,0,0,-8,3,234,-7,1,235,6,5,0,0,0,0,0,0,12123
133.477532149,0,-1,-27,0,0,0,0,0,0,-8,2,234,-7,1,235,6,5,0,0,0,0,0,0,12124
133.483917952,0,-1,-27,0,0,0,0,0,0,-8,2,234,-7,1,235,6,5,0,0,0,0,0,0,12125
133.495310069,0,-1,-27,0,0,0,0,0,0,-8,2,235,-7,1,235,6,5,0,0,0,0,0,0,12126
133.505944968,0,-1,-27,0,0,0,0,0,0,-8,2,235,-7,1,235,6,5,0,0,0,0,0,0,12127
133.51687193,0,-1,-27,0,0,0,0,0,0,-8,1,235,-7,1,235,6,5,0,0,0,0,0,0,12128
133.528077126,0,-1,-27,0,0,0,0,0,0,-8,1,235,-7,1,235,6,5,0,0,0,0,0,0,12129
133.538882971,0,-1,-27,0,0,0,0,0,0,-8,2,235,-8,1,235,6,5,0,0,0,0,0,0,12130
133.549898148,0,-1,-27,0,0,0,0,0,0,-8,2,235,-8,1,235,6,5,0,0,0,0,0,0,12131
133.561098099,0,-1,-27,0,0,0,0,0,0,-8,3,234,-8,2,235,6,5,0,0,0,0,0,0,12132
133.577662945,0,-1,-27,0,0,0,0,0,0,-8,3,234,-8,2,235,6,5,0,0,0,0,0,0,12133
133.582963944,0,-1,-27,0,0,0,0,0,0,-8,3,234,-8,2,235,6,5,0,0,0,0,0,0,12134
133.594124079,0,-1,-27,0,0,0,0,0,0,-8,3,234,-8,2,235,6,5,0,0,0,0,0,0,12135
133.604875088,0,-1,-27,0,0,0,0,0,0,-7,2,233,-8,2,235,6,5,0,0,0,0,0,0,12136
133.615926028,0,-1,-27,0,0,0,0,0,0,-7,2,233,-8,2,235,6,5,0,0,0,0,0,0,12137
133.626857043,0,-1,-27,0,0,0,0,0,0,-8,2,235,-8,2,235,6,5,0,0,0,0,0,0,12138
133.637901068,0,-1,-27,0,0,0,0,0,0,-8,2,235,-8,2,235,6,5,0,0,0,0,0,0,12139
133.648880005,0,-1,-27,0,0,0,0,0,0,-8,3,234,-8,2,235,6,5,0,0,0,0,0,0,12140
133.659971953,0,-1,-27,0,0,0,0,0,0,-8,3,234,-8,2,235,6,5,0,0,0,0,0,0,12141
133.671267033,0,-1,-27,0,0,0,0,0,0,-7,2,235,-8,2,234,6,5,0,0,0,0,0,0,12142
133.681849957,0,-1,-27,0,0,0,0,0,0,-7,2,235,-8,2,234,6,5,0,0,0,0,0,0,12143
133.692871094,0,-1,-27,0,0,0,0,0,0,-7,2,235,-8,2,234,6,5,0,0,0,0,0,0,12144
133.705695153,0,-1,-27,0,0,0,0,0,0,-8,2,235,-8,2,234,6,5,0,0,0,0,0,0,12145
133.714961052,0,-1,-27,0,0,0,0,0,0,-8,2,235,-8,2,234,6,5,0,0,0,0,0,0,12146
133.725940943,0,-1,-27,0,0,0,0,0,0,-8,2,235,-8,2,234,6,5,0,0,0,0,0,0,12147
133.736812115,0,-1,-27,0,0,0,0,0,0,-7,2,234,-8,2,234,6,5,0,0,0,0,0,0,12148
133.747997046,0,-1,-27,0,0,0,0,0,0,-7,2,234,-8,2,234,6,5,0,0,0,0,0,0,12149
133.758895159,0,-1,-27,0,0,0,0,0,0,-8,2,234,-8,2,234,6,5,0,0,0,0,0,0,12150
133.769901991,0,-1,-27,0,0,0,0,0,0,-8,2,234,-8,2,234,6,5,0,0,0,0,0,0,12151
133.780827046,0,-1,-27,0,0,0,0,0,0,-7,2,234,-8,2,234,6,5,0,0,0,0,0,0,12152
133.792092085,0,-1,-27,0,0,0,0,0,0,-7,2,234,-8,2,234,6,5,0,0,0,0,0,0,12153
133.802864075,0,-1,-27,0,0,0,0,0,0,-7,2,234,-8,2,234,6,5,0,0,0,0,0,0,12154
133.817870141,0,-1,-27,0,0,0,0,0,0,-7,2,234,-8,2,234,6,5,0,0,0,0,0,0,12155
133.824954987,0,-1,-27,0,0,0,0,0,0,-7,2,234,-8,2,234,6,5,0,0,0,0,0,0,12156
133.835883141,0,-1,-27,0,0,0,0,0,0,-7,3,236,-7,2,234,6,5,0,0,0,0,0,0,12157
133.846807957,0,-1,-27,0,0,0,0,0,0,-7,3,236,-7,2,234,6,5,0,0,0,0,0,0,12158
133.858010054,0,-1,-27,0,0,0,0,0,0,-7,3,236,-7,2,234,6,5,0,0,0,0,0,0,12159
133.869003058,0,-1,-27,0,0,0,0,0,0,-7,3,236,-7,2,234,6,5,0,0,0,0,0,0,12160
133.879845143,0,-1,-27,0,0,0,0,0,0,-8,1,236,-7,2,235,6,5,0,0,0,0,0,0,12161
133.890810967,0,-1,-27,0,0,0,0,0,0,-8,1,236,-7,2,235,6,5,0,0,0,0,0,0,12162
133.901802063,0,-1,-27,0,0,0,0,0,0,-9,1,235,-7,2,235,6,5,0,0,0,0,0,0,12163
133.912972928,0,-1,-27,0,0,0,0,0,0,-9,1,235,-7,2,235,6,5,0,0,0,0,0,0,12164
133.924111128,0,-1,-27,0,0,0,0,0,0,-9,0,235,-7,2,235,6,5,0,0,0,0,0,0,12165
133.937591076,0,-1,-27,0,0,0,0,0,0,-9,0,235,-7,2,235,6,5,0,0,0,0,0,0,12166
133.94886303,0,-1,-27,0,0,0,0,0,0,-9,0,235,-7,2,235,6,5,0,0,0,0,0,0,12167
133.959978104,0,-1,-27,0,0,0,0,0,0,-9,0,235,-7,2,235,6,5,0,0,0,0,0,0,12168
133.971713067,0,-1,-27,0,0,0,0,0,0,-9,0,235,-7,2,235,6,5,0,0,0,0,0,0,12169
133.98188901,0,-1,-27,0,0,0,0,0,0,-8,3,235,-7,2,235,6,5,0,0,0,0,0,0,12170
133.992937088,0,-1,-27,0,0,0,0,0,0,-8,3,235,-7,2,235,6,5,0,0,0,0,0,0,12171
134.005901099,0,-1,-27,0,0,0,0,0,0,-8,3,234,-7,2,235,6,5,0,0,0,0,0,0,12172
134.014833928,0,-1,-27,0,0,0,0,0,0,-8,3,234,-7,2,235,6,5,0,0,0,0,0,0,12173
134.025820971,0,-1,-27,0,0,0,0,0,0,-8,3,234,-7,2,235,6,5,0,0,0,0,0,0,12174
134.036829949,0,-1,-27,0,0,0,0,0,0,-7,2,234,-8,2,235,6,5,0,0,0,0,0,0,12175
134.047878027,0,-1,-27,0,0,0,0,0,0,-7,2,234,-8,2,235,6,5,0,0,0,0,0,0,12176
134.058902979,0,-1,-27,0,0,0,0,0,0,-7,2,235,-8,2,235,6,5,0,0,0,0,0,0,12177
134.069929123,0,-1,-27,0,0,0,0,0,0,-7,2,235,-8,2,235,6,5,0,0,0,0,0,0,12178
134.081001044,0,-1,-27,0,0,0,0,0,0,-7,1,235,-8,1,235,6,5,0,0,0,0,0,0,12179
134.09187913,0,-1,-27,0,0,0,0,0,0,-7,1,235,-8,1,235,6,5,0,0,0,0,0,0,12180
134.10184908,0,-1,-27,0,0,0,0,0,0,-8,1,234,-8,1,235,6,5,0,0,0,0,0,0,12181
134.11290598,0,-1,-27,0,0,0,0,0,0,-8,1,234,-8,1,235,6,5,0,0,0,0,0,0,12182
134.123930932,0,-1,-27,0,0,0,0,0,0,-8,1,234,-8,1,235,6,5,0,0,0,0,0,0,12183
134.134915114,0,-1,-27,0,0,0,0,0,0,-9,2,235,-8,1,235,6,5,0,0,0,0,0,0,12184
134.145981074,0,-1,-27,0,0,0,0,0,0,-9,2,235,-8,1,235,6,5,0,0,0,0,0,0,12185
134.157000065,0,-1,-27,0,0,0,0,0,0,-9,2,235,-8,1,235,6,5,0,0,0,0,0,0,12186
134.167945147,0,-1,-27,0,0,0,0,0,0,-10,3,236,-8,1,235,6,5,0,0,0,0,0,0,12187
134.178853035,0,-1,-27,0,0,0,0,0,0,-10,3,236,-8,1,235,6,5,0,0,0,0,0,0,12188
134.189896107,0,-1,-27,0,0,0,0,0,0,-9,2,235,-8,2,235,6,5,0,0,0,0,0,0,12189
134.20092702,0,-1,-27,0,0,0,0,0,0,-9,2,235,-8,2,235,6,5,0,0,0,0,0,0,12190
134.21204114,0,-1,-27,0,0,0,0,0,0,-8,1,236,-8,2,235,6,5,0,0,0,0,0,0,12191
134.223063946,0,-1,-27,0,0,0,0,0,0,-8,1,236,-8,2,235,6,5,0,0,0,0,0,0,12192
134.234126091,0,-1,-27,0,0,0,0,0,0,-7,1,236,-8,2,235,6,5,0,0,0,0,0,0,12193
134.244812966,0,-1,-27,0,0,0,0,0,0,-7,1,236,-8,2,235,6,5,0,0,0,0,0,0,12194
134.255924941,0,-1,-27,0,0,0,0,0,0,-7,2,236,-8,2,235,6,5,0,0,0,0,0,0,12195
134.266989947,0,-1,-27,0,0,0,0,0,0,-7,2,236,-8,2,235,6,5,0,0,0,0,0,0,12196
134.277963162,0,-1,-27,0,0,0,0,0,0,-9,3,235,-8,2,235,6,5,0,0,0,0,0,0,12197
134.289019108,0,-1,-27,0,0,0,0,0,0,-9,3,235,-8,2,235,6,5,0,0,0,0,0,0,12198
134.300253153,0,-1,-27,0,0,0,0,0,0,-9,3,234,-8,2,235,6,5,0,0,0,0,0,0,12199
134.310930014,0,-1,-27,0,0,0,0,0,0,-9,3,234,-8,2,235,6,5,0,0,0,0,0,0,12200
134.322188139,0,-1,-27,0,0,0,0,0,0,-8,2,235,-8,2,235,6,5,0,0,0,0,0,0,12201
134.333047152,0,-1,-27,0,0,0,0,0,0,-8,2,235,-8,2,235,6,5,0,0,0,0,0,0,12202
134.343883992,0,-1,-27,0,0,0,0,0,0,-8,1,235,-8,2,235,6,5,0,0,0,0,0,0,12203
134.35491395,0,-1,-27,0,0,0,0,0,0,-8,1,235,-8,2,235,6,5,0,0,0,0,0,0,12204
134.365850926,0,-1,-27,0,0,0,0,0,0,-8,0,235,-8,2,236,6,5,0,0,0,0,0,0,12205
134.376868964,0,-1,-27,0,0,0,0,0,0,-8,0,235,-8,2,236,6,5,0,0,0,0,0,0,12206
134.388164998,0,-1,-27,0,0,0,0,0,0,-8,1,234,-8,2,236,6,5,0,0,0,0,0,0,12207
134.398875952,0,-1,-27,0,0,0,0,0,0,-8,1,234,-8,2,236,6,5,0,0,0,0,0,0,12208
134.409831047,0,-1,-27,0,0,0,0,0,0,-7,2,234,-8,2,236,6,5,0,0,0,0,0,0,12209
134.420940161,0,-1,-27,0,0,0,0,0,0,-7,2,234,-8,2,236,6,5,0,0,0,0,0,0,12210
134.431910992,0,-1,-27,0,0,0,0,0,0,-7,2,234,-8,2,235,6,5,0,0,0,0,0,0,12211
134.44295311,0,-1,-27,0,0,0,0,0,0,-7,2,234,-8,2,235,6,5,0,0,0,0,0,0,12212
134.453953982,0,-1,-27,0,0,0,0,0,0,-7,3,234,-8,2,235,6,5,0,0,0,0,0,0,12213
134.464931012,0,-1,-27,0,0,0,0,0,0,-7,3,234,-8,2,235,6,5,0,0,0,0,0,0,12214
134.475839138,0,-1,-27,0,0,0,0,0,0,-8,3,235,-8,2,235,6,5,0,0,0,0,0,0,12215
134.487082959,0,-1,-27,0,0,0,0,0,0,-8,3,235,-8,2,235,6,5,0,0,0,0,0,0,12216
134.497869969,0,-1,-27,0,0,0,0,0,0,-7,1,235,-8,2,235,6,5,0,0,0,0,0,0,12217
134.508849144,0,-1,-27,0,0,0,0,0,0,-7,1,235,-8,2,235,6,5,0,0,0,0,0,0,12218
134.519873143,0,-1,-27,0,0,0,0,0,0,-7,0,234,-8,2,234,6,5,0,0,0,0,0,0,12219
134.532320023,0,-1,-27,0,0,0,0,0,0,-7,0,234,-8,2,234,6,5,0,0,0,0,0,0,12220
134.542008162,0,-1,-27,0,0,0,0,0,0,-7,0,234,-8,2,234,6,5,0,0,0,0,0,0,12221
134.552766085,0,-1,-27,0,0,0,0,0,0,-7,0,234,-8,2,234,6,5,0,0,0,0,0,0,12222
134.563866139,0,-1,-27,0,0,0,0,0,0,-8,2,233,-7,2,234,6,5,0,0,0,0,0,0,12223
134.574877024,0,-1,-27,0,0,0,0,0,0,-8,2,233,-7,2,234,6,5,0,0,0,0,0,0,12224
134.585771084,0,-1,-27,0,0,0,0,0,0,-9,3,234,-7,2,234,6,5,0,0,0,0,0,0,12225
134.596930027,0,-1,-27,0,0,0,0,0,0,-9,3,234,-7,2,234,6,5,0,0,0,0,0,0,12226
134.607939959,0,-1,-27,0,0,0,0,0,0,-9,3,234,-7,2,234,6,5,0,0,0,0,0,0,12227
134.618901968,0,-1,-27,0,0,0,0,0,0,-9,3,234,-7,2,234,6,5,0,0,0,0,0,0,12228
134.630120993,0,-1,-27,0,0,0,0,0,0,-8,2,234,-7,2,234,6,5,0,0,0,0,0,0,12229
134.641040087,0,-1,-27,0,0,0,0,0,0,-8,2,234,-7,2,234,6,5,0,0,0,0,0,0,12230
134.651857138,0,-1,-27,0,0,0,0,0,0,-7,2,234,-7,2,234,6,5,0,0,0,0,0,0,12231
134.66288209,0,-1,-27,0,0,0,0,0,0,-7,2,234,-7,2,234,6,5,0,0,0,0,0,0,12232
134.67387414,0,-1,-27,0,0,0,0,0,0,-7,1,234,-7,2,234,6,5,0,0,0,0,0,0,12233
134.684894085,0,-1,-27,0,0,0,0,0,0,-7,1,234,-7,2,234,6,5,0,0,0,0,0,0,12234
134.696179152,0,-1,-27,0,0,0,0,0,0,-7,1,234,-7,2,234,6,5,0,0,0,0,0,0,12235
134.709654093,0,-1,-27,0,0,0,0,0,0,-7,1,234,-7,2,234,6,5,0,0,0,0,0,0,12236
134.717833043,0,-1,-27,0,0,0,0,0,0,-8,2,234,-8,2,234,6,5,0,0,0,0,0,0,12237
134.728948117,0,-1,-27,0,0,0,0,0,0,-8,2,234,-8,2,234,6,5,0,0,0,0,0,0,12238
134.745656014,0,-1,-27,0,0,0,0,0,0,-8,2,234,-8,2,234,6,5,0,0,0,0,0,0,12239
134.75091815,0,-1,-27,0,0,0,0,0,0,-8,3,234,-8,2,234,6,5,0,0,0,0,0,0,12240
134.761914969,0,-1,-27,0,0,0,0,0,0,-8,3,234,-8,2,234,6,5,0,0,0,0,0,0,12241
134.773617983,0,-1,-27,0,0,0,0,0,0,-8,3,234,-8,2,234,6,5,0,0,0,0,0,0,12242
134.783913136,0,-1,-27,0,0,0,0,0,0,-8,3,234,-8,2,234,6,5,0,0,0,0,0,0,12243
134.794798136,0,-1,-27,0,0,0,0,0,0,-8,3,235,-8,2,234,6,5,0,0,0,0,0,0,12244
134.805886984,0,-1,-27,0,0,0,0,0,0,-8,3,235,-8,2,234,6,5,0,0,0,0,0,0,12245
134.816941023,0,-1,-27,0,0,0,0,0,0,-8,3,235,-8,2,234,6,5,0,0,0,0,0,0,12246
134.832787037,0,-1,-27,0,0,0,0,0,0,-7,2,235,-8,2,234,6,5,0,0,0,0,0,0,12247
134.838745118,0,-1,-27,0,0,0,0,0,0,-7,2,235,-8,2,234,6,5,0,0,0,0,0,0,12248
134.849822998,0,-1,-27,0,0,0,0,0,0,-7,3,235,-8,2,234,6,5,0,0,0,0,0,0,12249
134.86192894,0,-1,-27,0,0,0,0,0,0,-7,3,235,-8,2,234,6,5,0,0,0,0,0,0,12250
134.871782065,0,-1,-27,0,0,0,0,0,0,-7,3,235,-8,2,234,6,5,0,0,0,0,0,0,12251
134.882969141,0,-1,-27,0,0,0,0,0,0,-8,2,236,-8,2,234,6,5,0,0,0,0,0,0,12252
134.894006014,0,-1,-27,0,0,0,0,0,0,-8,2,236,-8,2,234,6,5,0,0,0,0,0,0,12253
134.904888154,0,-1,-27,0,0,0,0,0,0,-9,3,235,-7,2,234,6,5,0,0,0,0,0,0,12254
134.915890933,0,-1,-27,0,0,0,0,0,0,-9,3,235,-7,2,234,6,5,0,0,0,0,0,0,12255
134.927185059,0,-1,-27,0,0,0,0,0,0,-9,2,235,-7,2,234,6,5,0,0,0,0,0,0,12256
134.937945128,0,-1,-27,0,0,0,0,0,0,-9,2,235,-7,2,234,6,5,0,0,0,0,0,0,12257
134.948817015,0,-1,-27,0,0,0,0,0,0,-9,2,235,-7,2,234,6,5,0,0,0,0,0,0,12258
134.959996939,0,-1,-27,0,0,0,0,0,0,-7,2,235,-7,2,234,6,5,0,0,0,0,0,0,12259
134.971416951,0,-1,-27,0,0,0,0,0,0,-7,2,235,-7,2,234,6,5,0,0,0,0,0,0,12260
134.989712,0,-1,-27,0,0,0,0,0,0,-7,2,234,-7,3,235,6,5,0,0,0,0,0,0,12261
134.992825032,0,-1,-27,0,0,0,0,0,0,-7,2,234,-7,3,235,6,5,0,0,0,0,0,0,12262
135.005070925,0,-1,-27,0,0,0,0,0,0,-9,3,234,-7,3,235,6,5,0,0,0,0,0,0,12263
135.02163601,0,-1,-27,0,0,0,0,0,0,-9,3,234,-7,3,235,6,5,0,0,0,0,0,0,12264
135.025951148,0,-1,-27,0,0,0,0,0,0,-9,3,234,-8,3,235,6,5,0,0,0,0,0,0,12265
135.037024022,0,-1,-27,0,0,0,0,0,0,-9,3,234,-8,3,235,6,5,0,0,0,0,0,0,12266
135.047830105,0,-1,-27,0,0,0,0,0,0,-9,3,234,-8,3,235,6,5,0,0,0,0,0,0,12267
135.05896616,0,-1,-27,0,0,0,0,0,0,-9,1,235,-8,2,235,6,5,0,0,0,0,0,0,12268
135.06985116,0,-1,-27,0,0,0,0,0,0,-9,1,235,-8,2,235,6,5,0,0,0,0,0,0,12269
135.080876112,0,-1,-27,0,0,0,0,0,0,-9,1,235,-8,2,235,6,5,0,0,0,0,0,0,12270
135.090955019,0,-1,-27,0,0,0,0,0,0,-8,0,235,-8,2,235,6,5,0,0,0,0,0,0,12271
135.102016926,0,-1,-27,0,0,0,0,0,0,-8,0,235,-8,2,235,6,5,0,0,0,0,0,0,12272
135.113847971,0,-1,-27,0,0,0,0,0,0,-8,0,234,-8,2,235,6,5,0,0,0,0,0,0,12273
135.123929024,0,-1,-27,0,0,0,0,0,0,-8,0,234,-8,2,235,6,5,0,0,0,0,0,0,12274
135.134943963,0,-1,-27,0,0,0,0,0,0,-8,0,235,-8,2,235,6,5,0,0,0,0,0,0,12275
135.14585805,0,-1,-27,0,0,0,0,0,0,-8,0,235,-8,2,235,6,5,0,0,0,0,0,0,12276
135.156891108,0,-1,-27,0,0,0,0,0,0,-8,2,235,-8,2,235,6,5,0,0,0,0,0,0,12277
135.167959929,0,-1,-27,0,0,0,0,0,0,-8,2,235,-8,2,235,6,5,0,0,0,0,0,0,12278
135.178828955,0,-1,-27,0,0,0,0,0,0,-8,2,235,-8,2,235,6,5,0,0,0,0,0,0,12279
135.189888001,0,-1,-27,0,0,0,0,0,0,-7,3,236,-8,2,235,6,5,0,0,0,0,0,0,12280
135.200952053,0,-1,-27,0,0,0,0,0,0,-7,3,236,-8,2,235,6,5,0,0,0,0,0,0,12281
135.211956978,0,-1,-27,0,0,0,0,0,0,-7,3,236,-8,2,235,6,5,0,0,0,0,0,0,12282
135.222888947,0,-1,-27,0,0,0,0,0,0,-7,3,235,-8,2,235,6,5,0,0,0,0,0,0,12283
135.23387599,0,-1,-27,0,0,0,0,0,0,-7,3,235,-8,2,235,6,5,0,0,0,0,0,0,12284
135.244874001,0,-1,-27,0,0,0,0,0,0,-7,2,234,-8,1,235,6,5,0,0,0,0,0,0,12285
135.255859137,0,-1,-27,0,0,0,0,0,0,-7,2,234,-8,1,235,6,5,0,0,0,0,0,0,12286
135.266828061,0,-1,-27,0,0,0,0,0,0,-8,2,235,-8,1,235,6,5,0,0,0,0,0,0,12287
135.278027058,0,-1,-27,0,0,0,0,0,0,-8,2,235,-8,1,235,6,5,0,0,0,0,0,0,12288
135.289062977,0,-1,-27,0,0,0,0,0,0,-8,1,237,-8,1,235,6,5,0,0,0,0,0,0,12289
135.299986124,0,-1,-27,0,0,0,0,0,0,-8,1,237,-8,1,235,6,5,0,0,0,0,0,0,12290
135.310912133,0,-1,-27,0,0,0,0,0,0,-8,1,237,-8,1,235,6,5,0,0,0,0,0,0,12291
135.32190013,0,-1,-27,0,0,0,0,0,0,-9,3,236,-8,1,235,6,5,0,0,0,0,0,0,12292
135.333811045,0,-1,-27,0,0,0,0,0,0,-9,3,236,-8,1,235,6,5,0,0,0,0,0,0,12293
135.343965054,0,-1,-27,0,0,0,0,0,0,-9,3,236,-8,1,235,6,5,0,0,0,0,0,0,12294
135.354862929,0,-1,-27,0,0,0,0,0,0,-9,2,234,-8,1,235,6,5,0,0,0,0,0,0,12295
135.365853072,0,-1,-27,0,0,0,0,0,0,-9,2,234,-8,1,235,6,5,0,0,0,0,0,0,12296
135.376807929,0,-1,-27,0,0,0,0,0,0,-8,2,234,-8,2,235,6,5,0,0,0,0,0,0,12297
135.387916089,0,-1,-27,0,0,0,0,0,0,-8,2,234,-8,2,235,6,5,0,0,0,0,0,0,12298
135.398872137,0,-1,-27,0,0,0,0,0,0,-8,2,234,-7,2,235,6,5,0,0,0,0,0,0,12299
135.410094023,0,-1,-27,0,0,0,0,0,0,-8,2,234,-7,2,235,6,5,0,0,0,0,0,0,12300
135.421044112,0,-1,-27,0,0,0,0,0,0,-7,2,234,-7,2,235,6,5,0,0,0,0,0,0,12301
135.432012082,0,-1,-27,0,0,0,0,0,0,-7,2,234,-7,2,235,6,5,0,0,0,0,0,0,12302
135.442896128,0,-1,-27,0,0,0,0,0,0,-7,2,234,-8,2,235,6,5,0,0,0,0,0,0,12303
135.453871966,0,-1,-27,0,0,0,0,0,0,-7,2,234,-8,2,235,6,5,0,0,0,0,0,0,12304
135.464947939,0,-1,-27,0,0,0,0,0,0,-9,2,233,-8,3,235,6,5,0,0,0,0,0,0,12305
135.475882054,0,-1,-27,0,0,0,0,0,0,-9,2,233,-8,3,235,6,5,0,0,0,0,0,0,12306
135.486869097,0,-1,-27,0,0,0,0,0,0,-8,3,233,-8,3,235,6,5,0,0,0,0,0,0,12307
135.500916958,0,-1,-27,0,0,0,0,0,0,-8,3,233,-8,3,235,6,5,0,0,0,0,0,0,12308
135.508855105,0,-1,-27,0,0,0,0,0,0,-7,3,234,-8,2,235,6,5,0,0,0,0,0,0,12309
135.520066023,0,-1,-27,0,0,0,0,0,0,-7,3,234,-8,2,235,6,5,0,0,0,0,0,0,12310
135.530944109,0,-1,-27,0,0,0,0,0,0,-7,3,234,-8,2,235,6,5,0,0,0,0,0,0,12311
135.541929007,0,-1,-27,0,0,0,0,0,0,-7,3,234,-8,2,235,6,5,0,0,0,0,0,0,12312
135.553053141,0,-1,-27,0,0,0,0,0,0,-7,3,234,-8,2,235,6,5,0,0,0,0,0,0,12313
135.564018965,0,-1,-27,0,0,0,0,0,0,-7,3,234,-8,2,235,6,5,0,0,0,0,0,0,12314
135.574762106,0,-1,-27,0,0,0,0,0,0,-7,2,234,-8,2,234,6,5,0,0,0,0,0,0,12315
135.585926056,0,-1,-27,0,0,0,0,0,0,-7,2,234,-8,2,234,6,5,0,0,0,0,0,0,12316
135.606394053,0,-1,-27,0,0,0,0,0,0,-7,3,233,-8,2,234,6,5,0,0,0,0,0,0,12317
135.609445095,0,-1,-27,0,0,0,0,0,0,-7,3,233,-8,2,234,6,5,0,0,0,0,0,0,12318
135.618991137,0,-1,-27,0,0,0,0,0,0,-8,3,234,-8,2,234,6,5,0,0,0,0,0,0,12319
135.629953146,0,-1,-27,0,0,0,0,0,0,-8,3,234,-8,2,234,6,5,0,0,0,0,0,0,12320
135.64094615,0,-1,-27,0,0,0,0,0,0,-8,2,234,-8,2,234,6,5,0,0,0,0,0,0,12321
135.652173043,0,-1,-27,0,0,0,0,0,0,-8,2,234,-8,2,234,6,5,0,0,0,0,0,0,12322
135.663463116,0,-1,-27,0,0,0,0,0,0,-8,2,234,-8,2,234,6,5,0,0,0,0,0,0,12323
135.673870087,0,-1,-27,0,0,0,0,0,0,-8,3,235,-8,2,234,6,5,0,0,0,0,0,0,12324
135.684767962,0,-1,-27,0,0,0,0,0,0,-8,3,235,-8,2,234,6,5,0,0,0,0,0,0,12325
135.696224928,0,-1,-27,0,0,0,0,0,0,-8,3,235,-8,2,234,6,5,0,0,0,0,0,0,12326
135.706817151,0,-1,-27,0,0,0,0,0,0,-8,2,234,-7,2,234,6,5,0,0,0,0,0,0,12327
135.717867136,0,-1,-27,0,0,0,0,0,0,-8,2,234,-7,2,234,6,5,0,0,0,0,0,0,12328
135.729007006,0,-1,-27,0,0,0,0,0,0,-9,2,234,-7,3,234,6,5,0,0,0,0,0,0,12329
135.73992014,0,-1,-27,0,0,0,0,0,0,-9,2,234,-7,3,234,6,5,0,0,0,0,0,0,12330
135.750874043,0,-1,-27,0,0,0,0,0,0,-8,3,234,-7,3,234,6,5,0,0,0,0,0,0,12331
135.76196599,0,-1,-27,0,0,0,0,0,0,-8,3,234,-7,3,234,6,5,0,0,0,0,0,0,12332
135.773383141,0,-1,-27,0,0,0,0,0,0,-8,3,233,-7,3,234,6,5,0,0,0,0,0,0,12333
135.783895016,0,-1,-27,0,0,0,0,0,0,-8,3,233,-7,3,234,6,5,0,0,0,0,0,0,12334
135.795021058,0,-1,-27,0,0,0,0,0,0,-8,3,233,-8,3,234,6,5,0,0,0,0,0,0,12335
135.805863142,0,-1,-27,0,0,0,0,0,0,-8,3,233,-8,3,234,6,5,0,0,0,0,0,0,12336
135.816837073,0,-1,-27,0,0,0,0,0,0,-8,3,234,-8,3,234,6,5,0,0,0,0,0,0,12337
135.827873946,0,-1,-27,0,0,0,0,0,0,-8,3,234,-8,3,234,6,5,0,0,0,0,0,0,12338
135.838927031,0,-1,-27,0,0,0,0,0,0,-9,2,234,-8,3,234,6,5,0,0,0,0,0,0,12339
135.849835158,0,-1,-27,0,0,0,0,0,0,-9,2,234,-8,3,234,6,5,0,0,0,0,0,0,12340
135.86086607,0,-1,-27,0,0,0,0,0,0,-8,2,235,-8,3,234,6,5,0,0,0,0,0,0,12341
135.871871949,0,-1,-27,0,0,0,0,0,0,-8,2,235,-8,3,234,6,5,0,0,0,0,0,0,12342
135.882868052,0,-1,-27,0,0,0,0,0,0,-8,2,236,-8,3,234,6,5,0,0,0,0,0,0,12343
135.893949986,0,-1,-27,0,0,0,0,0,0,-8,2,236,-8,3,234,6,5,0,0,0,0,0,0,12344
135.904896021,0,-1,-27,0,0,0,0,0,0,-9,3,235,-8,3,234,6,5,0,0,0,0,0,0,12345
135.915859938,0,-1,-27,0,0,0,0,0,0,-9,3,235,-8,3,234,6,5,0,0,0,0,0,0,12346
135.926960946,0,-1,-27,0,0,0,0,0,0,-8,2,235,-8,3,234,6,5,0,0,0,0,0,0,12347
135.937705994,0,-1,-27,0,0,0,0,0,0,-8,2,235,-8,3,234,6,5,0,0,0,0,0,0,12348
135.948828936,0,-1,-27,0,0,0,0,0,0,-8,2,235,-8,3,234,6,5,0,0,0,0,0,0,12349
135.959866047,0,-1,-27,0,0,0,0,0,0,-8,2,235,-8,3,234,6,5,0,0,0,0,0,0,12350
135.970821143,0,-1,-27,0,0,0,0,0,0,-7,2,235,-8,3,234,6,5,0,0,0,0,0,0,12351
135.982001067,0,-1,-27,0,0,0,0,0,0,-7,2,235,-8,3,234,6,5,0,0,0,0,0,0,12352
135.992931128,0,-1,-27,0,0,0,0,0,0,-7,2,234,-8,3,234,6,5,0,0,0,0,0,0,12353
136.006165982,0,-1,-27,0,0,0,0,0,0,-7,2,234,-8,3,234,6,5,0,0,0,0,0,0,12354
136.014852047,0,-1,-27,0,0,0,0,0,0,-7,3,236,-8,2,235,6,5,0,0,0,0,0,0,12355
136.02589202,0,-1,-27,0,0,0,0,0,0,-7,3,236,-8,2,235,6,5,0,0,0,0,0,0,12356
136.036772013,0,-1,-27,0,0,0,0,0,0,-7,3,235,-8,2,235,6,5,0,0,0,0,0,0,12357
136.047913075,0,-1,-27,0,0,0,0,0,0,-7,3,235,-8,2,235,6,5,0,0,0,0,0,0,12358
136.058879137,0,-1,-27,0,0,0,0,0,0,-8,3,234,-8,2,235,6,5,0,0,0,0,0,0,12359
136.069726944,0,-1,-27,0,0,0,0,0,0,-8,3,234,-8,2,235,6,5,0,0,0,0,0,0,12360
136.080850125,0,-1,-27,0,0,0,0,0,0,-8,2,234,-8,2,235,6,5,0,0,0,0,0,0,12361
136.093709946,0,-1,-27,0,0,0,0,0,0,-8,2,234,-8,2,235,6,5,0,0,0,0,0,0,12362
136.101994038,0,-1,-27,0,0,0,0,0,0,-8,-2,234,-8,2,235,6,5,0,0,0,0,0,0,12363
136.112897158,0,-1,-27,0,0,0,0,0,0,-8,-2,234,-8,2,235,6,5,0,0,0,0,0,0,12364
136.124027014,0,-1,-27,0,0,0,0,0,0,-8,2,235,-7,2,235,6,5,0,0,0,0,0,0,12365
136.134825945,0,-1,-27,0,0,0,0,0,0,-8,2,235,-7,2,235,6,5,0,0,0,0,0,0,12366
136.146108151,0,-1,-27,0,0,0,0,0,0,-8,2,235,-7,2,235,6,5,0,0,0,0,0,0,12367
136.156913042,0,-1,-27,0,0,0,0,0,0,-8,2,235,-7,2,235,6,5,0,0,0,0,0,0,12368
136.167894125,0,-1,-27,0,0,0,0,0,0,-9,3,235,-7,2,235,6,5,0,0,0,0,0,0,12369
136.17916298,0,-1,-27,0,0,0,0,0,0,-9,3,235,-7,2,235,6,5,0,0,0,0,0,0,12370
136.189912081,0,-1,-27,0,0,0,0,0,0,-8,2,234,-7,2,235,6,5,0,0,0,0,0,0,12371
136.200855017,0,-1,-27,0,0,0,0,0,0,-8,2,234,-7,2,235,6,5,0,0,0,0,0,0,12372
136.211852074,0,-1,-27,0,0,0,0,0,0,-8,2,234,-7,2,235,6,5,0,0,0,0,0,0,12373
136.222948075,0,-1,-27,0,0,0,0,0,0,-8,2,234,-7,2,235,6,5,0,0,0,0,0,0,12374
136.233976126,0,-1,-27,0,0,0,0,0,0,-8,2,234,-7,2,234,6,5,0,0,0,0,0,0,12375
136.244878054,0,-1,-27,0,0,0,0,0,0,-8,2,234,-7,2,234,6,5,0,0,0,0,0,0,12376
136.255784035,0,-1,-27,0,0,0,0,0,0,-8,2,234,-8,1,234,6,5,0,0,0,0,0,0,12377
136.266917944,0,-1,-27,0,0,0,0,0,0,-8,2,234,-8,1,234,6,5,0,0,0,0,0,0,12378
136.281688929,0,-1,-27,0,0,0,0,0,0,-8,2,234,-8,1,234,6,5,0,0,0,0,0,0,12379
136.28918314,0,-1,-27,0,0,0,0,0,0,-8,2,233,-8,1,234,6,5,0,0,0,0,0,0,12380
136.301258088,0,-1,-27,0,0,0,0,0,0,-8,2,233,-8,1,234,6,5,0,0,0,0,0,0,12381
136.31079793,0,-1,-27,0,0,0,0,0,0,-8,2,234,-8,1,234,6,5,0,0,0,0,0,0,12382
136.321907998,0,-1,-27,0,0,0,0,0,0,-8,2,234,-8,1,234,6,5,0,0,0,0,0,0,12383
136.333028079,0,-1,-27,0,0,0,0,0,0,-8,3,234,-8,2,234,6,5,0,0,0,0,0,0,12384
136.345597983,0,-1,-27,0,0,0,0,0,0,-8,3,234,-8,2,234,6,5,0,0,0,0,0,0,12385
136.355059147,0,-1,-27,0,0,0,0,0,0,-8,3,234,-8,2,234,6,5,0,0,0,0,0,0,12386
136.365956068,0,-1,-27,0,0,0,0,0,0,-8,2,235,-8,2,234,6,5,0,0,0,0,0,0,12387
136.376913071,0,-1,-27,0,0,0,0,0,0,-8,2,235,-8,2,234,6,5,0,0,0,0,0,0,12388
136.387921095,0,-1,-27,0,0,0,0,0,0,-8,3,236,-8,2,234,6,5,0,0,0,0,0,0,12389
136.398836136,0,-1,-27,0,0,0,0,0,0,-8,3,236,-8,2,234,6,5,0,0,0,0,0,0,12390
136.409911156,0,-1,-27,0,0,0,0,0,0,-8,3,236,-8,2,234,6,5,0,0,0,0,0,0,12391
136.420968056,0,-1,-27,0,0,0,0,0,0,-8,1,236,-8,2,234,6,5,0,0,0,0,0,0,12392
136.43218112,0,-1,-27,0,0,0,0,0,0,-8,1,236,-8,2,234,6,5,0,0,0,0,0,0,12393
136.442842007,0,-1,-27,0,0,0,0,0,0,-9,1,235,-8,2,234,6,5,0,0,0,0,0,0,12394
136.454075098,0,-1,-27,0,0,0,0,0,0,-9,1,235,-8,2,234,6,5,0,0,0,0,0,0,12395
136.464869023,0,-1,-27,0,0,0,0,0,0,-10,2,235,-8,2,234,6,5,0,0,0,0,0,0,12396
136.475816966,0,-1,-27,0,0,0,0,0,0,-10,2,235,-8,2,234,6,5,0,0,0,0,0,0,12397
136.486881972,0,-1,-27,0,0,0,0,0,0,-10,2,235,-8,2,234,6,5,0,0,0,0,0,0,12398
136.497883082,0,-1,-27,0,0,0,0,0,0,-10,3,234,-8,2,234,6,5,0,0,0,0,0,0,12399
136.508816958,0,-1,-27,0,0,0,0,0,0,-10,3,234,-8,2,234,6,5,0,0,0,0,0,0,12400
136.520051003,0,-1,-27,0,0,0,0,0,0,-8,2,234,-8,2,234,6,5,0,0,0,0,0,0,12401
136.530857087,0,-1,-27,0,0,0,0,0,0,-8,2,234,-8,2,234,6,5,0,0,0,0,0,0,12402
136.542003155,0,-1,-27,0,0,0,0,0,0,-8,2,234,-8,2,234,6,5,0,0,0,0,0,0,12403
136.552978039,0,-1,-27,0,0,0,0,0,0,-7,1,233,-8,2,235,6,5,0,0,0,0,0,0,12404
136.56414795,0,-1,-27,0,0,0,0,0,0,-7,1,233,-8,2,235,6,5,0,0,0,0,0,0,12405
136.574965001,0,-1,-27,0,0,0,0,0,0,-7,2,235,-8,2,235,6,5,0,0,0,0,0,0,12406
136.585941077,0,-1,-27,0,0,0,0,0,0,-7,2,235,-8,2,235,6,5,0,0,0,0,0,0,12407
136.596956015,0,-1,-27,0,0,0,0,0,0,-7,2,236,-8,2,235,6,5,0,0,0,0,0,0,12408
136.608766079,0,-1,-27,0,0,0,0,0,0,-7,2,236,-8,2,235,6,5,0,0,0,0,0,0,12409
136.618777991,0,-1,-27,0,0,0,0,0,0,-7,2,236,-8,2,235,6,5,0,0,0,0,0,0,12410
136.629927159,0,-1,-27,0,0,0,0,0,0,-8,2,234,-8,2,235,6,5,0,0,0,0,0,0,12411
136.640921116,0,-1,-27,0,0,0,0,0,0,-8,2,234,-8,2,235,6,5,0,0,0,0,0,0,12412
136.651843071,0,-1,-27,0,0,0,0,0,0,-9,1,236,-9,2,235,6,5,0,0,0,0,0,0,12413
136.662943125,0,-1,-27,0,0,0,0,0,0,-9,1,236,-9,2,235,6,5,0,0,0,0,0,0,12414
136.674235106,0,-1,-27,0,0,0,0,0,0,-9,1,236,-9,2,235,6,5,0,0,0,0,0,0,12415
136.684849978,0,-1,-27,0,0,0,0,0,0,-8,1,236,-9,2,235,6,5,0,0,0,0,0,0,12416
136.695960999,0,-1,-27,0,0,0,0,0,0,-8,1,236,-9,2,235,6,5,0,0,0,0,0,0,12417
136.707020045,0,-1,-27,0,0,0,0,0,0,-8,2,236,-9,2,235,6,5,0,0,0,0,0,0,12418
136.717937947,0,-1,-27,0,0,0,0,0,0,-8,2,236,-9,2,235,6,5,0,0,0,0,0,0,12419
136.728986025,0,-1,-27,0,0,0,0,0,0,-7,2,235,-8,2,235,6,5,0,0,0,0,0,0,12420
136.741816044,0,-1,-27,0,0,0,0,0,0,-7,2,235,-8,2,235,6,5,0,0,0,0,0,0,12421
136.751006127,0,-1,-27,0,0,0,0,0,0,-7,2,235,-8,2,235,6,5,0,0,0,0,0,0,12422
136.761934996,0,-1,-27,0,0,0,0,0,0,-7,2,234,-8,2,235,6,5,0,0,0,0,0,0,12423
136.772778035,0,-1,-27,0,0,0,0,0,0,-7,2,234,-8,2,235,6,5,0,0,0,0,0,0,12424
136.783864022,0,-1,-27,0,0,0,0,0,0,-7,3,234,-8,2,235,6,5,0,0,0,0,0,0,12425
136.794907093,0,-1,-27,0,0,0,0,0,0,-7,3,234,-8,2,235,6,5,0,0,0,0,0,0,12426
136.80625701,0,-1,-27,0,0,0,0,0,0,-7,3,234,-8,2,235,6,5,0,0,0,0,0,0,12427
136.816899062,0,-1,-27,0,0,0,0,0,0,-8,1,234,-8,2,235,6,5,0,0,0,0,0,0,12428
136.828001976,0,-1,-27,0,0,0,0,0,0,-8,1,234,-8,2,235,6,5,0,0,0,0,0,0,12429
136.838804007,0,-1,-27,0,0,0,0,0,0,-8,1,234,-8,2,235,6,5,0,0,0,0,0,0,12430
136.849848032,0,-1,-27,0,0,0,0,0,0,-8,1,234,-8,2,235,6,5,0,0,0,0,0,0,12431
136.866143942,0,-1,-27,0,0,0,0,0,0,-8,1,234,-8,2,235,6,5,0,0,0,0,0,0,12432
136.872633934,0,-1,-27,0,0,0,0,0,0,-7,2,233,-8,2,235,6,5,0,0,0,0,0,0,12433
136.882864953,0,-1,-27,0,0,0,0,0,0,-7,2,233,-8,2,235,6,5,0,0,0,0,0,0,12434
136.894175053,0,-1,-27,0,0,0,0,0,0,-7,2,233,-8,2,235,6,5,0,0,0,0,0,0,12435
136.904891015,0,-1,-27,0,0,0,0,0,0,-7,4,235,-7,2,235,6,5,0,0,0,0,0,0,12436
136.915899992,0,-1,-27,0,0,0,0,0,0,-7,4,235,-7,2,235,6,5,0,0,0,0,0,0,12437
136.92679596,0,-1,-27,0,0,0,0,0,0,-7,4,235,-7,2,235,6,5,0,0,0,0,0,0,12438
136.938003064,0,-1,-27,0,0,0,0,0,0,-7,3,236,-7,2,235,6,5,0,0,0,0,0,0,12439
136.948909045,0,-1,-27,0,0,0,0,0,0,-7,3,236,-7,2,235,6,5,0,0,0,0,0,0,12440
136.959941149,0,-1,-27,0,0,0,0,0,0,-7,3,236,-7,2,235,6,5,0,0,0,0,0,0,12441
136.97089696,0,-1,-27,0,0,0,0,0,0,-7,3,236,-7,2,235,6,5,0,0,0,0,0,0,12442
136.981970072,0,-1,-27,0,0,0,0,0,0,-7,3,236,-7,2,235,6,5,0,0,0,0,0,0,12443
136.992836953,0,-1,-27,0,0,0,0,0,0,-8,1,235,-7,2,235,6,5,0,0,0,0,0,0,12444
137.003982068,0,-1,-27,0,0,0,0,0,0,-8,1,235,-7,2,235,6,5,0,0,0,0,0,0,12445
137.015012026,0,-1,-27,0,0,0,0,0,0,-9,0,235,-7,2,235,6,5,0,0,0,0,0,0,12446
137.02581501,0,-1,-27,0,0,0,0,0,0,-9,0,235,-7,2,235,6,5,0,0,0,0,0,0,12447
137.037224055,0,-1,-27,0,0,0,0,0,0,-9,0,235,-7,2,235,6,5,0,0,0,0,0,0,12448
137.047734023,0,-1,-27,0,0,0,0,0,0,-8,2,234,-7,2,234,6,5,0,0,0,0,0,0,12449
137.058898926,0,-1,-27,0,0,0,0,0,0,-8,2,234,-7,2,234,6,5,0,0,0,0,0,0,12450
137.068987132,0,-1,-27,0,0,0,0,0,0,-8,2,234,-7,2,235,6,5,0,0,0,0,0,0,12451
137.081675053,0,-1,-27,0,0,0,0,0,0,-8,2,234,-7,2,235,6,5,0,0,0,0,0,0,12452
137.09091115,0,-1,-27,0,0,0,0,0,0,-7,2,234,-7,2,235,6,5,0,0,0,0,0,0,12453
137.101863146,0,-1,-27,0,0,0,0,0,0,-7,2,234,-7,2,235,6,5,0,0,0,0,0,0,12454
137.113744021,0,-1,-27,0,0,0,0,0,0,-7,2,234,-7,2,235,6,5,0,0,0,0,0,0,12455
137.123901129,0,-1,-27,0,0,0,0,0,0,-7,3,235,-7,2,235,6,5,0,0,0,0,0,0,12456
137.13491416,0,-1,-27,0,0,0,0,0,0,-7,3,235,-7,2,235,6,5,0,0,0,0,0,0,12457
137.145852089,0,-1,-27,0,0,0,0,0,0,-7,3,235,-8,2,235,6,5,0,0,0,0,0,0,12458
137.156837941,0,-1,-27,0,0,0,0,0,0,-7,3,235,-8,2,235,6,5,0,0,0,0,0,0,12459
137.168146134,0,-1,-27,0,0,0,0,0,0,-7,3,235,-8,2,235,6,5,0,0,0,0,0,0,12460
137.178947926,0,-1,-27,0,0,0,0,0,0,-8,3,234,-8,2,235,6,5,0,0,0,0,0,0,12461
137.189757109,0,-1,-27,0,0,0,0,0,0,-8,3,234,-8,2,235,6,5,0,0,0,0,0,0,12462
137.201060057,0,-1,-27,0,0,0,0,0,0,-8,3,234,-8,2,235,6,5,0,0,0,0,0,0,12463
137.211833001,0,-1,-27,0,0,0,0,0,0,-8,3,234,-8,2,235,6,5,0,0,0,0,0,0,12464
137.222871066,0,-1,-27,0,0,0,0,0,0,-8,2,233,-8,2,235,6,5,0,0,0,0,0,0,12465
137.237663985,0,-1,-27,0,0,0,0,0,0,-8,2,233,-8,2,235,6,5,0,0,0,0,0,0,12466
137.244874001,0,-1,-27,0,0,0,0,0,0,-8,2,233,-8,2,235,6,5,0,0,0,0,0,0,12467
137.255893946,0,-1,-27,0,0,0,0,0,0,-9,2,234,-8,2,235,6,5,0,0,0,0,0,0,12468
137.266916991,0,-1,-27,0,0,0,0,0,0,-9,2,234,-8,2,235,6,5,0,0,0,0,0,0,12469
137.277852059,0,-1,-27,0,0,0,0,0,0,-9,2,234,-8,2,235,6,5,0,0,0,0,0,0,12470
137.28885603,0,-1,-27,0,0,0,0,0,0,-7,2,234,-8,2,235,6,5,0,0,0,0,0,0,12471
137.299865008,0,-1,-27,0,0,0,0,0,0,-7,2,234,-8,2,235,6,5,0,0,0,0,0,0,12472
137.310848952,0,-1,-27,0,0,0,0,0,0,-7,2,236,-8,2,234,6,5,0,0,0,0,0,0,12473
137.321931124,0,-1,-27,0,0,0,0,0,0,-7,2,236,-8,2,234,6,5,0,0,0,0,0,0,12474
137.332845927,0,-1,-27,0,0,0,0,0,0,-8,2,235,-8,3,234,6,5,0,0,0,0,0,0,12475
137.343888045,0,-1,-27,0,0,0,0,0,0,-8,2,235,-8,3,234,6,5,0,0,0,0,0,0,12476
137.354957104,0,-1,-27,0,0,0,0,0,0,-9,2,235,-8,3,234,6,5,0,0,0,0,0,0,12477
137.36600113,0,-1,-27,0,0,0,0,0,0,-9,2,235,-8,3,234,6,5,0,0,0,0,0,0,12478
137.376848937,0,-1,-27,0,0,0,0,0,0,-9,2,235,-8,3,234,6,5,0,0,0,0,0,0,12479
137.387789011,0,-1,-27,0,0,0,0,0,0,-9,2,235,-8,3,234,6,5,0,0,0,0,0,0,12480
137.399620057,0,-1,-27,0,0,0,0,0,0,-8,1,233,-8,3,234,6,5,0,0,0,0,0,0,12481
137.409996033,0,-1,-27,0,0,0,0,0,0,-8,1,233,-8,3,234,6,5,0,0,0,0,0,0,12482
137.421843052,0,-1,-27,0,0,0,0,0,0,-7,1,234,-8,2,234,6,5,0,0,0,0,0,0,12483
137.432300091,0,-1,-27,0,0,0,0,0,0,-7,1,234,-8,2,234,6,5,0,0,0,0,0,0,12484
137.442909956,0,-1,-27,0,0,0,0,0,0,-8,2,234,-8,2,234,6,5,0,0,0,0,0,0,12485
137.454403162,0,-1,-27,0,0,0,0,0,0,-8,2,234,-8,2,234,6,5,0,0,0,0,0,0,12486
137.464854956,0,-1,-27,0,0,0,0,0,0,-8,1,233,-8,2,235,6,5,0,0,0,0,0,0,12487
137.475852967,0,-1,-27,0,0,0,0,0,0,-8,1,233,-8,2,235,6,5,0,0,0,0,0,0,12488
137.486814976,0,-1,-27,0,0,0,0,0,0,-8,2,235,-8,2,235,6,5,0,0,0,0,0,0,12489
137.498064042,0,-1,-27,0,0,0,0,0,0,-8,2,235,-8,2,235,6,5,0,0,0,0,0,0,12490
137.508773089,0,-1,-27,0,0,0,0,0,0,-8,3,233,-8,2,235,6,5,0,0,0,0,0,0,12491
137.519943953,0,-1,-27,0,0,0,0,0,0,-8,3,233,-8,2,235,6,5,0,0,0,0,0,0,12492
137.53095007,0,-1,-27,0,0,0,0,0,0,-8,2,234,-8,2,235,6,5,0,0,0,0,0,0,12493
137.541831971,0,-1,-27,0,0,0,0,0,0,-8,2,234,-8,2,235,6,5,0,0,0,0,0,0,12494
137.552906037,0,-1,-27,0,0,0,0,0,0,-8,2,234,-8,2,235,6,5,0,0,0,0,0,0,12495
137.56385994,0,-1,-27,0,0,0,0,0,0,-8,2,234,-8,2,234,6,5,0,0,0,0,0,0,12496
137.57484293,0,-1,-27,0,0,0,0,0,0,-8,2,234,-8,2,234,6,5,0,0,0,0,0,0,12497
137.585922957,0,-1,-27,0,0,0,0,0,0,-7,3,234,-8,2,234,6,5,0,0,0,0,0,0,12498
137.596859932,0,-1,-27,0,0,0,0,0,0,-7,3,234,-8,2,234,6,5,0,0,0,0,0,0,12499
137.608837128,0,-1,-27,0,0,0,0,0,0,-8,2,234,-8,2,234,6,5,0,0,0,0,0,0,12500
137.618868113,0,-1,-27,0,0,0,0,0,0,-8,2,234,-8,2,234,6,5,0,0,0,0,0,0,12501
137.629925967,0,-1,-27,0,0,0,0,0,0,-8,2,234,-8,2,234,6,5,0,0,0,0,0,0,12502
137.641669035,0,-1,-27,0,0,0,0,0,0,-8,2,234,-8,2,234,6,5,0,0,0,0,0,0,12503
137.651917935,0,-1,-27,0,0,0,0,0,0,-8,2,233,-8,2,234,6,5,0,0,0,0,0,0,12504
137.665753127,0,-1,-27,0,0,0,0,0,0,-8,2,233,-8,2,234,6,5,0,0,0,0,0,0,12505
137.677103997,0,-1,-27,0,0,0,0,0,0,-8,2,233,-8,2,234,6,5,0,0,0,0,0,0,12506
137.68787694,0,-1,-27,0,0,0,0,0,0,-8,2,233,-8,2,234,6,5,0,0,0,0,0,0,12507
137.698920966,0,-1,-27,0,0,0,0,0,0,-7,3,234,-8,2,234,6,5,0,0,0,0,0,0,12508
137.709798098,0,-1,-27,0,0,0,0,0,0,-7,3,234,-8,2,234,6,5,0,0,0,0,0,0,12509
137.7209301,0,-1,-27,0,0,0,0,0,0,-7,3,234,-8,2,234,6,5,0,0,0,0,0,0,12510
137.73217702,0,-1,-27,0,0,0,0,0,0,-7,3,235,-8,2,234,6,5,0,0,0,0,0,0,12511
137.742790938,0,-1,-27,0,0,0,0,0,0,-7,3,235,-8,2,234,6,5,0,0,0,0,0,0,12512
137.756765128,0,-1,-27,0,0,0,0,0,0,-8,3,236,-8,2,234,6,5,0,0,0,0,0,0,12513
137.767925024,0,-1,-27,0,0,0,0,0,0,-8,3,236,-8,2,234,6,5,0,0,0,0,0,0,12514
137.77886796,0,-1,-27,0,0,0,0,0,0,-8,4,236,-8,3,234,6,5,0,0,0,0,0,0,12515
137.789763928,0,-1,-27,0,0,0,0,0,0,-8,4,236,-8,3,234,6,5,0,0,0,0,0,0,12516
137.80110693,0,-1,-27,0,0,0,0,0,0,-8,4,236,-8,3,234,6,5,0,0,0,0,0,0,12517
137.811766148,0,-1,-27,0,0,0,0,0,0,-7,1,235,-8,2,234,6,5,0,0,0,0,0,0,12518
137.829816103,0,-1,-27,0,0,0,0,0,0,-7,1,235,-8,2,234,6,5,0,0,0,0,0,0,12519
137.837599993,0,-1,-27,0,0,0,0,0,0,-7,2,234,-8,2,234,6,5,0,0,0,0,0,0,12520
137.844785929,0,-1,-27,0,0,0,0,0,0,-7,2,234,-8,2,234,6,5,0,0,0,0,0,0,12521
137.855885029,0,-1,-27,0,0,0,0,0,0,-7,2,234,-8,2,234,6,5,0,0,0,0,0,0,12522
137.866938115,0,-1,-27,0,0,0,0,0,0,-7,3,235,-8,3,234,6,5,0,0,0,0,0,0,12523
137.877781153,0,-1,-27,0,0,0,0,0,0,-7,3,235,-8,3,234,6,5,0,0,0,0,0,0,12524
137.888813973,0,-1,-27,0,0,0,0,0,0,-8,3,235,-8,3,234,6,5,0,0,0,0,0,0,12525
137.900004149,0,-1,-27,0,0,0,0,0,0,-8,3,235,-8,3,234,6,5,0,0,0,0,0,0,12526
137.91091013,0,-1,-27,0,0,0,0,0,0,-8,3,234,-8,3,235,6,5,0,0,0,0,0,0,12527
137.921873093,0,-1,-27,0,0,0,0,0,0,-8,3,234,-8,3,235,6,5,0,0,0,0,0,0,12528
137.932791949,0,-1,-27,0,0,0,0,0,0,-8,2,234,-8,3,235,6,5,0,0,0,0,0,0,12529
137.943871975,0,-1,-27,0,0,0,0,0,0,-8,2,234,-8,3,235,6,5,0,0,0,0,0,0,12530
137.955150128,0,-1,-27,0,0,0,0,0,0,-8,2,234,-8,2,235,6,5,0,0,0,0,0,0,12531
137.965919018,0,-1,-27,0,0,0,0,0,0,-8,2,234,-8,2,235,6,5,0,0,0,0,0,0,12532
137.976812125,0,-1,-27,0,0,0,0,0,0,-8,2,235,-7,2,235,6,5,0,0,0,0,0,0,12533
137.989757061,0,-1,-27,0,0,0,0,0,0,-8,2,235,-7,2,235,6,5,0,0,0,0,0,0,12534
137.998934985,0,-1,-27,0,0,0,0,0,0,-8,2,234,-7,2,235,6,5,0,0,0,0,0,0,12535
138.009763003,0,-1,-27,0,0,0,0,0,0,-8,2,234,-7,2,235,6,5,0,0,0,0,0,0,12536
138.020844937,0,-1,-27,0,0,0,0,0,0,-8,1,233,-8,2,235,6,5,0,0,0,0,0,0,12537
138.031901122,0,-1,-27,0,0,0,0,0,0,-8,1,233,-8,2,235,6,5,0,0,0,0,0,0,12538
138.043344975,0,-1,-27,0,0,0,0,0,0,-8,2,234,-8,2,235,6,5,0,0,0,0,0,0,12539
138.053935051,0,-1,-27,0,0,0,0,0,0,-8,2,234,-8,2,235,6,5,0,0,0,0,0,0,12540
138.064077139,0,-1,-27,0,0,0,0,0,0,-8,3,234,-8,2,234,6,5,0,0,0,0,0,0,12541
138.074881077,0,-1,-27,0,0,0,0,0,0,-8,3,234,-8,2,234,6,5,0,0,0,0,0,0,12542
138.085767985,0,-1,-27,0,0,0,0,0,0,-8,3,235,-8,2,234,6,5,0,0,0,0,0,0,12543
138.096956969,0,-1,-27,0,0,0,0,0,0,-8,3,235,-8,2,234,6,5,0,0,0,0,0,0,12544
138.107768059,0,-1,-27,0,0,0,0,0,0,-8,3,234,-8,2,234,6,5,0,0,0,0,0,0,12545
138.118906975,0,-1,-27,0,0,0,0,0,0,-8,3,234,-8,2,234,6,5,0,0,0,0,0,0,12546
138.129991055,0,-1,-27,0,0,0,0,0,0,-9,2,235,-8,2,234,6,5,0,0,0,0,0,0,12547
138.141732932,0,-1,-27,0,0,0,0,0,0,-9,2,235,-8,2,234,6,5,0,0,0,0,0,0,12548
138.151862145,0,-1,-27,0,0,0,0,0,0,-7,2,234,-8,2,234,6,5,0,0,0,0,0,0,12549
138.162838936,0,-1,-27,0,0,0,0,0,0,-7,2,234,-8,2,234,6,5,0,0,0,0,0,0,12550
138.173769951,0,-1,-27,0,0,0,0,0,0,-8,2,234,-8,2,234,6,5,0,0,0,0,0,0,12551
138.184953928,0,-1,-27,0,0,0,0,0,0,-8,2,234,-8,2,234,6,5,0,0,0,0,0,0,12552
138.196001053,0,-1,-27,0,0,0,0,0,0,-8,2,234,-8,2,234,6,5,0,0,0,0,0,0,12553
138.20977211,0,-1,-27,0,0,0,0,0,0,-8,2,234,-8,2,234,6,5,0,0,0,0,0,0,12554
138.217947007,0,-1,-27,0,0,0,0,0,0,-7,3,235,-8,2,234,6,5,0,0,0,0,0,0,12555
138.228816987,0,-1,-27,0,0,0,0,0,0,-7,3,235,-8,2,234,6,5,0,0,0,0,0,0,12556
138.2399261,0,-1,-27,0,0,0,0,0,0,-7,3,235,-8,2,234,6,5,0,0,0,0,0,0,12557
138.250983,0,-1,-27,0,0,0,0,0,0,-7,3,236,-8,2,234,6,5,0,0,0,0,0,0,12558
138.261862994,0,-1,-27,0,0,0,0,0,0,-7,3,236,-8,2,234,6,5,0,0,0,0,0,0,12559
138.272853136,0,-1,-27,0,0,0,0,0,0,-8,3,234,-8,2,234,6,5,0,0,0,0,0,0,12560
138.283844948,0,-1,-27,0,0,0,0,0,0,-8,3,234,-8,2,234,6,5,0,0,0,0,0,0,12561
138.294876099,0,-1,-27,0,0,0,0,0,0,-8,2,233,-8,2,235,6,5,0,0,0,0,0,0,12562
138.306874991,0,-1,-27,0,0,0,0,0,0,-8,2,233,-8,2,235,6,5,0,0,0,0,0,0,12563
138.316808939,0,-1,-27,0,0,0,0,0,0,-9,2,235,-8,2,235,6,5,0,0,0,0,0,0,12564
138.327939988,0,-1,-27,0,0,0,0,0,0,-9,2,235,-8,2,235,6,5,0,0,0,0,0,0,12565
138.338979006,0,-1,-27,0,0,0,0,0,0,-9,2,234,-8,2,235,6,5,0,0,0,0,0,0,12566
138.349869013,0,-1,-27,0,0,0,0,0,0,-9,2,234,-8,2,235,6,5,0,0,0,0,0,0,12567
138.364028931,0,-1,-27,0,0,0,0,0,0,-9,3,234,-8,2,235,6,5,0,0,0,0,0,0,12568
138.375004054,0,-1,-27,0,0,0,0,0,0,-9,3,234,-8,2,235,6,5,0,0,0,0,0,0,12569
138.385848046,0,-1,-27,0,0,0,0,0,0,-9,2,234,-8,2,235,6,5,0,0,0,0,0,0,12570
138.396913052,0,-1,-27,0,0,0,0,0,0,-9,2,234,-8,2,235,6,5,0,0,0,0,0,0,12571
138.407812119,0,-1,-27,0,0,0,0,0,0,-9,2,233,-8,2,235,6,5,0,0,0,0,0,0,12572
138.418897152,0,-1,-27,0,0,0,0,0,0,-9,2,233,-8,2,235,6,5,0,0,0,0,0,0,12573
138.429916144,0,-1,-27,0,0,0,0,0,0,-8,2,235,-8,2,234,6,5,0,0,0,0,0,0,12574
138.445670128,0,-1,-27,0,0,0,0,0,0,-8,2,235,-8,2,234,6,5,0,0,0,0,0,0,12575
138.451869011,0,-1,-27,0,0,0,0,0,0,-7,2,236,-8,2,234,6,5,0,0,0,0,0,0,12576
138.462836028,0,-1,-27,0,0,0,0,0,0,-7,2,236,-8,2,234,6,5,0,0,0,0,0,0,12577
138.47379303,0,-1,-27,0,0,0,0,0,0,-8,1,236,-8,2,234,6,5,0,0,0,0,0,0,12578
138.484846116,0,-1,-27,0,0,0,0,0,0,-8,1,236,-8,2,234,6,5,0,0,0,0,0,0,12579
138.495923996,0,-1,-27,0,0,0,0,0,0,-8,2,235,-8,2,234,6,5,0,0,0,0,0,0,12580
138.506860018,0,-1,-27,0,0,0,0,0,0,-8,2,235,-8,2,234,6,5,0,0,0,0,0,0,12581
138.51798296,0,-1,-27,0,0,0,0,0,0,-9,2,234,-9,2,234,6,5,0,0,0,0,0,0,12582
138.52884698,0,-1,-27,0,0,0,0,0,0,-9,2,234,-9,2,234,6,5,0,0,0,0,0,0,12583
138.541574002,0,-1,-27,0,0,0,0,0,0,-9,2,234,-9,2,234,6,5,0,0,0,0,0,0,12584
138.550836087,0,-1,-27,0,0,0,0,0,0,-8,2,236,-9,2,234,6,5,0,0,0,0,0,0,12585
138.561598063,0,-1,-27,0,0,0,0,0,0,-8,2,236,-9,2,234,6,5,0,0,0,0,0,0,12586
138.574000121,0,-1,-27,0,0,0,0,0,0,-7,2,236,-9,2,234,6,5,0,0,0,0,0,0,12587
138.584804058,0,-1,-27,0,0,0,0,0,0,-7,2,236,-9,2,234,6,5,0,0,0,0,0,0,12588
138.59592104,0,-1,-27,0,0,0,0,0,0,-7,2,236,-8,2,235,6,5,0,0,0,0,0,0,12589
138.607139111,0,-1,-27,0,0,0,0,0,0,-7,2,236,-8,2,235,6,5,0,0,0,0,0,0,12590
138.617829085,0,-1,-27,0,0,0,0,0,0,-7,2,236,-8,2,235,6,5,0,0,0,0,0,0,12591
138.628945113,0,-1,-27,0,0,0,0,0,0,-7,1,235,-8,2,235,6,5,0,0,0,0,0,0,12592
138.640176058,0,-1,-27,0,0,0,0,0,0,-7,1,235,-8,2,235,6,5,0,0,0,0,0,0,12593
138.650844098,0,-1,-27,0,0,0,0,0,0,-7,1,235,-8,2,235,6,5,0,0,0,0,0,0,12594
138.66199708,0,-1,-27,0,0,0,0,0,0,-8,2,236,-8,2,235,6,5,0,0,0,0,0,0,12595
138.674446106,0,-1,-27,0,0,0,0,0,0,-8,2,236,-8,2,235,6,5,0,0,0,0,0,0,12596
138.683845997,0,-1,-27,0,0,0,0,0,0,-7,3,235,-8,2,236,6,5,0,0,0,0,0,0,12597
138.694921971,0,-1,-27,0,0,0,0,0,0,-7,3,235,-8,2,236,6,5,0,0,0,0,0,0,12598
138.706182957,0,-1,-27,0,0,0,0,0,0,-7,2,234,-8,2,236,6,5,0,0,0,0,0,0,12599
138.716789008,0,-1,-27,0,0,0,0,0,0,-7,2,234,-8,2,236,6,5,0,0,0,0,0,0,12600
138.727939129,0,-1,-27,0,0,0,0,0,0,-9,2,236,-8,2,236,6,5,0,0,0,0,0,0,12601
138.738865138,0,-1,-27,0,0,0,0,0,0,-9,2,236,-8,2,236,6,5,0,0,0,0,0,0,12602
138.749843121,0,-1,-27,0,0,0,0,0,0,-9,2,236,-8,2,236,6,5,0,0,0,0,0,0,12603
138.761112929,0,-1,-27,0,0,0,0,0,0,-8,1,236,-8,2,236,6,5,0,0,0,0,0,0,12604
138.773721934,0,-1,-27,0,0,0,0,0,0,-8,1,236,-8,2,236,6,5,0,0,0,0,0,0,12605
138.782971144,0,-1,-27,0,0,0,0,0,0,-8,1,236,-8,2,236,6,5,0,0,0,0,0,0,12606
138.793976069,0,-1,-27,0,0,0,0,0,0,-8,2,235,-7,2,236,6,5,0,0,0,0,0,0,12607
138.806506157,0,-1,-27,0,0,0,0,0,0,-8,2,235,-7,2,236,6,5,0,0,0,0,0,0,12608
138.815889121,0,-1,-27,0,0,0,0,0,0,-8,3,235,-7,2,236,6,5,0,0,0,0,0,0,12609
138.826928139,0,-1,-27,0,0,0,0,0,0,-8,3,235,-7,2,236,6,5,0,0,0,0,0,0,12610
138.837783099,0,-1,-27,0,0,0,0,0,0,-7,3,235,-7,2,236,6,5,0,0,0,0,0,0,12611
138.84976697,0,-1,-27,0,0,0,0,0,0,-7,3,235,-7,2,236,6,5,0,0,0,0,0,0,12612
138.860005141,0,-1,-27,0,0,0,0,0,0,-7,3,235,-8,2,236,6,5,0,0,0,0,0,0,12613
138.870835066,0,-1,-27,0,0,0,0,0,0,-7,3,235,-8,2,236,6,5,0,0,0,0,0,0,12614
138.882225037,0,-1,-27,0,0,0,0,0,0,-7,3,235,-8,2,236,6,5,0,0,0,0,0,0,12615
138.892990113,0,-1,-27,0,0,0,0,0,0,-8,2,234,-8,2,235,6,5,0,0,0,0,0,0,12616
138.903815985,0,-1,-27,0,0,0,0,0,0,-8,2,234,-8,2,235,6,5,0,0,0,0,0,0,12617
138.914865971,0,-1,-27,0,0,0,0,0,0,-8,2,234,-8,2,235,6,5,0,0,0,0,0,0,12618
138.925995112,0,-1,-27,0,0,0,0,0,0,-8,2,234,-8,2,235,6,5,0,0,0,0,0,0,12619
138.936876059,0,-1,-27,0,0,0,0,0,0,-8,2,234,-8,2,235,6,5,0,0,0,0,0,0,12620
138.947869063,0,-1,-27,0,0,0,0,0,0,-8,3,234,-8,2,235,6,5,0,0,0,0,0,0,12621
138.959022046,0,-1,-27,0,0,0,0,0,0,-8,3,234,-8,2,235,6,5,0,0,0,0,0,0,12622
138.969824076,0,-1,-27,0,0,0,0,0,0,-7,2,234,-8,2,235,6,5,0,0,0,0,0,0,12623
138.982396126,0,-1,-27,0,0,0,0,0,0,-7,2,234,-8,2,235,6,5,0,0,0,0,0,0,12624
138.992048026,0,-1,-27,0,0,0,0,0,0,-7,3,235,-8,2,235,6,5,0,0,0,0,0,0,12625
139.005665064,0,-1,-27,0,0,0,0,0,0,-7,3,235,-8,2,235,6,5,0,0,0,0,0,0,12626
139.013910056,0,-1,-27,0,0,0,0,0,0,-7,3,235,-8,2,235,6,5,0,0,0,0,0,0,12627
139.02489996,0,-1,-27,0,0,0,0,0,0,-7,3,235,-8,2,235,6,5,0,0,0,0,0,0,12628
139.03770113,0,-1,-27,0,0,0,0,0,0,-7,3,235,-8,2,235,6,5,0,0,0,0,0,0,12629
139.046965123,0,-1,-27,0,0,0,0,0,0,-7,3,235,-8,2,235,6,5,0,0,0,0,0,0,12630
139.058122158,0,-1,-27,0,0,0,0,0,0,-8,3,236,-8,2,235,6,5,0,0,0,0,0,0,12631
139.068905116,0,-1,-27,0,0,0,0,0,0,-8,3,236,-8,2,235,6,5,0,0,0,0,0,0,12632
139.079832077,0,-1,-27,0,0,0,0,0,0,-7,2,234,-8,2,235,6,5,0,0,0,0,0,0,12633
139.090837956,0,-1,-27,0,0,0,0,0,0,-7,2,234,-8,2,235,6,5,0,0,0,0,0,0,12634
139.10233593,0,-1,-27,0,0,0,0,0,0,-8,2,235,-8,2,234,6,5,0,0,0,0,0,0,12635
139.112971068,0,-1,-27,0,0,0,0,0,0,-8,2,235,-8,2,234,6,5,0,0,0,0,0,0,12636
139.123769045,0,-1,-27,0,0,0,0,0,0,-9,1,235,-8,3,234,6,5,0,0,0,0,0,0,12637
139.134850979,0,-1,-27,0,0,0,0,0,0,-9,1,235,-8,3,234,6,5,0,0,0,0,0,0,12638
139.145853043,0,-1,-27,0,0,0,0,0,0,-8,1,234,-7,3,234,6,5,0,0,0,0,0,0,12639
139.15685916,0,-1,-27,0,0,0,0,0,0,-8,1,234,-7,3,234,6,5,0,0,0,0,0,0,12640
139.167891026,0,-1,-27,0,0,0,0,0,0,-9,2,236,-8,3,235,6,5,0,0,0,0,0,0,12641
139.178885937,0,-1,-27,0,0,0,0,0,0,-9,2,236,-8,3,235,6,5,0,0,0,0,0,0,12642
139.189912081,0,-1,-27,0,0,0,0,0,0,-8,3,237,-8,3,235,6,5,0,0,0,0,0,0,12643
139.200798035,0,-1,-27,0,0,0,0,0,0,-8,3,237,-8,3,235,6,5,0,0,0,0,0,0,12644
139.211782933,0,-1,-27,0,0,0,0,0,0,-8,3,238,-8,2,235,6,5,0,0,0,0,0,0,12645
139.222856045,0,-1,-27,0,0,0,0,0,0,-8,3,238,-8,2,235,6,5,0,0,0,0,0,0,12646
139.233933926,0,-1,-27,0,0,0,0,0,0,-8,1,236,-8,2,235,6,5,0,0,0,0,0,0,12647
139.24556613,0,-1,-27,0,0,0,0,0,0,-8,1,236,-8,2,235,6,5,0,0,0,0,0,0,12648
139.256226063,0,-1,-27,0,0,0,0,0,0,-8,2,236,-8,2,235,6,5,0,0,0,0,0,0,12649
139.266953946,0,-1,-27,0,0,0,0,0,0,-8,2,236,-8,2,235,6,5,0,0,0,0,0,0,12650
139.277859927,0,-1,-27,0,0,0,0,0,0,-9,1,236,-8,2,235,6,5,0,0,0,0,0,0,12651
139.289078951,0,-1,-27,0,0,0,0,0,0,-9,1,236,-8,2,235,6,5,0,0,0,0,0,0,12652
139.299829007,0,-1,-27,0,0,0,0,0,0,-8,1,236,-8,2,236,6,5,0,0,0,0,0,0,12653
139.310945034,0,-1,-27,0,0,0,0,0,0,-8,1,236,-8,2,236,6,5,0,0,0,0,0,0,12654
139.321818114,0,-1,-27,0,0,0,0,0,0,-7,2,236,-8,2,236,6,5,0,0,0,0,0,0,12655
139.332858086,0,-1,-27,0,0,0,0,0,0,-7,2,236,-8,2,236,6,5,0,0,0,0,0,0,12656
139.344099045,0,-1,-27,0,0,0,0,0,0,-8,2,237,-8,2,236,6,5,0,0,0,0,0,0,12657
139.354818106,0,-1,-27,0,0,0,0,0,0,-8,2,237,-8,2,236,6,5,0,0,0,0,0,0,12658
139.365967036,0,-1,-27,0,0,0,0,0,0,-8,3,236,-8,2,236,6,5,0,0,0,0,0,0,12659
139.376857043,0,-1,-27,0,0,0,0,0,0,-8,3,236,-8,2,236,6,5,0,0,0,0,0,0,12660
139.387917996,0,-1,-27,0,0,0,0,0,0,-8,3,236,-8,2,237,6,5,0,0,0,0,0,0,12661
139.398880005,0,-1,-27,0,0,0,0,0,0,-8,3,236,-8,2,237,6,5,0,0,0,0,0,0,12662
139.409809113,0,-1,-27,0,0,0,0,0,0,-8,3,234,-8,1,237,6,5,0,0,0,0,0,0,12663
139.420828104,0,-1,-27,0,0,0,0,0,0,-8,3,234,-8,1,237,6,5,0,0,0,0,0,0,12664
139.431869984,0,-1,-27,0,0,0,0,0,0,-9,3,234,-8,1,237,6,5,0,0,0,0,0,0,12665
139.442919016,0,-1,-27,0,0,0,0,0,0,-9,3,234,-8,1,237,6,5,0,0,0,0,0,0,12666
139.453917981,0,-1,-27,0,0,0,0,0,0,-8,2,234,-8,2,236,6,5,0,0,0,0,0,0,12667
139.464846135,0,-1,-27,0,0,0,0,0,0,-8,2,234,-8,2,236,6,5,0,0,0,0,0,0,12668
139.475810051,0,-1,-27,0,0,0,0,0,0,-8,2,233,-8,2,236,6,5,0,0,0,0,0,0,12669
139.486711979,0,-1,-27,0,0,0,0,0,0,-8,2,233,-8,2,236,6,5,0,0,0,0,0,0,12670
139.496911049,0,-1,-27,0,0,0,0,0,0,-8,2,233,-8,2,236,6,5,0,0,0,0,0,0,12671
139.507833958,0,-1,-27,0,0,0,0,0,0,-8,1,234,-8,2,236,6,5,0,0,0,0,0,0,12672
139.518923045,0,-1,-27,0,0,0,0,0,0,-8,1,234,-8,2,236,6,5,0,0,0,0,0,0,12673
139.52985096,0,-1,-27,0,0,0,0,0,0,-9,2,236,-8,2,236,6,5,0,0,0,0,0,0,12674
139.54093504,0,-1,-27,0,0,0,0,0,0,-9,2,236,-8,2,236,6,5,0,0,0,0,0,0,12675
139.55191207,0,-1,-27,0,0,0,0,0,0,-8,2,235,-8,2,235,6,5,0,0,0,0,0,0,12676
139.562917948,0,-1,-27,0,0,0,0,0,0,-8,2,235,-8,2,235,6,5,0,0,0,0,0,0,12677
139.573841095,0,-1,-27,0,0,0,0,0,0,-8,2,235,-8,2,235,6,5,0,0,0,0,0,0,12678
139.584841967,0,-1,-27,0,0,0,0,0,0,-7,3,235,-8,3,235,6,5,0,0,0,0,0,0,12679
139.59583211,0,-1,-27,0,0,0,0,0,0,-7,3,235,-8,3,235,6,5,0,0,0,0,0,0,12680
139.606963158,0,-1,-27,0,0,0,0,0,0,-7,3,235,-8,3,234,6,5,0,0,0,0,0,0,12681
139.617962122,0,-1,-27,0,0,0,0,0,0,-7,3,235,-8,3,234,6,5,0,0,0,0,0,0,12682
139.629004002,0,-1,-27,0,0,0,0,0,0,-7,3,235,-8,3,234,6,5,0,0,0,0,0,0,12683
139.639831067,0,-1,-27,0,0,0,0,0,0,-8,3,236,-8,2,234,6,5,0,0,0,0,0,0,12684
139.651132107,0,-1,-27,0,0,0,0,0,0,-8,3,236,-8,2,234,6,5,0,0,0,0,0,0,12685
139.661978007,0,-1,-27,0,0,0,0,0,0,-8,3,235,-8,2,234,6,5,0,0,0,0,0,0,12686
139.672868967,0,-1,-27,0,0,0,0,0,0,-8,3,235,-8,2,234,6,5,0,0,0,0,0,0,12687
139.683886052,0,-1,-27,0,0,0,0,0,0,-8,3,234,-8,2,234,6,5,0,0,0,0,0,0,12688
139.695044041,0,-1,-27,0,0,0,0,0,0,-8,3,234,-8,2,234,6,5,0,0,0,0,0,0,12689
139.705929995,0,-1,-27,0,0,0,0,0,0,-8,3,234,-8,2,234,6,5,0,0,0,0,0,0,12690
139.716982127,0,-1,-27,0,0,0,0,0,0,-8,0,236,-8,2,234,6,5,0,0,0,0,0,0,12691
139.727833033,0,-1,-27,0,0,0,0,0,0,-8,0,236,-8,2,234,6,5,0,0,0,0,0,0,12692
139.73889494,0,-1,-27,0,0,0,0,0,0,-8,1,235,-8,2,235,6,5,0,0,0,0,0,0,12693
139.749953032,0,-1,-27,0,0,0,0,0,0,-8,1,235,-8,2,235,6,5,0,0,0,0,0,0,12694
139.761008978,0,-1,-27,0,0,0,0,0,0,-8,1,235,-8,2,235,6,5,0,0,0,0,0,0,12695
139.772670985,0,-1,-27,0,0,0,0,0,0,-7,3,235,-8,2,235,6,5,0,0,0,0,0,0,12696
139.782902956,0,-1,-27,0,0,0,0,0,0,-7,3,235,-8,2,235,6,5,0,0,0,0,0,0,12697
139.793800116,0,-1,-27,0,0,0,0,0,0,-8,4,234,-8,2,235,6,5,0,0,0,0,0,0,12698
139.804868937,0,-1,-27,0,0,0,0,0,0,-8,4,234,-8,2,235,6,5,0,0,0,0,0,0,12699
139.816285134,0,-1,-27,0,0,0,0,0,0,-8,4,235,-8,2,235,6,5,0,0,0,0,0,0,12700
139.826864005,0,-1,-27,0,0,0,0,0,0,-8,4,235,-8,2,235,6,5,0,0,0,0,0,0,12701
139.838035107,0,-1,-27,0,0,0,0,0,0,-8,4,235,-8,2,235,6,5,0,0,0,0,0,0,12702
139.848848105,0,-1,-27,0,0,0,0,0,0,-8,3,234,-8,2,235,6,5,0,0,0,0,0,0,12703
139.859799147,0,-1,-27,0,0,0,0,0,0,-8,3,234,-8,2,235,6,5,0,0,0,0,0,0,12704
139.870898962,0,-1,-27,0,0,0,0,0,0,-7,1,235,-8,2,235,6,5,0,0,0,0,0,0,12705
139.882272006,0,-1,-27,0,0,0,0,0,0,-7,1,235,-8,2,235,6,5,0,0,0,0,0,0,12706
139.892924071,0,-1,-27,0,0,0,0,0,0,-7,1,235,-8,2,235,6,5,0,0,0,0,0,0,12707
139.903898001,0,-1,-27,0,0,0,0,0,0,-8,0,234,-8,2,235,6,5,0,0,0,0,0,0,12708
139.914842129,0,-1,-27,0,0,0,0,0,0,-8,0,234,-8,2,235,6,5,0,0,0,0,0,0,12709
139.925833941,0,-1,-27,0,0,0,0,0,0,-8,0,234,-8,2,235,6,5,0,0,0,0,0,0,12710
139.936937094,0,-1,-27,0,0,0,0,0,0,-8,2,233,-8,2,235,6,5,0,0,0,0,0,0,12711
139.947817088,0,-1,-27,0,0,0,0,0,0,-8,2,233,-8,2,235,6,5,0,0,0,0,0,0,12712
139.958883048,0,-1,-27,0,0,0,0,0,0,-8,2,234,-8,2,235,6,5,0,0,0,0,0,0,12713
139.969890118,0,-1,-27,0,0,0,0,0,0,-8,2,234,-8,2,235,6,5,0,0,0,0,0,0,12714
139.980865002,0,-1,-27,0,0,0,0,0,0,-8,2,235,-8,2,235,6,5,0,0,0,0,0,0,12715
139.991915942,0,-1,-27,0,0,0,0,0,0,-8,2,235,-8,2,235,6,5,0,0,0,0,0,0,12716
140.003005982,0,-1,-27,0,0,0,0,0,0,-8,2,235,-8,2,234,6,5,0,0,0,0,0,0,12717
140.017645121,0,-1,-27,0,0,0,0,0,0,-8,2,235,-8,2,234,6,5,0,0,0,0,0,0,12718
140.024904967,0,-1,-27,0,0,0,0,0,0,-8,2,235,-8,2,234,6,5,0,0,0,0,0,0,12719
140.035956145,0,-1,-27,0,0,0,0,0,0,-7,2,235,-8,2,234,6,5,0,0,0,0,0,0,12720
140.046846152,0,-1,-27,0,0,0,0,0,0,-7,2,235,-8,2,234,6,5,0,0,0,0,0,0,12721
140.057960034,0,-1,-27,0,0,0,0,0,0,-7,2,235,-8,2,234,6,5,0,0,0,0,0,0,12722
140.06900096,0,-1,-27,0,0,0,0,0,0,-7,2,234,-8,2,234,6,5,0,0,0,0,0,0,12723
140.085649014,0,-1,-27,0,0,0,0,0,0,-7,2,234,-8,2,234,6,5,0,0,0,0,0,0,12724
140.091006041,0,-1,-27,0,0,0,0,0,0,-8,2,234,-8,2,234,6,5,0,0,0,0,0,0,12725
140.101976157,0,-1,-27,0,0,0,0,0,0,-8,2,234,-8,2,234,6,5,0,0,0,0,0,0,12726
140.113255978,0,-1,-27,0,0,0,0,0,0,-8,2,234,-8,2,234,6,5,0,0,0,0,0,0,12727
140.123811961,0,-1,-27,0,0,0,0,0,0,-8,3,236,-8,2,234,6,5,0,0,0,0,0,0,12728
140.134778023,0,-1,-27,0,0,0,0,0,0,-8,3,236,-8,2,234,6,5,0,0,0,0,0,0,12729
140.147660017,0,-1,-27,0,0,0,0,0,0,-8,3,236,-8,2,234,6,5,0,0,0,0,0,0,12730
140.156826973,0,-1,-27,0,0,0,0,0,0,-8,2,235,-8,2,234,6,5,0,0,0,0,0,0,12731
140.167860032,0,-1,-27,0,0,0,0,0,0,-8,2,235,-8,2,234,6,5,0,0,0,0,0,0,12732
140.178920031,0,-1,-27,0,0,0,0,0,0,-10,2,235,-7,2,234,6,5,0,0,0,0,0,0,12733
140.189928055,0,-1,-27,0,0,0,0,0,0,-10,2,235,-7,2,234,6,5,0,0,0,0,0,0,12734
140.200917006,0,-1,-27,0,0,0,0,0,0,-10,2,235,-7,2,234,6,5,0,0,0,0,0,0,12735
140.211758137,0,-1,-27,0,0,0,0,0,0,-8,2,235,-7,2,234,6,5,0,0,0,0,0,0,12736
140.223262072,0,-1,-27,0,0,0,0,0,0,-8,2,235,-7,2,234,6,5,0,0,0,0,0,0,12737
140.233899117,0,-1,-27,0,0,0,0,0,0,-9,3,235,-7,2,235,6,5,0,0,0,0,0,0,12738
140.244912148,0,-1,-27,0,0,0,0,0,0,-9,3,235,-7,2,235,6,5,0,0,0,0,0,0,12739
140.257012129,0,-1,-27,0,0,0,0,0,0,-9,3,235,-7,2,235,6,5,0,0,0,0,0,0,12740
140.270720959,0,-1,-27,0,0,0,0,0,0,-8,3,235,-8,2,235,6,5,0,0,0,0,0,0,12741
140.279258967,0,-1,-27,0,0,0,0,0,0,-8,3,235,-8,2,235,6,5,0,0,0,0,0,0,12742
140.289032937,0,-1,-27,0,0,0,0,0,0,-8,3,235,-8,2,235,6,5,0,0,0,0,0,0,12743
140.300042153,0,-1,-27,0,0,0,0,0,0,-8,3,235,-8,2,235,6,5,0,0,0,0,0,0,12744
140.311023951,0,-1,-27,0,0,0,0,0,0,-8,3,235,-8,2,235,6,5,0,0,0,0,0,0,12745
140.321833134,0,-1,-27,0,0,0,0,0,0,-8,3,235,-8,2,235,6,5,0,0,0,0,0,0,12746
140.332787991,0,-1,-27,0,0,0,0,0,0,-8,3,235,-8,2,235,6,5,0,0,0,0,0,0,12747
140.343887091,0,-1,-27,0,0,0,0,0,0,-9,2,234,-8,2,235,6,5,0,0,0,0,0,0,12748
140.354866028,0,-1,-27,0,0,0,0,0,0,-9,2,234,-8,2,235,6,5,0,0,0,0,0,0,12749
140.365848065,0,-1,-27,0,0,0,0,0,0,-9,2,234,-8,2,235,6,5,0,0,0,0,0,0,12750
140.376857043,0,-1,-27,0,0,0,0,0,0,-9,2,234,-8,2,235,6,5,0,0,0,0,0,0,12751
140.387804985,0,-1,-27,0,0,0,0,0,0,-9,2,234,-8,2,235,6,5,0,0,0,0,0,0,12752
140.398905993,0,-1,-27,0,0,0,0,0,0,-9,2,235,-8,2,235,6,5,0,0,0,0,0,0,12753
140.409834147,0,-1,-27,0,0,0,0,0,0,-9,2,235,-8,2,235,6,5,0,0,0,0,0,0,12754
140.420989991,0,-1,-27,0,0,0,0,0,0,-8,2,235,-8,2,235,6,5,0,0,0,0,0,0,12755
140.431827069,0,-1,-27,0,0,0,0,0,0,-8,2,235,-8,2,235,6,5,0,0,0,0,0,0,12756
140.442937136,0,-1,-27,0,0,0,0,0,0,-8,2,235,-8,2,235,6,5,0,0,0,0,0,0,12757
140.453907013,0,-1,-27,0,0,0,0,0,0,-8,2,235,-8,2,235,6,5,0,0,0,0,0,0,12758
140.464905978,0,-1,-27,0,0,0,0,0,0,-8,2,235,-8,2,235,6,5,0,0,0,0,0,0,12759
140.475805045,0,-1,-27,0,0,0,0,0,0,-8,3,235,-8,2,235,6,5,0,0,0,0,0,0,12760
140.485885144,0,-1,-27,0,0,0,0,0,0,-8,3,235,-8,2,235,6,5,0,0,0,0,0,0,12761
140.49690795,0,-1,-27,0,0,0,0,0,0,-8,3,235,-8,2,235,6,5,0,0,0,0,0,0,12762
140.507828951,0,-1,-27,0,0,0,0,0,0,-8,3,234,-8,2,235,6,5,0,0,0,0,0,0,12763
140.51896596,0,-1,-27,0,0,0,0,0,0,-8,3,234,-8,2,235,6,5,0,0,0,0,0,0,12764
140.530045987,0,-1,-27,0,0,0,0,0,0,-7,3,233,-8,2,235,6,5,0,0,0,0,0,0,12765
140.545870066,0,-1,-27,0,0,0,0,0,0,-7,3,233,-8,2,235,6,5,0,0,0,0,0,0,12766
