TiempoEjecucion,AnguloPitch,AnguloRoll,AnguloYaw,G_Pitch,G_Roll,G_Yaw,G_Pitch_filtrada,G_Roll_filtrada,G_Yaw_filtrada,Ax,Ay,Az,Ax_filtrada,Ay_filtrada,Az_filtrada,posZ,posZ_filtrada,velZ,motorDelantero,motorTrasero,motorDerecho,motorIzquierdo,EstadoEncendido,MensajesRecibidos
5.254472971,-3,3,0,-1,-1,2,0,0,0,65,136,7,-38,-16,21,0,0,0,169,170,172,167,1,450
5.272089004,-3,3,0,-1,-1,2,0,0,0,164,-36,165,-28,8,20,0,0,0,170,169,169,170,1,451
5.283164978,-3,3,0,-2,-5,0,0,0,0,226,228,22,-15,35,12,0,0,0,170,169,169,170,1,452
5.297212839,-3,3,0,3,4,3,0,0,0,226,228,22,-15,35,12,0,0,0,171,168,166,173,1,453
5.305275917,-3,3,0,3,4,3,0,0,0,226,228,22,-15,35,12,0,0,0,167,172,172,167,1,454
5.324213981,-2,3,0,2,0,0,0,0,0,20,83,197,0,58,255,0,0,0,168,171,170,169,1,455
5.335185051,-2,3,0,2,7,3,0,0,0,106,-81,102,19,76,237,0,0,0,168,171,170,169,1,456
5.346122026,-2,3,0,2,7,3,0,0,0,106,-81,102,19,76,237,0,0,0,168,171,174,165,1,457
5.357094049,-2,3,0,-3,-2,-3,0,0,1,106,-81,102,19,76,237,0,0,0,168,171,174,165,1,458
5.375313043,-2,3,0,-3,-2,-3,0,0,1,-130,-154,154,40,88,217,0,0,0,172,167,168,171,1,459
5.387346029,-1,3,0,-4,0,2,0,0,1,78,-76,240,62,92,196,0,0,0,172,167,168,171,1,460
5.397306919,-1,3,0,2,4,4,0,0,1,78,-76,240,62,92,196,0,0,0,172,167,169,170,1,461
5.408112049,-1,3,0,2,4,4,0,0,1,78,-76,240,62,92,196,0,0,0,168,171,172,167,1,462
5.427096843,-1,3,0,-2,-6,-3,0,1,2,-44,-118,255,80,88,180,0,0,0,171,168,166,173,1,463
5.438245058,-1,3,0,1,5,1,0,1,2,-137,56,171,90,73,172,0,0,0,171,168,166,173,1,464
5.453845977,-1,3,0,1,5,1,0,1,2,-137,56,171,90,73,172,0,0,0,169,170,173,166,1,465
5.460093975,-1,3,0,-5,-4,-1,0,1,1,-137,56,171,90,73,172,0,0,0,173,166,167,172,1,466
5.479075908,0,3,0,-5,-4,-1,0,1,1,-63,44,66,89,49,172,0,0,0,173,166,167,172,1,467
5.49010992,0,4,0,-5,-2,-3,0,1,1,46,5,92,77,17,180,0,0,0,173,166,167,172,1,468
5.501337051,0,4,0,-5,-2,-3,0,1,1,46,5,92,77,17,180,0,0,0,173,166,168,171,1,469
5.512140035,0,4,0,0,3,-1,0,1,1,46,5,92,77,17,180,0,0,0,173,166,168,171,1,470
5.530133962,0,4,0,0,3,-1,0,1,1,-5,-27,106,54,-14,194,0,0,0,170,169,171,168,1,471
5.541132927,0,4,0,0,0,1,-1,0,0,-160,92,170,24,-40,212,0,0,0,170,169,171,168,1,472
5.552060842,0,4,0,-1,0,0,-1,0,0,-160,92,170,24,-40,212,0,0,0,169,170,170,169,1,473
5.563146829,0,4,0,-1,0,0,-1,0,0,-160,92,170,24,-40,212,0,0,0,171,168,169,170,1,474
5.58206892,0,4,0,4,1,4,-2,0,0,18,-102,86,-7,-55,230,0,0,0,167,172,171,168,1,475
5.593107938,0,4,0,2,-3,2,-2,0,0,169,-15,42,-34,-57,245,0,0,0,167,172,171,168,1,476
5.604213953,0,4,0,2,-3,2,-2,0,0,169,-15,42,-34,-57,245,0,0,0,168,171,167,172,1,477
5.615149021,0,4,0,-3,0,0,-2,0,0,169,-15,42,-34,-57,245,0,0,0,171,168,169,170,1,478
5.633153915,0,4,0,-3,0,0,-2,0,0,56,76,29,-53,-48,253,0,0,0,171,168,169,170,1,479
5.644121885,0,4,0,1,2,0,-1,0,0,-127,-96,227,-61,-32,255,0,0,0,171,168,169,170,1,480
5.655199051,0,4,0,-3,-2,-4,0,0,0,-127,-96,227,-61,-32,255,0,0,0,168,171,171,168,1,481
5.666126012,0,4,0,-3,-2,-4,0,0,0,-127,-96,227,-61,-32,255,0,0,0,171,168,168,171,1,482
5.685134887,0,4,0,3,2,3,0,0,0,-12,-195,198,-58,-15,249,0,0,0,168,171,171,168,1,483
5.696249008,0,3,0,0,0,2,0,0,1,165,22,238,-44,-1,238,0,0,0,168,171,171,168,1,484
5.707247972,0,3,0,0,0,2,0,0,1,165,22,238,-44,-1,238,0,0,0,169,170,169,170,1,485
5.718271017,0,3,0,0,-1,-2,1,0,1,165,22,238,-44,-1,238,0,0,0,169,170,169,170,1,486
5.736080885,0,3,0,0,-1,-2,1,0,1,6,-67,7,-24,6,225,0,0,0,169,170,169,170,1,487
5.747154951,0,3,0,-5,4,1,1,0,1,-132,-154,100,-3,4,213,0,0,0,169,170,169,170,1,488
5.758163929,0,3,0,-5,4,1,1,0,1,-132,-154,100,-3,4,213,0,0,0,173,166,172,167,1,489
5.769239902,0,3,0,0,1,0,1,0,1,-132,-154,100,-3,4,213,0,0,0,173,166,172,167,1,490
5.787267923,0,3,0,0,1,0,1,0,1,-70,-113,167,15,-6,205,0,0,0,169,170,170,169,1,491
5.798198938,-1,3,0,-1,-5,-2,0,0,0,81,-148,226,28,-24,201,0,0,0,169,170,170,169,1,492
5.809269905,-1,3,0,-1,-5,-2,0,0,0,81,-148,226,28,-24,201,0,0,0,171,168,166,173,1,493
5.82019186,0,3,0,-2,0,1,0,0,0,81,-148,226,28,-24,201,0,0,0,171,168,166,173,1,494
5.839126825,-1,3,0,-2,0,1,0,0,0,-37,-5,161,33,-46,200,0,0,0,171,168,170,169,1,495
5.850234031,-1,3,0,-1,0,1,0,0,0,-151,-46,16,29,-69,200,0,0,0,171,168,170,169,1,496
5.861600875,-1,3,0,-1,0,1,0,0,0,-151,-46,16,29,-69,200,0,0,0,170,169,169,170,1,497
5.872164011,-1,3,0,1,-2,1,0,0,0,-151,-46,16,29,-69,200,0,0,0,170,169,169,170,1,498
5.890215873,-1,3,0,1,-2,1,0,0,0,104,-112,176,19,-93,199,0,0,0,169,170,168,171,1,499
5.901104927,-1,3,0,3,0,0,-1,0,0,89,-158,191,4,-114,199,0,0,0,169,170,168,171,1,500
5.912191867,-1,3,0,3,0,0,-1,0,0,89,-158,191,4,-114,199,0,0,0,167,172,170,169,1,501
5.923253059,-1,3,0,-2,2,0,-1,0,0,89,-158,191,4,-114,199,0,0,0,171,168,171,168,1,502
5.941347837,-2,3,0,-2,2,0,-1,0,0,14,-7,249,-11,-132,198,0,0,0,171,168,171,168,1,503
5.952052831,-2,3,0,-3,-1,1,-1,0,0,-86,100,129,-23,-143,197,0,0,0,171,168,171,168,1,504
5.963212013,-2,3,0,0,2,1,-1,0,0,-86,100,129,-23,-143,197,0,0,0,172,167,168,171,1,505
5.974385023,-2,3,0,0,2,1,-1,0,0,-86,100,129,-23,-143,197,0,0,0,169,170,171,168,1,506
5.993084907,-3,2,0,-4,-2,1,0,0,0,-140,-151,57,-29,-147,197,0,0,0,172,167,168,171,1,507
6.004295826,-4,2,0,-2,-3,0,0,0,0,1,-156,252,-28,-142,198,0,0,0,172,167,168,171,1,508
6.015245914,-4,2,0,-2,-3,0,0,0,0,1,-156,252,-28,-142,198,0,0,0,171,168,168,171,1,509
6.026104927,-4,2,0,1,10,2,0,0,0,1,-156,252,-28,-142,198,0,0,0,171,168,168,171,1,510
6.044111013,-4,2,0,1,10,2,0,0,0,-134,-88,176,-22,-128,197,0,0,0,169,170,176,163,1,511
6.055101871,-5,2,0,1,4,0,0,0,0,-139,38,218,-17,-109,193,0,0,0,169,170,176,163,1,512
6.066148996,-5,2,0,2,0,2,0,0,0,-139,38,218,-17,-109,193,0,0,0,169,170,172,167,1,513
6.077307939,-5,2,0,2,0,2,0,0,0,-139,38,218,-17,-109,193,0,0,0,168,171,170,169,1,514
6.09623003,-5,2,0,-3,-3,0,0,0,0,-83,4,199,-16,-88,188,0,0,0,172,167,167,172,1,515
6.107235908,-6,2,0,-6,-5,0,-1,1,0,-34,-52,66,-21,-70,183,0,0,0,172,167,167,172,1,516
6.118767023,-6,2,0,-6,-5,0,-1,1,0,-34,-52,66,-21,-70,183,0,0,0,173,166,166,173,1,517
6.129127025,-5,2,0,-3,-5,-1,-1,1,0,-34,-52,66,-21,-70,183,0,0,0,171,168,166,173,1,518
6.147109985,-6,2,0,-3,-5,-1,-1,1,0,-120,-6,188,-33,-56,179,0,0,0,171,168,166,173,1,519
6.158365964,-6,1,0,6,8,0,-1,1,0,-5,137,231,-50,-46,178,0,0,0,171,168,166,173,1,520
6.169098854,-6,1,0,0,0,-1,0,1,0,-5,137,231,-50,-46,178,0,0,0,166,173,175,164,1,521
6.183317899,-6,1,0,0,0,-1,0,1,0,-5,137,231,-50,-46,178,0,0,0,169,170,170,169,1,522
6.19926691,-6,1,0,-5,0,-1,0,1,0,12,99,94,-68,-39,182,0,0,0,173,166,169,170,1,523
6.210223913,-7,1,0,-6,-1,-1,0,0,0,-41,0,177,-84,-31,191,0,0,0,173,166,169,170,1,524
6.221196889,-7,1,0,-6,-1,-1,0,0,0,-41,0,177,-84,-31,191,0,0,0,173,166,169,170,1,525
6.23209095,-6,1,0,1,5,3,-1,0,0,-41,0,177,-84,-31,191,0,0,0,169,170,173,166,1,526
6.250292062,-7,0,0,1,5,3,-1,0,0,-51,39,119,-93,-21,201,0,0,0,169,170,173,166,1,527
6.261101007,-7,0,0,0,0,0,-1,0,0,164,195,130,-93,-7,210,0,0,0,169,170,173,166,1,528
6.275158882,-7,0,0,0,0,0,-1,0,0,164,195,130,-93,-7,210,0,0,0,169,170,169,170,1,529
6.283257961,-7,0,0,-1,-2,1,-1,0,0,164,195,130,-93,-7,210,0,0,0,169,170,169,170,1,530
6.302175045,-7,0,0,-1,-2,1,-1,0,0,93,-39,239,-85,8,217,0,0,0,170,169,168,171,1,531
6.313184023,-7,0,0,0,-1,2,-1,0,0,89,-76,61,-68,27,220,0,0,0,170,169,168,171,1,532
6.324245929,-6,0,0,-1,-3,-3,-1,0,0,89,-76,61,-68,27,220,0,0,0,169,170,169,170,1,533
6.335088014,-6,0,0,-1,-3,-3,-1,0,0,89,-76,61,-68,27,220,0,0,0,170,169,167,172,1,534
6.353112936,-6,0,0,0,6,1,-1,0,0,46,63,97,-44,45,220,0,0,0,169,170,173,166,1,535
6.364179849,-6,-1,0,9,3,0,-1,0,0,-103,-5,199,-16,58,221,0,0,0,169,170,173,166,1,536
6.375108003,-6,-1,0,9,3,0,-1,0,0,-103,-5,199,-16,58,221,0,0,0,164,175,172,167,1,537
6.386222839,-6,0,0,-2,0,-4,-1,0,0,-103,-5,199,-16,58,221,0,0,0,171,168,169,170,1,538
6.405133962,-6,-1,0,-2,0,-4,-1,0,0,-188,-171,188,13,65,224,0,0,0,171,168,169,170,1,539
6.416293859,-5,-1,0,-1,0,-2,0,0,0,31,-60,59,38,63,229,0,0,0,171,168,169,170,1,540
6.42712593,-5,-1,0,-1,-4,0,0,0,0,31,-60,59,38,63,229,0,0,0,170,169,169,170,1,541
6.438266992,-5,-1,0,-1,-4,0,0,0,0,31,-60,59,38,63,229,0,0,0,170,169,167,172,1,542
6.457151889,-5,-1,0,-5,-4,-1,0,0,0,211,135,126,54,52,238,0,0,0,173,166,167,172,1,543
6.468179941,-5,0,0,1,-5,3,1,0,0,19,47,22,58,33,247,0,0,0,173,166,167,172,1,544
6.479154825,-5,0,0,1,-5,3,1,0,0,19,47,22,58,33,247,0,0,0,168,171,166,173,1,545
6.491541862,-4,0,0,0,-1,2,1,0,0,19,47,22,58,33,247,0,0,0,170,169,168,171,1,546
6.508075952,-4,0,0,0,-1,2,1,0,0,-66,-4,22,49,10,254,0,0,0,170,169,168,171,1,547
6.519068956,-4,0,0,-2,4,1,0,0,-1,230,0,155,34,-10,1,0,0,0,170,169,168,171,1,548
6.530096054,-4,0,0,-2,4,1,0,0,-1,230,0,155,34,-10,1,0,0,0,171,168,172,167,1,549
6.541678905,-4,0,0,1,-2,0,0,0,-1,230,0,155,34,-10,1,0,0,0,171,168,172,167,1,550
6.560317039,-4,0,0,-1,6,2,0,-1,-1,105,68,71,18,-25,1,0,0,0,170,169,174,165,1,551
6.571221828,-4,0,0,-1,1,1,-1,-2,0,0,-144,202,8,-30,253,0,0,0,170,169,174,165,1,552
6.58210802,-4,0,0,-1,1,1,-1,-2,0,0,-144,202,8,-30,253,0,0,0,171,168,171,168,1,553
6.59307003,-4,0,0,-5,2,0,-1,-2,0,0,-144,202,8,-30,253,0,0,0,173,166,171,168,1,554
6.611187934,-4,0,0,-5,2,0,-1,-2,0,-25,-148,96,7,-26,246,0,0,0,173,166,171,168,1,555
6.622165918,-4,0,0,2,0,1,-1,-1,0,-57,-62,209,15,-18,240,0,0,0,173,166,171,168,1,556
6.633299827,-4,0,0,-3,-4,0,-1,0,1,-57,-62,209,15,-18,240,0,0,0,168,171,170,169,1,557
6.644089937,-4,0,0,-3,-4,0,-1,0,1,-57,-62,209,15,-18,240,0,0,0,171,168,167,172,1,558
6.66324687,-4,0,0,-5,1,0,-1,0,1,91,101,66,29,-8,233,0,0,0,173,166,171,168,1,559
6.675271034,-4,0,0,-1,0,-2,-1,1,2,-94,-140,18,44,-4,225,0,0,0,173,166,171,168,1,560
6.68512392,-4,0,0,-1,0,-2,-1,1,2,-94,-140,18,44,-4,225,0,0,0,171,168,169,170,1,561
6.696142912,-4,0,0,-3,2,-2,-1,2,1,-94,-140,18,44,-4,225,0,0,0,171,168,169,170,1,562
6.715131044,-4,0,0,3,-6,0,-1,2,1,-7,110,55,53,-6,216,0,0,0,167,172,166,173,1,563
6.726994991,-4,0,0,7,-4,-1,-1,1,0,49,-111,95,55,-14,206,0,0,0,167,172,166,173,1,564
6.738600015,-4,0,0,7,-4,-1,-1,1,0,49,-111,95,55,-14,206,0,0,0,165,174,167,172,1,565
6.74842,-4,0,0,3,1,2,-2,1,0,49,-111,95,55,-14,206,0,0,0,167,172,170,169,1,566
6.76748085,-4,0,0,3,1,2,-2,1,0,144,15,45,49,-25,195,0,0,0,167,172,170,169,1,567
6.777232885,-4,0,0,4,0,2,-2,0,0,-91,0,247,36,-34,187,0,0,0,167,172,170,169,1,568
6.788214922,-4,0,0,4,0,2,-2,0,0,-91,0,247,36,-34,187,0,0,0,167,172,169,170,1,569
6.799222946,-4,0,0,5,0,1,-1,0,-1,-91,0,247,36,-34,187,0,0,0,167,172,169,170,1,570
6.817353963,-4,1,0,5,0,1,-1,0,-1,100,115,116,21,-40,181,0,0,0,166,173,170,169,1,571
6.828181982,-4,1,0,-2,1,2,0,-1,-1,97,83,125,8,-41,177,0,0,0,166,173,170,169,1,572
6.839180946,-4,1,0,-3,-1,0,1,-2,-1,97,83,125,8,-41,177,0,0,0,171,168,171,168,1,573
6.850209951,-4,1,0,-3,-1,0,1,-2,-1,97,83,125,8,-41,177,0,0,0,172,167,169,170,1,574
6.869590044,-4,1,0,-7,6,0,2,-2,0,71,45,109,1,-36,176,0,0,0,174,165,174,165,1,575
6.880096912,-4,1,0,-10,-5,-2,3,-1,0,-27,102,125,1,-24,178,0,0,0,174,165,174,165,1,576
6.891298055,-4,1,0,-10,-5,-2,3,-1,0,-27,102,125,1,-24,178,0,0,0,176,163,166,173,1,577
6.90208888,-4,1,0,-2,-2,0,3,-1,0,-27,102,125,1,-24,178,0,0,0,171,168,168,171,1,578
6.920166015,-4,1,0,-2,-2,0,3,-1,0,72,-8,189,9,-7,183,0,0,0,171,168,168,171,1,579
6.931143999,-4,1,0,4,1,-1,2,0,1,34,10,100,21,13,191,0,0,0,171,168,168,171,1,580
6.942119836,-4,1,0,4,1,-1,2,0,1,34,10,100,21,13,191,0,0,0,167,172,170,169,1,581
6.953183889,-4,1,0,-6,0,-2,0,0,1,34,10,100,21,13,191,0,0,0,173,166,169,170,1,582
6.972115993,-4,1,0,5,3,-1,-1,0,1,0,70,-9,35,34,203,0,0,0,166,173,171,168,1,583
6.983249902,-4,1,0,-3,-1,-3,-3,0,0,109,-31,55,47,52,217,0,0,0,166,173,171,168,1,584
6.994132995,-4,1,0,-3,-1,-3,-3,0,0,109,-31,55,47,52,217,0,0,0,172,167,168,171,1,585
7.005100011,-4,1,0,4,0,0,-4,0,0,109,-31,55,47,52,217,0,0,0,167,172,169,170,1,586
7.02439785,-3,1,0,4,0,0,-4,0,0,-14,48,33,56,64,230,0,0,0,167,172,169,170,1,587
7.034111976,-3,1,0,7,2,3,-5,0,-1,37,-68,130,59,67,239,0,0,0,167,172,169,170,1,588
7.045065879,-3,1,0,7,2,3,-5,0,-1,37,-68,130,59,67,239,0,0,0,165,174,171,168,1,589
7.056129932,-3,1,0,0,-2,-2,-4,0,-1,37,-68,130,59,67,239,0,0,0,165,174,171,168,1,590
7.075083017,-3,2,0,0,-2,-2,-4,0,-1,-5,-73,111,58,64,242,0,0,0,169,170,168,171,1,591
7.086135864,-3,2,0,0,2,3,-2,0,-2,-74,-42,47,53,53,238,0,0,0,169,170,168,171,1,592
7.097107887,-3,2,0,4,0,2,0,0,-2,-74,-42,47,53,53,238,0,0,0,169,170,171,168,1,593
7.108088016,-3,2,0,4,0,2,0,0,-2,-74,-42,47,53,53,238,0,0,0,167,172,169,170,1,594
7.126102924,-2,2,0,0,1,2,1,0,-1,102,0,224,45,37,228,0,0,0,170,169,171,168,1,595
7.137127876,-2,2,0,-3,3,3,3,0,-1,106,5,180,36,18,213,0,0,0,170,169,171,168,1,596
7.148018837,-2,2,0,-3,3,3,3,0,-1,106,5,180,36,18,213,0,0,0,172,167,172,167,1,597
7.159271001,-2,2,0,-8,0,-2,3,0,0,106,5,180,36,18,213,0,0,0,175,164,169,170,1,598
7.178155899,-2,2,0,-8,0,-2,3,0,0,-131,-120,149,26,-1,195,0,0,0,175,164,169,170,1,599
7.189090013,-2,2,0,-9,0,-3,3,0,0,-62,-16,66,18,-19,175,0,0,0,175,164,169,170,1,600
7.200095892,-2,2,0,-6,2,2,3,0,1,-62,-16,66,18,-19,175,0,0,0,175,164,170,169,1,601
7.211170911,-2,2,0,-6,2,2,3,0,1,-62,-16,66,18,-19,175,0,0,0,173,166,171,168,1,602
7.230197906,-2,2,0,-6,3,-4,1,1,2,81,58,223,12,-33,159,0,0,0,173,166,172,167,1,603
7.241129875,-2,3,0,-1,1,0,-1,1,1,-73,-115,228,8,-43,149,0,0,0,173,166,172,167,1,604
7.252107858,-2,3,0,-1,1,0,-1,1,1,-73,-115,228,8,-43,149,0,0,0,170,169,170,169,1,605
7.263095855,-2,3,0,1,0,-3,-3,1,1,-73,-115,228,8,-43,149,0,0,0,169,170,169,170,1,606
7.28114295,-2,3,0,1,0,-3,-3,1,1,-61,22,18,4,-47,148,0,0,0,169,170,169,170,1,607
7.294153928,-2,3,0,4,0,0,-5,1,0,55,-1,58,0,-46,156,0,0,0,169,170,169,170,1,608
7.303205013,-2,3,0,4,0,0,-5,1,0,55,-1,58,0,-46,156,0,0,0,167,172,169,170,1,609
7.314113855,-2,3,0,6,-1,0,-6,1,0,55,-1,58,0,-46,156,0,0,0,167,172,169,170,1,610
7.332103014,-2,3,0,6,-1,0,-6,1,0,5,81,117,-3,-42,173,0,0,0,165,174,169,170,1,611
7.343099832,-3,3,0,5,-2,0,-6,1,-1,-22,-217,0,-8,-35,197,0,0,0,165,174,169,170,1,612
7.354055881,-3,3,0,5,-2,0,-6,1,-1,-22,-217,0,-8,-35,197,0,0,0,166,173,168,171,1,613
7.365061044,-3,3,0,3,-4,-2,-5,1,-1,-22,-217,0,-8,-35,197,0,0,0,166,173,168,171,1,614
7.383206844,-3,3,0,3,-4,-2,-5,1,-1,3,-210,9,-12,-27,222,0,0,0,167,172,167,172,1,615
7.394033908,-3,3,0,-1,-4,-3,-3,0,-2,96,111,139,-15,-21,245,0,0,0,167,172,167,172,1,616
7.405071973,-3,3,0,-1,-4,-3,-3,0,-2,96,111,139,-15,-21,245,0,0,0,170,169,167,172,1,617
7.416199922,-3,3,0,-5,0,1,0,0,-2,96,111,139,-15,-21,245,0,0,0,170,169,167,172,1,618
7.435245037,-3,2,0,-5,0,1,0,0,-2,53,-41,86,-16,-18,3,0,0,0,173,166,170,169,1,619
7.451729059,-3,2,0,-7,4,-1,2,0,-1,6,-138,225,-13,-21,3,0,0,0,173,166,170,169,1,620
7.457247972,-3,2,0,-7,4,-1,2,0,-1,6,-138,225,-13,-21,3,0,0,0,174,165,172,167,1,621
7.468276023,-3,2,0,-3,3,-3,4,-1,-1,6,-138,225,-13,-21,3,0,0,0,171,168,172,167,1,622
7.486131906,-3,2,0,-3,3,-3,4,-1,-1,-69,11,175,-7,-29,243,0,0,0,171,168,172,167,1,623
7.497278928,-3,2,0,0,-1,2,4,-2,-1,59,186,162,1,-40,214,0,0,0,171,168,172,167,1,624
7.508333921,-3,2,0,-7,-4,-2,3,-2,0,59,186,162,1,-40,214,0,0,0,170,169,169,170,1,625
7.51917696,-3,2,0,-7,-4,-2,3,-2,0,59,186,162,1,-40,214,0,0,0,174,165,167,172,1,626
7.538223981,-3,2,0,-4,2,-1,1,-1,0,-95,-8,0,11,-50,180,0,0,0,172,167,171,168,1,627
7.549113988,-3,2,0,-1,2,0,0,-1,0,3,-79,198,20,-56,149,0,0,0,172,167,171,168,1,628
7.560186863,-3,2,0,-1,2,0,0,-1,0,3,-79,198,20,-56,149,0,0,0,170,169,171,168,1,629
7.571118831,-3,2,0,7,0,-1,-3,0,0,3,-79,198,20,-56,149,0,0,0,165,174,169,170,1,630
7.589160919,-4,2,0,7,0,-1,-3,0,0,53,-142,91,24,-54,128,0,0,0,165,174,169,170,1,631
7.603292942,-4,2,0,10,-2,-2,-4,0,0,-61,140,243,23,-44,119,0,0,0,165,174,169,170,1,632
7.61113286,-4,2,0,1,-3,0,-5,0,0,-61,140,243,23,-44,119,0,0,0,163,176,168,171,1,633
7.622119903,-4,2,0,1,-3,0,-5,0,0,-61,140,243,23,-44,119,0,0,0,169,170,168,171,1,634
7.641283989,-4,2,0,6,-2,-1,-5,1,-1,28,-57,188,18,-31,124,0,0,0,166,173,168,171,1,635
7.652137041,-4,2,0,0,0,-2,-3,0,-1,163,-19,97,9,-16,138,0,0,0,166,173,168,171,1,636
7.663241863,-4,2,0,0,0,-2,-3,0,-1,163,-19,97,9,-16,138,0,0,0,170,169,169,170,1,637
7.674346923,-4,2,0,1,7,5,0,0,-1,163,-19,97,9,-16,138,0,0,0,170,169,169,170,1,638
7.692327976,-4,2,0,1,7,5,0,0,-1,65,83,237,1,-5,157,0,0,0,168,171,174,165,1,639
7.703346967,-4,2,0,-1,6,1,1,0,-1,66,30,190,-4,2,176,0,0,0,168,171,174,165,1,640
7.714189052,-4,2,0,-6,1,-3,4,0,0,66,30,190,-4,2,176,0,0,0,170,169,174,165,1,641
7.725108862,-4,2,0,-6,1,-3,4,0,0,66,30,190,-4,2,176,0,0,0,173,166,170,169,1,642
7.744130849,-4,2,0,-3,0,0,5,-1,0,-54,-21,5,-4,6,191,0,0,0,172,167,169,170,1,643
7.755233049,-4,2,0,-9,-5,-3,5,0,0,146,-40,236,3,7,199,0,0,0,172,167,169,170,1,644
7.766160965,-4,2,0,-9,-5,-3,5,0,0,146,-40,236,3,7,199,0,0,0,175,164,166,173,1,645
7.777310848,-4,2,0,-4,3,2,3,0,0,146,-40,236,3,7,199,0,0,0,172,167,172,167,1,646
7.796118021,-4,2,0,-6,-1,-3,1,1,0,103,43,122,15,7,202,0,0,0,174,165,169,170,1,647
7.807312965,-4,2,0,1,5,2,-1,1,0,70,1,154,31,7,202,0,0,0,174,165,169,170,1,648
7.81835699,-4,2,0,1,5,2,-1,1,0,70,1,154,31,7,202,0,0,0,169,170,173,166,1,649
7.829118013,-4,2,0,3,-5,-3,-3,2,0,70,1,154,31,7,202,0,0,0,169,170,173,166,1,650
7.847455978,-4,2,0,3,-5,-3,-3,2,0,-8,65,231,47,7,201,0,0,0,167,172,166,173,1,651
7.858212947,-4,2,0,3,-6,-3,-5,1,0,15,18,74,62,10,199,0,0,0,167,172,166,173,1,652
7.869107961,-4,2,0,3,-6,-3,-5,1,0,15,18,74,62,10,199,0,0,0,168,171,166,173,1,653
7.880231857,-4,2,0,6,-1,3,-6,1,0,15,18,74,62,10,199,0,0,0,165,174,169,170,1,654
7.898155927,-4,3,0,6,-1,3,-6,1,0,130,-164,232,72,17,196,0,0,0,165,174,169,170,1,655
7.911422968,-4,3,0,3,6,1,-6,0,-1,-6,-108,33,77,28,192,0,0,0,165,174,169,170,1,656
7.920150995,-4,3,0,3,6,1,-6,0,-1,-6,-108,33,77,28,192,0,0,0,167,172,173,166,1,657
7.931174993,-3,3,0,-2,0,-3,-4,0,-1,-6,-108,33,77,28,192,0,0,0,171,168,169,170,1,658
7.949228048,-3,3,0,-2,0,-3,-4,0,-1,117,102,13,77,40,188,0,0,0,171,168,169,170,1,659
7.960273981,-3,3,0,-2,0,-1,-2,-1,-1,198,107,9,73,47,183,0,0,0,171,168,169,170,1,660
7.971313953,-3,3,0,-6,-1,1,0,-1,-1,198,107,9,73,47,183,0,0,0,171,168,169,170,1,661
7.982104063,-3,3,0,-6,-1,1,0,-1,-1,198,107,9,73,47,183,0,0,0,173,166,169,170,1,662
8.001191854,-3,4,0,-10,4,0,2,-1,0,68,-58,14,66,46,180,0,0,0,176,163,172,167,1,663
8.012255907,-2,4,0,-6,2,1,3,-1,0,88,-68,10,61,39,177,0,0,0,176,163,172,167,1,664
8.0231359,-2,4,0,-6,2,1,3,-1,0,88,-68,10,61,39,177,0,0,0,174,165,171,168,1,665
8.034343958,-2,4,0,-6,-5,-3,3,0,0,88,-68,10,61,39,177,0,0,0,173,166,166,173,1,666
8.053235054,-2,4,0,-2,-5,2,1,0,0,-25,42,249,60,26,174,0,0,0,171,168,166,173,1,667
8.064821958,-2,4,0,-2,-1,-2,0,0,0,98,110,200,63,13,171,0,0,0,171,168,166,173,1,668
8.075204849,-2,4,0,-2,-1,-2,0,0,0,98,110,200,63,13,171,0,0,0,171,168,169,170,1,669
8.086079835,-2,4,0,0,2,2,-3,0,0,98,110,200,63,13,171,0,0,0,171,168,169,170,1,670
8.105228901,-2,5,0,0,2,2,-3,0,0,94,51,69,70,0,168,0,0,0,170,169,171,168,1,671
8.11609292,-2,5,0,1,3,2,-5,0,0,-18,-115,20,78,-6,168,0,0,0,170,169,171,168,1,672
8.127341032,-2,5,0,1,3,2,-5,0,0,-18,-115,20,78,-6,168,0,0,0,168,171,172,167,1,673
8.138207912,-2,5,0,10,2,3,-7,0,0,-18,-115,20,78,-6,168,0,0,0,163,176,171,168,1,674
8.156168937,-2,5,0,10,2,3,-7,0,0,-70,37,54,83,-9,170,0,0,0,163,176,171,168,1,675
8.167281866,-2,6,0,2,2,1,-7,0,0,30,180,113,84,-5,173,0,0,0,163,176,171,168,1,676
8.178532838,-2,6,0,2,-5,1,-5,0,0,30,180,113,84,-5,173,0,0,0,168,171,171,168,1,677
8.189133882,-2,6,0,2,-5,1,-5,0,0,30,180,113,84,-5,173,0,0,0,168,171,166,173,1,678
8.208158969,-2,6,0,0,0,-1,-3,0,0,-137,-155,220,79,1,176,0,0,0,169,170,169,170,1,679
8.219383955,-2,6,0,-3,-5,1,0,0,0,-50,-52,129,68,10,177,0,0,0,169,170,169,170,1,680
8.23051095,-2,6,0,-3,-5,1,0,0,0,-50,-52,129,68,10,177,0,0,0,171,168,166,173,1,681
8.241112947,-2,6,0,2,0,0,1,0,1,-50,-52,129,68,10,177,0,0,0,171,168,166,173,1,682
8.259453058,-2,6,0,-5,1,2,3,0,1,102,176,114,50,18,175,0,0,0,173,166,170,169,1,683
8.270205021,-1,7,0,0,6,0,4,0,1,-18,68,142,28,23,170,0,0,0,173,166,170,169,1,684
8.281169891,-1,7,0,0,6,0,4,0,1,-18,68,142,28,23,170,0,0,0,170,169,173,166,1,685
8.292578935,-1,7,0,-4,0,-4,4,0,1,-18,68,142,28,23,170,0,0,0,172,167,170,169,1,686
8.311146974,-1,7,0,3,7,0,3,0,1,33,-66,203,4,25,163,0,0,0,167,172,174,165,1,687
8.322219848,-1,7,0,-3,-5,-4,1,0,0,-130,-57,75,-15,25,155,0,0,0,167,172,174,165,1,688
8.333125829,-1,7,0,-3,-5,-4,1,0,0,-130,-57,75,-15,25,155,0,0,0,171,168,166,173,1,689
8.344112873,-1,7,0,2,2,1,0,0,0,-130,-57,75,-15,25,155,0,0,0,171,168,166,173,1,690
8.363244056,-1,6,0,2,0,0,-1,0,0,48,84,60,-30,24,149,0,0,0,168,171,170,169,1,691
8.374351978,-1,6,0,6,2,4,-2,0,-1,-129,29,141,-37,22,146,0,0,0,168,171,170,169,1,692
8.385094881,-1,6,0,6,2,4,-2,0,-1,-129,29,141,-37,22,146,0,0,0,166,173,171,168,1,693
8.396543979,-1,6,0,-1,-5,0,-2,1,-1,-129,29,141,-37,22,146,0,0,0,170,169,166,173,1,694
8.414260864,0,6,0,-1,-5,0,-2,1,-1,-145,-185,220,-37,19,151,0,0,0,170,169,166,173,1,695
8.425132036,0,6,0,-1,-4,2,-1,2,-1,66,153,161,-34,16,164,0,0,0,170,169,166,173,1,696
8.436192989,0,6,0,5,4,3,0,2,-1,66,153,161,-34,16,164,0,0,0,170,169,167,172,1,697
8.447248935,0,6,0,5,4,3,0,2,-1,66,153,161,-34,16,164,0,0,0,166,173,172,167,1,698
8.466228008,0,5,0,-1,3,4,0,1,0,88,17,208,-30,12,184,0,0,0,170,169,171,168,1,699
8.477082014,0,5,0,0,8,2,1,0,0,-87,-130,211,-29,8,207,0,0,0,170,169,171,168,1,700
8.488103866,0,5,0,0,8,2,1,0,0,-87,-130,211,-29,8,207,0,0,0,169,170,174,165,1,701
8.499112844,0,5,0,-5,-1,-2,2,0,0,-87,-130,211,-29,8,207,0,0,0,173,166,169,170,1,702
8.518391847,0,5,0,1,2,0,2,0,1,-32,-22,40,-29,3,234,0,0,0,169,170,171,168,1,703
8.529222965,0,5,0,-2,-5,1,2,0,2,176,43,19,-30,0,5,0,0,0,169,170,171,168,1,704
8.540318012,0,5,0,-2,-5,1,2,0,2,176,43,19,-30,0,5,0,0,0,171,168,166,173,1,705
8.551174879,0,4,0,0,3,1,1,0,2,176,43,19,-30,0,5,0,0,0,169,170,172,167,1,706
8.569195032,0,4,0,0,3,1,1,0,2,232,51,98,-30,-4,28,0,0,0,169,170,172,167,1,707
8.580092907,0,4,0,3,3,0,0,0,2,-50,110,161,-26,-8,41,0,0,0,169,170,172,167,1,708
8.591338873,0,4,0,3,3,0,0,0,2,-50,110,161,-26,-8,41,0,0,0,168,171,172,167,1,709
8.602180004,0,4,0,-4,-2,0,0,1,2,-50,110,161,-26,-8,41,0,0,0,172,167,168,171,1,710
8.621171951,0,4,0,-4,-2,0,0,1,2,-7,-118,210,-15,-10,42,0,0,0,172,167,168,171,1,711
8.632252931,0,4,0,-1,-3,0,-1,1,1,-71,-6,18,0,-10,29,0,0,0,172,167,168,171,1,712
8.643198013,0,4,0,-1,-3,0,-1,1,1,-71,-6,18,0,-10,29,0,0,0,170,169,167,172,1,713
8.654249906,0,4,0,2,5,4,-1,1,1,-71,-6,18,0,-10,29,0,0,0,168,171,173,166,1,714
8.676882982,0,4,0,2,5,4,-1,1,1,-117,179,177,20,-7,5,0,0,0,168,171,173,166,1,715
8.683272838,0,4,0,4,4,3,-1,1,0,-137,10,68,39,-1,231,0,0,0,168,171,173,166,1,716
8.694097042,0,4,0,-3,-2,-1,-1,1,0,-137,10,68,39,-1,231,0,0,0,167,172,172,167,1,717
8.707267046,0,4,0,-3,-2,-1,-1,1,0,-137,10,68,39,-1,231,0,0,0,171,168,168,171,1,718
8.72407794,0,4,0,2,4,3,0,0,0,-222,-104,64,49,6,203,0,0,0,168,171,172,167,1,719
8.735278844,0,4,0,-1,-4,0,0,0,0,-87,199,109,47,14,184,0,0,0,168,171,172,167,1,720
8.746253013,0,4,0,-1,-4,0,0,0,0,-87,199,109,47,14,184,0,0,0,170,169,167,172,1,721
8.757191896,0,4,0,-2,2,-3,0,0,0,-87,199,109,47,14,184,0,0,0,171,168,171,168,1,722
8.775162935,0,4,0,-2,2,-3,0,0,0,-81,242,165,29,22,176,0,0,0,171,168,171,168,1,723
8.786059856,0,4,0,2,3,-2,0,0,1,-163,34,71,-1,29,181,0,0,0,171,168,171,168,1,724
8.798181057,0,4,0,0,1,-2,0,0,1,-163,34,71,-1,29,181,0,0,0,168,171,171,168,1,725
8.808033943,0,4,0,0,1,-2,0,0,1,-163,34,71,-1,29,181,0,0,0,170,169,170,169,1,726
8.828721046,0,4,0,6,0,1,0,1,1,-86,66,2,-42,38,193,0,0,0,166,173,169,170,1,727
8.838238954,0,3,0,2,-2,-1,0,1,0,93,98,24,-83,49,207,0,0,0,166,173,169,170,1,728
8.849118948,0,3,0,2,-2,-1,0,1,0,93,98,24,-83,49,207,0,0,0,168,171,168,171,1,729
8.860175848,0,3,0,-4,-3,-2,0,1,0,93,98,24,-83,49,207,0,0,0,168,171,168,171,1,730
8.878743887,0,3,0,-4,-3,-2,0,1,0,-16,-20,134,-118,62,217,0,0,0,172,167,168,171,1,731
8.889060974,0,3,0,-5,3,-2,0,1,0,5,-108,172,-141,75,221,0,0,0,172,167,168,171,1,732
8.900162935,0,3,0,-1,-2,0,0,0,-1,5,-108,172,-141,75,221,0,0,0,173,166,172,167,1,733
8.911213874,0,3,0,-1,-2,0,0,0,-1,5,-108,172,-141,75,221,0,0,0,171,168,168,171,1,734
8.931838989,0,2,0,0,-1,2,0,0,-1,88,29,60,-146,86,219,0,0,0,170,169,169,170,1,735
8.941248893,1,2,0,1,0,1,0,0,-2,70,-19,49,-134,90,212,0,0,0,170,169,169,170,1,736
8.952101945,1,2,0,1,0,1,0,0,-2,70,-19,49,-134,90,212,0,0,0,168,171,170,169,1,737
8.96322298,1,1,0,-1,-1,-2,0,0,-1,70,-19,49,-134,90,212,0,0,0,170,169,168,171,1,738
8.981156826,1,1,0,-1,-1,-2,0,0,-1,-36,7,102,-106,85,205,0,0,0,170,169,168,171,1,739
8.992079019,1,0,0,-1,-2,2,0,0,-1,39,155,165,-68,71,201,0,0,0,170,169,168,171,1,740
9.003151893,1,0,0,-1,-2,2,0,0,-1,39,155,165,-68,71,201,0,0,0,170,169,168,171,1,741
9.015501976,1,0,0,4,-1,0,-1,0,-1,39,155,165,-68,71,201,0,0,0,167,172,169,170,1,742
9.033273935,2,0,0,4,-1,0,-1,0,-1,222,141,138,-26,50,203,0,0,0,167,172,169,170,1,743
9.044106006,2,0,0,4,0,0,-1,-1,0,184,106,187,12,28,211,0,0,0,167,172,169,170,1,744
9.055099964,2,0,0,0,-3,0,-1,-1,0,184,106,187,12,28,211,0,0,0,167,172,169,170,1,745
9.066128969,2,0,0,0,-3,0,-1,-1,0,184,106,187,12,28,211,0,0,0,170,169,167,172,1,746
9.084149837,2,0,0,-2,1,-1,-1,-1,0,-126,81,116,44,12,224,0,0,0,171,168,170,169,1,747
9.095165968,2,0,0,-7,1,-1,0,-1,0,10,-7,116,68,6,237,0,0,0,171,168,170,169,1,748
9.106132984,2,0,0,-7,1,-1,0,-1,0,10,-7,116,68,6,237,0,0,0,174,165,170,169,1,749
9.117156982,2,0,0,0,0,1,0,-1,0,10,-7,116,68,6,237,0,0,0,174,165,170,169,1,750
9.136304855,2,0,0,0,0,1,0,-1,0,84,-38,213,84,12,248,0,0,0,169,170,170,169,1,751
9.147465944,2,0,0,3,3,2,0,-1,0,122,186,233,91,28,255,0,0,0,169,170,170,169,1,752
9.158167839,2,0,0,-7,-5,-3,1,-1,0,122,186,233,91,28,255,0,0,0,168,171,171,168,1,753
9.169182062,2,0,0,-7,-5,-3,1,-1,0,122,186,233,91,28,255,0,0,0,174,165,166,173,1,754
9.188056945,2,0,0,3,0,2,0,0,0,-71,-41,231,90,47,4,0,0,0,167,172,169,170,1,755
9.199493885,2,0,0,1,-1,0,0,0,0,28,37,113,82,65,7,0,0,0,167,172,169,170,1,756
9.210259914,2,0,0,1,-1,0,0,0,0,28,37,113,82,65,7,0,0,0,169,170,169,170,1,757
9.221127987,2,0,0,6,-6,-2,0,0,0,28,37,113,82,65,7,0,0,0,169,170,169,170,1,758
9.239279031,3,1,0,6,-6,-2,0,0,0,144,231,87,70,77,10,0,0,0,165,174,166,173,1,759
9.250190019,3,1,0,5,-3,-1,-1,0,0,-18,-134,63,56,81,11,0,0,0,165,174,166,173,1,760
9.261127948,3,1,0,-1,1,0,-1,0,0,-18,-134,63,56,81,11,0,0,0,166,173,167,172,1,761
9.272237062,3,1,0,-1,1,0,-1,0,0,-18,-134,63,56,81,11,0,0,0,171,168,170,169,1,762
9.29112792,3,1,0,2,5,-3,0,0,0,-20,-36,245,44,79,11,0,0,0,168,171,173,166,1,763
9.30210495,3,1,0,-4,1,0,0,-1,0,3,-51,10,35,72,8,0,0,0,168,171,173,166,1,764
9.313045024,3,1,0,-4,1,0,0,-1,0,3,-51,10,35,72,8,0,0,0,172,167,170,169,1,765
9.324123859,3,1,0,0,1,4,1,-1,0,3,-51,10,35,72,8,0,0,0,170,169,171,168,1,766
9.342223882,3,1,0,0,1,4,1,-1,0,45,-65,10,28,61,5,0,0,0,170,169,171,168,1,767
9.353224992,4,1,0,0,-7,-2,2,-2,0,-184,-74,76,25,46,1,0,0,0,170,169,171,168,1,768
9.36416006,4,1,0,0,-7,-2,2,-2,0,-184,-74,76,25,46,1,0,0,0,170,169,165,174,1,769
9.375213861,4,1,0,-7,-2,0,2,-1,-1,-184,-74,76,25,46,1,0,0,0,170,169,165,174,1,770
9.393121957,4,2,0,-7,-2,0,2,-1,-1,-131,-51,54,22,28,253,0,0,0,174,165,168,171,1,771
9.404172897,4,2,0,2,11,0,2,-1,-1,-130,139,47,18,8,252,0,0,0,174,165,168,171,1,772
9.415240049,4,2,0,4,0,-1,1,0,0,-130,139,47,18,8,252,0,0,0,168,171,176,163,1,773
9.426240921,4,2,0,4,0,-1,1,0,0,-130,139,47,18,8,252,0,0,0,167,172,170,169,1,774
9.445230007,4,2,0,-1,1,3,0,0,0,-75,102,119,10,-11,254,0,0,0,171,168,170,169,1,775
9.456176042,4,2,0,7,3,0,0,0,0,44,-104,18,-4,-28,3,0,0,0,171,168,170,169,1,776
9.46736288,4,2,0,7,3,0,0,0,0,44,-104,18,-4,-28,3,0,0,0,165,174,171,168,1,777
9.478113889,4,2,0,2,-3,-1,-1,1,0,44,-104,18,-4,-28,3,0,0,0,168,171,168,171,1,778
9.498543024,4,2,0,2,-3,-1,-1,1,0,28,-75,212,-25,-39,10,0,0,0,168,171,168,171,1,779
9.507563829,3,2,0,-4,-6,-2,-1,1,0,-6,101,57,-47,-40,16,0,0,0,168,171,168,171,1,780
9.518239975,3,2,0,3,4,3,-1,1,0,-6,101,57,-47,-40,16,0,0,0,172,167,166,173,1,781
9.529305935,3,2,0,3,4,3,-1,1,0,-6,101,57,-47,-40,16,0,0,0,167,172,172,167,1,782
9.548627853,3,1,0,-8,-3,-3,0,1,0,32,-89,168,-67,-34,19,0,0,0,174,165,167,172,1,783
9.558361053,3,1,0,-4,0,-1,0,1,0,-81,-30,66,-78,-23,17,0,0,0,174,165,167,172,1,784
9.569331884,3,1,0,-4,0,-1,0,1,0,-81,-30,66,-78,-23,17,0,0,0,172,167,169,170,1,785
9.580585003,3,1,0,-1,5,0,1,0,0,-81,-30,66,-78,-23,17,0,0,0,170,169,173,166,1,786
9.599097967,3,1,0,-1,5,0,1,0,0,-219,50,146,-78,-10,11,0,0,0,170,169,173,166,1,787
9.61006093,3,1,0,0,0,-2,1,0,0,96,-22,35,-69,-1,4,0,0,0,170,169,173,166,1,788
9.62137103,3,1,0,0,0,-2,1,0,0,96,-22,35,-69,-1,4,0,0,0,170,169,169,170,1,789
9.632200002,3,1,0,-3,-4,-2,0,0,0,96,-22,35,-69,-1,4,0,0,0,170,169,169,170,1,790
9.650207042,3,0,0,-3,-4,-2,0,0,0,94,-102,72,-54,4,253,0,0,0,171,168,167,172,1,791
9.661150932,3,0,0,-4,-2,0,0,0,0,-9,67,33,-38,5,248,0,0,0,171,168,167,172,1,792
9.67213583,3,0,0,-2,-4,-3,-1,0,-1,-9,67,33,-38,5,248,0,0,0,172,167,168,171,1,793
9.68315792,3,0,0,-2,-4,-3,-1,0,-1,-9,67,33,-38,5,248,0,0,0,171,168,167,172,1,794
9.702147007,2,0,0,4,1,0,-2,0,-1,-61,60,76,-25,2,243,0,0,0,167,172,171,168,1,795
9.713089943,2,0,0,5,1,2,-3,0,-1,120,119,176,-14,-2,237,0,0,0,167,172,171,168,1,796
9.724257946,2,0,0,5,1,2,-3,0,-1,120,119,176,-14,-2,237,0,0,0,166,173,171,168,1,797
9.736250877,2,0,0,3,2,0,-3,0,-1,120,119,176,-14,-2,237,0,0,0,167,172,171,168,1,798
9.753123998,2,0,0,3,2,0,-3,0,-1,184,-41,150,-7,-7,227,0,0,0,167,172,171,168,1,799
9.764343023,2,0,0,2,0,0,-3,-1,-1,-130,-254,224,0,-10,213,0,0,0,167,172,171,168,1,800
9.776563882,2,0,0,4,0,0,-2,-1,-1,-130,-254,224,0,-10,213,0,0,0,168,171,169,170,1,801
9.786190033,2,0,0,4,0,0,-2,-1,-1,-130,-254,224,0,-10,213,0,0,0,167,172,169,170,1,802
9.805105924,2,0,0,3,-4,0,0,-1,0,190,102,57,6,-8,197,0,0,0,167,172,167,172,1,803
9.816143035,2,0,0,0,-4,0,1,0,0,176,7,132,14,-3,181,0,0,0,167,172,167,172,1,804
9.82712984,2,0,0,0,-4,0,1,0,0,176,7,132,14,-3,181,0,0,0,169,170,167,172,1,805
9.83837986,2,0,0,-6,5,0,2,0,0,176,7,132,14,-3,181,0,0,0,173,166,173,166,1,806
9.856164932,2,0,0,-6,5,0,2,0,0,38,9,12,26,1,169,0,0,0,173,166,173,166,1,807
9.86720705,2,0,0,-3,4,1,3,0,0,75,-199,9,39,5,162,0,0,0,173,166,173,166,1,808
9.878447055,2,0,0,-3,4,1,3,0,0,75,-199,9,39,5,162,0,0,0,172,167,172,167,1,809
9.889343023,2,0,0,2,0,0,4,0,0,75,-199,9,39,5,162,0,0,0,172,167,172,167,1,810
9.90813899,2,0,0,2,0,0,4,0,0,106,-59,91,54,10,162,0,0,0,168,171,170,169,1,811
9.919095039,2,0,0,3,0,1,3,0,0,-119,173,183,70,14,166,0,0,0,168,171,170,169,1,812
9.930145979,2,0,0,-3,0,1,2,0,0,-119,173,183,70,14,166,0,0,0,168,171,169,170,1,813
9.941047906,2,0,0,-3,0,1,2,0,0,-119,173,183,70,14,166,0,0,0,172,167,170,169,1,814
9.959214925,2,0,0,4,0,2,1,0,0,108,-23,32,83,17,172,0,0,0,167,172,170,169,1,815
9.970178842,2,1,0,-6,-3,1,0,0,0,34,-68,199,92,17,181,0,0,0,167,172,170,169,1,816
9.981148958,2,1,0,-6,-3,1,0,0,0,34,-68,199,92,17,181,0,0,0,174,165,168,171,1,817
9.99217391,2,1,0,3,-7,-1,-1,0,0,34,-68,199,92,17,181,0,0,0,167,172,165,174,1,818
10.01116395,2,1,0,3,-7,-1,-1,0,0,89,-156,200,93,15,189,0,0,0,167,172,165,174,1,819
10.022402048,2,1,0,4,-3,-3,-1,0,0,124,-209,202,87,9,195,0,0,0,167,172,165,174,1,820
10.033104896,2,1,0,-2,-1,-1,-1,0,0,124,-209,202,87,9,195,0,0,0,167,172,167,172,1,821
10.044096946,2,1,0,-2,-1,-1,-1,0,0,124,-209,202,87,9,195,0,0,0,171,168,169,170,1,822
10.063213825,2,2,0,5,4,-2,-1,0,1,-124,-35,235,76,1,198,0,0,0,166,173,172,167,1,823
10.07409501,2,2,0,-8,4,-2,0,-1,0,-135,120,128,63,-10,197,0,0,0,166,173,172,167,1,824
10.085289001,2,2,0,-8,4,-2,0,-1,0,-135,120,128,63,-10,197,0,0,0,175,164,172,167,1,825
10.096068859,2,2,0,-2,0,-1,0,-1,0,-135,120,128,63,-10,197,0,0,0,171,168,169,170,1,826
10.114156961,2,3,0,-2,0,-1,0,-1,0,-31,-20,96,50,-27,193,0,0,0,171,168,169,170,1,827
10.125087022,2,3,0,-4,-2,0,0,-2,0,-53,75,239,38,-45,188,0,0,0,171,168,169,170,1,828
10.136165857,2,3,0,-4,-2,0,0,-2,0,-53,75,239,38,-45,188,0,0,0,172,167,168,171,1,829
10.147089958,2,3,0,-9,-4,-1,0,-2,0,-53,75,239,38,-45,188,0,0,0,172,167,168,171,1,830
10.165084838,1,3,0,-9,-4,-1,0,-2,0,-24,51,198,23,-60,183,0,0,0,175,164,167,172,1,831
10.176208973,1,3,0,-5,0,2,0,-1,-1,76,-24,233,7,-66,178,0,0,0,175,164,167,172,1,832
10.187156915,1,3,0,-5,0,2,0,-1,-1,76,-24,233,7,-66,178,0,0,0,173,166,169,170,1,833
10.198196888,1,3,0,4,0,2,0,-1,-2,76,-24,233,7,-66,178,0,0,0,173,166,169,170,1,834
10.216249942,1,3,0,4,0,2,0,-1,-2,-86,-27,29,-9,-62,175,0,0,0,167,172,170,169,1,835
10.227349042,0,3,0,3,5,3,-1,0,-2,-19,84,47,-25,-48,174,0,0,0,167,172,170,169,1,836
10.23822999,0,3,0,3,5,3,-1,0,-2,-19,84,47,-25,-48,174,0,0,0,167,172,173,166,1,837
10.249146938,0,3,0,-1,2,1,-3,0,-1,-19,84,47,-25,-48,174,0,0,0,167,172,173,166,1,838
10.268224954,0,3,0,-1,2,1,-3,0,-1,10,-106,197,-37,-27,176,0,0,0,171,168,171,168,1,839
10.279227018,0,3,0,5,0,1,-4,0,-1,-169,84,68,-43,-4,181,0,0,0,171,168,171,168,1,840
10.290142059,0,3,0,5,0,1,-4,0,-1,-169,84,68,-43,-4,181,0,0,0,166,173,169,170,1,841
10.301234006,0,3,0,4,3,1,-4,0,0,-169,84,68,-43,-4,181,0,0,0,166,173,169,170,1,842
10.319242954,0,3,0,-2,-2,-3,-3,0,0,-181,120,223,-45,14,187,0,0,0,171,168,168,171,1,843
10.330199957,0,2,0,4,0,-2,-2,0,1,-2,-39,204,-43,28,194,0,0,0,171,168,168,171,1,844
10.341197013,0,2,0,4,0,-2,-2,0,1,-2,-39,204,-43,28,194,0,0,0,167,172,169,170,1,845
10.35233283,0,2,0,-4,-2,1,0,0,2,-2,-39,204,-43,28,194,0,0,0,167,172,168,171,1,846
10.371144056,0,2,0,3,-6,-2,1,0,2,-49,-154,202,-42,35,201,0,0,0,168,171,166,173,1,847
10.382166862,0,2,0,-3,0,-2,2,0,1,-63,-35,85,-43,36,207,0,0,0,168,171,166,173,1,848
10.399283886,0,2,0,-3,0,-2,2,0,1,-63,-35,85,-43,36,207,0,0,0,172,167,169,170,1,849
10.404150009,0,2,0,-5,3,0,3,0,1,-63,-35,85,-43,36,207,0,0,0,172,167,169,170,1,850
10.426281929,0,1,0,-5,2,-2,2,0,0,-52,59,-52,-48,32,213,0,0,0,173,166,171,168,1,851
10.434725046,0,1,0,-2,4,2,1,0,0,-60,133,237,-56,23,219,0,0,0,173,166,171,168,1,852
10.445091009,0,1,0,-2,4,2,1,0,0,-60,133,237,-56,23,219,0,0,0,171,168,172,167,1,853
10.456192016,0,1,0,0,-3,-1,0,-1,-1,-60,133,237,-56,23,219,0,0,0,171,168,172,167,1,854
10.474143028,0,1,0,0,-3,-1,0,-1,-1,126,-43,231,-64,11,222,0,0,0,169,170,167,172,1,855
10.485251903,0,1,0,0,-2,0,-1,-1,-1,74,48,191,-70,0,222,0,0,0,169,170,167,172,1,856
10.496062994,0,0,0,1,-2,2,-2,-1,-1,74,48,191,-70,0,222,0,0,0,169,170,168,171,1,857
10.507091999,0,0,0,1,-2,2,-2,-1,-1,74,48,191,-70,0,222,0,0,0,169,170,168,171,1,858
10.527070045,0,0,0,3,0,2,-3,0,-1,-165,-100,249,-71,-8,217,0,0,0,168,171,170,169,1,859
10.537181854,0,0,0,0,-1,0,-3,0,0,-189,24,28,-65,-11,209,0,0,0,168,171,170,169,1,860
10.548318863,0,0,0,0,-1,0,-3,0,0,-189,24,28,-65,-11,209,0,0,0,169,170,168,171,1,861
10.559144973,0,0,0,3,-5,0,-3,0,0,-189,24,28,-65,-11,209,0,0,0,169,170,168,171,1,862
10.579341888,0,0,0,-1,-1,0,-2,0,0,-145,98,225,-53,-9,201,0,0,0,170,169,168,171,1,863
10.589293956,0,0,0,4,0,-1,0,0,0,33,151,112,-40,-4,195,0,0,0,170,169,168,171,1,864
10.600186824,0,0,0,-2,0,-1,0,0,1,33,151,112,-40,-4,195,0,0,0,167,172,170,169,1,865
10.611304998,0,0,0,-2,0,-1,0,0,1,33,151,112,-40,-4,195,0,0,0,171,168,170,169,1,866
10.630156993,0,0,0,2,2,-2,1,-1,1,19,-148,230,-30,3,194,0,0,0,168,171,171,168,1,867
10.641110897,0,0,0,-8,1,-2,2,-2,1,-24,-201,146,-28,11,197,0,0,0,168,171,171,168,1,868
10.652256012,0,0,0,-8,1,-2,2,-2,1,-24,-201,146,-28,11,197,0,0,0,174,165,171,168,1,869
10.663298845,0,0,0,0,2,-1,2,-2,0,-24,-201,146,-28,11,197,0,0,0,174,165,171,168,1,870
10.682155847,0,-1,0,0,2,-1,2,-2,0,-48,-132,13,-32,18,203,0,0,0,169,170,171,168,1,871
10.693153858,0,-1,0,0,-4,4,2,-2,0,-2,125,139,-41,21,209,0,0,0,169,170,171,168,1,872
10.704074859,0,-1,0,-2,-7,0,1,-1,0,-2,125,139,-41,21,209,0,0,0,169,170,167,172,1,873
10.715153932,0,-1,0,-2,-7,0,1,-1,0,-2,125,139,-41,21,209,0,0,0,171,168,165,174,1,874
10.73416686,0,-1,0,0,-1,0,0,0,-1,125,73,2,-49,17,213,0,0,0,170,169,169,170,1,875
10.745409011,0,-1,0,-2,2,1,0,0,-1,40,125,5,-53,6,216,0,0,0,170,169,169,170,1,876
10.756093978,0,-1,0,-2,2,1,0,0,-1,40,125,5,-53,6,216,0,0,0,171,168,171,168,1,877
10.767513036,0,-1,0,7,4,0,-1,0,-1,40,125,5,-53,6,216,0,0,0,171,168,171,168,1,878
10.785578012,0,-1,0,7,4,0,-1,0,-1,-27,-91,141,-51,-9,217,0,0,0,165,174,172,167,1,879
10.796119928,0,-2,0,0,2,4,-1,0,0,25,93,86,-41,-22,214,0,0,0,165,174,172,167,1,880
10.808105945,0,-2,0,0,2,4,-1,0,0,25,93,86,-41,-22,214,0,0,0,169,170,171,168,1,881
10.818099975,0,-2,0,-2,0,-1,-1,0,0,25,93,86,-41,-22,214,0,0,0,169,170,171,168,1,882
10.837283849,0,-2,0,3,-2,-3,-1,0,0,12,148,185,-25,-28,207,0,0,0,167,172,168,171,1,883
10.848131895,0,-2,0,-3,-5,-2,0,0,1,-23,53,96,-6,-24,195,0,0,0,167,172,168,171,1,884
10.859146833,0,-2,0,-3,-5,-2,0,0,1,-23,53,96,-6,-24,195,0,0,0,171,168,166,173,1,885
10.870153904,0,-2,0,1,4,1,0,0,1,-23,53,96,-6,-24,195,0,0,0,169,170,172,167,1,886
10.888293981,0,-2,0,1,4,1,0,0,1,-94,-103,221,11,-12,182,0,0,0,169,170,172,167,1,887
10.899080038,0,-2,0,-1,0,-1,0,0,1,-31,-96,131,25,6,174,0,0,0,169,170,172,167,1,888
10.910073995,0,-2,0,-1,0,-1,0,0,1,-31,-96,131,25,6,174,0,0,0,170,169,169,170,1,889
10.921094894,0,-2,0,-8,-2,0,1,0,0,-31,-96,131,25,6,174,0,0,0,174,165,168,171,1,890
10.939157962,0,-2,0,-8,-2,0,1,0,0,-69,-48,219,32,26,172,0,0,0,174,165,168,171,1,891
10.950058937,0,-2,0,-6,1,0,1,0,0,-225,-41,106,29,43,179,0,0,0,174,165,168,171,1,892
10.961151838,0,-2,0,-6,1,0,1,0,0,-225,-41,106,29,43,179,0,0,0,173,166,170,169,1,893
10.972287893,0,-2,0,0,1,3,0,0,0,-225,-41,106,29,43,179,0,0,0,169,170,170,169,1,894
10.991233825,0,-2,0,0,1,3,0,0,0,3,-28,254,17,49,192,0,0,0,169,170,170,169,1,895
11.002145052,0,-1,0,4,0,3,0,0,-1,125,-75,32,-1,44,208,0,0,0,169,170,170,169,1,896
11.013181924,0,-1,0,0,4,1,-1,0,-1,125,-75,32,-1,44,208,0,0,0,167,172,170,169,1,897
11.02415204,0,-1,0,0,4,1,-1,0,-1,125,-75,32,-1,44,208,0,0,0,170,169,172,167,1,898
11.043253898,0,-1,0,9,-1,4,-2,0,-1,113,112,22,-24,27,225,0,0,0,164,175,169,170,1,899
11.054162979,0,-1,0,0,-2,0,-2,0,0,30,-143,91,-47,4,241,0,0,0,164,175,169,170,1,900
11.065099001,0,-1,0,0,-2,0,-2,0,0,30,-143,91,-47,4,241,0,0,0,169,170,168,171,1,901
11.07612586,0,-1,0,0,3,0,-2,0,0,30,-143,91,-47,4,241,0,0,0,170,169,171,168,1,902
11.095131874,0,-2,0,0,3,0,-1,0,1,84,-30,24,-61,-20,255,0,0,0,169,170,172,167,1,903
11.10614705,0,-2,0,-2,0,0,0,0,2,-61,3,174,-63,-40,8,0,0,0,169,170,172,167,1,904
11.117151975,0,-2,0,-2,0,0,0,0,2,-61,3,174,-63,-40,8,0,0,0,171,168,170,169,1,905
11.128208875,0,-2,0,-1,8,-1,1,1,2,-61,3,174,-63,-40,8,0,0,0,170,169,175,164,1,906
11.146330833,0,-2,0,-1,8,-1,1,1,2,-32,138,156,-51,-53,8,0,0,0,170,169,175,164,1,907
11.157150983,0,-2,0,-3,0,-1,2,1,2,2,97,26,-29,-58,254,0,0,0,170,169,175,164,1,908
11.168329,0,-2,0,-3,0,-1,2,1,2,2,97,26,-29,-58,254,0,0,0,172,167,169,170,1,909
11.179244041,0,-2,0,-2,0,1,2,1,2,2,97,26,-29,-58,254,0,0,0,171,168,169,170,1,910
11.197200059,0,-2,0,-2,0,1,2,1,2,-93,-157,80,-2,-54,234,0,0,0,171,168,169,170,1,911
11.208240985,0,-2,0,-9,-6,-1,2,1,1,-102,-9,229,21,-41,209,0,0,0,171,168,169,170,1,912
11.219225883,0,-2,0,-9,-6,-1,2,1,1,-102,-9,229,21,-41,209,0,0,0,175,164,166,173,1,913
11.230330944,0,-2,0,-6,0,-2,1,2,0,-102,-9,229,21,-41,209,0,0,0,173,166,169,170,1,914
11.248260974,0,-2,0,-6,0,-2,1,2,0,-131,-130,74,35,-24,186,0,0,0,173,166,169,170,1,915
11.25952506,0,-2,0,3,5,1,0,2,0,-21,128,214,37,-5,171,0,0,0,173,166,169,170,1,916
11.27018094,0,-2,0,3,1,-2,-1,1,0,-21,128,214,37,-5,171,0,0,0,167,172,173,166,1,917
11.283782005,0,-2,0,3,1,-2,-1,1,0,-21,128,214,37,-5,171,0,0,0,167,172,170,169,1,918
11.300070047,0,-2,0,-5,3,0,-3,1,-1,39,59,47,25,8,167,0,0,0,173,166,172,167,1,919
11.311288833,0,-1,0,0,1,1,-4,0,-1,74,121,145,2,16,172,0,0,0,173,166,172,167,1,920
11.322159052,0,-1,0,0,1,1,-4,0,-1,74,121,145,2,16,172,0,0,0,170,169,170,169,1,921
11.333157062,0,-1,0,4,0,0,-4,0,-1,74,121,145,2,16,172,0,0,0,167,172,169,170,1,922
11.352159023,0,-1,0,5,2,4,-3,0,0,154,-159,251,-24,17,183,0,0,0,166,173,171,168,1,923
11.363323927,0,-1,0,1,-7,0,-2,0,0,-112,-212,91,-47,14,197,0,0,0,166,173,171,168,1,924
11.374243021,0,-1,0,1,-7,0,-2,0,0,-112,-212,91,-47,14,197,0,0,0,169,170,165,174,1,925
11.385262012,0,-1,0,0,-2,-1,-1,0,0,-112,-212,91,-47,14,197,0,0,0,170,169,168,171,1,926
11.403151035,0,-1,0,0,-2,-1,-1,0,0,-221,-177,202,-60,10,210,0,0,0,170,169,168,171,1,927
11.414139032,0,-2,0,-2,0,-2,0,1,0,-79,-137,158,-60,4,219,0,0,0,170,169,168,171,1,928
11.425272941,0,-2,0,-2,0,-2,0,1,0,-79,-137,158,-60,4,219,0,0,0,171,168,170,169,1,929
11.439225912,0,-2,0,2,3,0,1,1,0,-79,-137,158,-60,4,219,0,0,0,168,171,172,167,1,930
11.455227851,0,-2,0,2,3,0,1,1,0,-15,164,85,-50,-6,222,0,0,0,168,171,172,167,1,931
11.466119051,0,-2,0,-3,0,-1,2,0,0,-236,75,243,-37,-23,218,0,0,0,168,171,172,167,1,932
11.477205991,0,-2,0,-3,0,-1,2,0,0,-236,75,243,-37,-23,218,0,0,0,171,168,169,170,1,933
11.488178014,0,-2,0,-6,2,-1,2,0,0,-236,75,243,-37,-23,218,0,0,0,173,166,171,168,1,934
11.506152868,0,-2,0,-6,2,-1,2,0,0,8,-100,178,-30,-44,211,0,0,0,173,166,171,168,1,935
11.517096996,0,-2,0,-2,3,0,2,0,0,69,-150,129,-35,-63,204,0,0,0,173,166,171,168,1,936
11.52845788,0,-2,0,-1,-6,0,1,0,0,69,-150,129,-35,-63,204,0,0,0,171,168,171,168,1,937
11.539895057,0,-2,0,-1,-6,0,1,0,0,69,-150,129,-35,-63,204,0,0,0,170,169,165,174,1,938
11.558207988,0,-2,0,0,5,2,0,0,0,-3,-141,59,-52,-75,199,0,0,0,170,169,173,166,1,939
11.569191932,0,-3,0,5,-2,4,-1,0,0,36,-182,136,-76,-78,198,0,0,0,170,169,173,166,1,940
11.580133915,0,-3,0,5,-2,4,-1,0,0,36,-182,136,-76,-78,198,0,0,0,166,173,168,171,1,941
11.591145038,0,-2,0,3,4,2,-2,0,0,36,-182,136,-76,-78,198,0,0,0,167,172,172,167,1,942
11.610126972,-1,-3,0,0,-4,-4,-2,0,0,78,154,108,-98,-75,200,0,0,0,169,170,167,172,1,943
11.621188879,-1,-3,0,-1,0,-2,-2,0,0,4,-25,-18,-110,-71,205,0,0,0,169,170,167,172,1,944
11.632202863,-1,-3,0,-1,0,-2,-2,0,0,4,-25,-18,-110,-71,205,0,0,0,170,169,169,170,1,945
11.643332958,-1,-3,0,1,0,3,-1,0,0,4,-25,-18,-110,-71,205,0,0,0,169,170,170,169,1,946
11.661113977,-1,-3,0,1,0,3,-1,0,0,-77,-90,242,-106,-66,210,0,0,0,169,170,170,169,1,947
11.672255992,-2,-4,0,0,-1,0,0,0,0,-50,-115,17,-88,-63,214,0,0,0,169,170,170,169,1,948
11.683236837,-2,-4,0,0,-1,0,0,0,0,-50,-115,17,-88,-63,214,0,0,0,170,169,169,170,1,949
11.694146871,-2,-4,0,-4,2,-1,0,0,1,-50,-115,17,-88,-63,214,0,0,0,172,167,171,168,1,950
11.712112903,-2,-4,0,-4,2,-1,0,0,1,74,95,244,-58,-60,216,0,0,0,172,167,171,168,1,951
11.723219871,-2,-4,0,-3,1,-1,1,0,1,148,44,118,-26,-57,215,0,0,0,172,167,171,168,1,952
11.734216928,-2,-4,0,2,-1,0,2,0,0,148,44,118,-26,-57,215,0,0,0,171,168,170,169,1,953
11.745236873,-2,-4,0,2,-1,0,2,0,0,148,44,118,-26,-57,215,0,0,0,168,171,169,170,1,954
11.764176845,-2,-4,0,-2,0,0,1,0,0,103,-37,212,3,-52,212,0,0,0,171,168,170,169,1,955
11.77718091,-3,-4,0,4,0,0,0,0,0,82,128,240,26,-46,209,0,0,0,171,168,170,169,1,956
11.786241054,-3,-4,0,4,0,0,0,0,0,82,128,240,26,-46,209,0,0,0,167,172,169,170,1,957
11.797118902,-2,-4,0,-2,-4,-4,0,0,0,82,128,240,26,-46,209,0,0,0,171,168,167,172,1,958
11.815160989,-3,-4,0,-2,-4,-4,0,0,0,99,-97,162,41,-37,205,0,0,0,171,168,167,172,1,959
11.826159,-3,-4,0,-4,-4,-5,-1,0,0,51,-193,42,52,-26,202,0,0,0,171,168,167,172,1,960
11.837225914,-3,-4,0,-4,-4,-5,-1,0,0,51,-193,42,52,-26,202,0,0,0,172,167,167,172,1,961
11.848120927,-3,-4,0,3,2,0,-1,0,0,51,-193,42,52,-26,202,0,0,0,167,172,171,168,1,962
11.86798501,-3,-4,0,-3,-1,-5,-1,0,-1,80,47,128,60,-13,201,0,0,0,172,167,169,170,1,963
11.87837696,-3,-4,0,3,5,0,-1,0,-1,104,96,25,67,-2,201,0,0,0,172,167,169,170,1,964
11.889502048,-3,-4,0,3,5,0,-1,0,-1,104,96,25,67,-2,201,0,0,0,167,172,173,166,1,965
11.900151968,-3,-3,0,-3,0,-2,-1,0,-1,104,96,25,67,-2,201,0,0,0,172,167,170,169,1,966
11.91812706,-3,-3,0,-3,0,-2,-1,0,-1,-47,123,130,73,3,206,0,0,0,172,167,170,169,1,967
11.929210901,-3,-3,0,-3,-5,0,0,-1,-1,-119,-112,125,78,4,216,0,0,0,172,167,170,169,1,968
11.94027996,-3,-3,0,-3,-5,0,0,-1,-1,-119,-112,125,78,4,216,0,0,0,172,167,166,173,1,969
11.951174974,-3,-3,0,2,1,1,0,-1,-2,-119,-112,125,78,4,216,0,0,0,172,167,166,173,1,970
11.970113992,-3,-2,0,2,1,1,0,-1,-2,-103,-55,78,80,2,232,0,0,0,168,171,170,169,1,971
11.981087923,-3,-2,0,4,5,6,0,-1,-2,60,-95,31,77,0,254,0,0,0,168,171,170,169,1,972
11.992058992,-3,-2,0,0,-4,-2,0,0,-2,60,-95,31,77,0,254,0,0,0,167,172,173,166,1,973
12.00316596,-3,-2,0,0,-4,-2,0,0,-2,60,-95,31,77,0,254,0,0,0,169,170,167,172,1,974
12.022730827,-3,-2,0,6,8,6,0,0,-1,-157,-79,106,66,-2,21,0,0,0,166,173,175,164,1,975
12.033256054,-3,-1,0,0,1,0,0,0,-1,-118,91,172,47,-4,41,0,0,0,166,173,175,164,1,976
12.044270992,-3,-1,0,0,1,0,0,0,-1,-118,91,172,47,-4,41,0,0,0,170,169,170,169,1,977
12.055284023,-3,-1,0,2,5,3,0,0,0,-118,91,172,47,-4,41,0,0,0,168,171,173,166,1,978
12.073153972,-3,-1,0,2,5,3,0,0,0,8,-102,132,21,-9,55,0,0,0,168,171,173,166,1,979
12.084146022,-3,-1,0,-3,4,1,0,1,1,76,64,19,-7,-15,62,0,0,0,168,171,173,166,1,980
12.095098972,-3,-1,0,-3,4,1,0,1,1,76,64,19,-7,-15,62,0,0,0,171,168,172,167,1,981
12.106116056,-3,-1,0,-7,-4,-2,1,1,2,76,64,19,-7,-15,62,0,0,0,174,165,167,172,1,982
12.124100923,-3,-1,0,-7,-4,-2,1,1,2,-28,-4,105,-36,-22,62,0,0,0,174,165,167,172,1,983
12.135287046,-3,-1,0,-1,-5,0,1,2,2,29,-117,173,-59,-29,56,0,0,0,174,165,167,172,1,984
12.146162986,-3,-1,0,-3,1,2,2,2,3,29,-117,173,-59,-29,56,0,0,0,171,168,166,173,1,985
12.157186031,-3,-1,0,-3,1,2,2,2,3,29,-117,173,-59,-29,56,0,0,0,172,167,170,169,1,986
12.179461956,-3,-1,0,-4,0,-2,1,2,3,0,106,119,-72,-32,44,0,0,0,172,167,170,169,1,987
12.18719387,-3,-1,0,-2,4,-2,0,2,2,67,111,99,-73,-33,28,0,0,0,172,167,170,169,1,988
12.198190927,-3,-1,0,-2,4,-2,0,2,2,67,111,99,-73,-33,28,0,0,0,171,168,172,167,1,989
12.209238052,-3,-1,0,-4,2,-1,0,1,1,67,111,99,-73,-33,28,0,0,0,171,168,172,167,1,990
12.227169036,-3,-1,0,-4,2,-1,0,1,1,137,14,218,-62,-29,9,0,0,0,172,167,171,168,1,991
12.23832488,-3,-1,0,-3,3,1,-2,0,0,-21,-6,147,-43,-22,248,0,0,0,172,167,171,168,1,992
12.249083042,-3,-1,0,0,-2,1,-3,0,0,-21,-6,147,-43,-22,248,0,0,0,172,167,171,168,1,993
12.26059103,-3,-1,0,0,-2,1,-3,0,0,-21,-6,147,-43,-22,248,0,0,0,170,169,168,171,1,994
12.279151916,-3,-1,0,0,2,2,-4,0,0,-7,-210,37,-18,-12,236,0,0,0,169,170,171,168,1,995
12.29036498,-3,-1,0,2,-8,0,-4,0,-1,28,-66,135,7,-3,230,0,0,0,169,170,171,168,1,996
12.301136016,-3,-1,0,2,-8,0,-4,0,-1,28,-66,135,7,-3,230,0,0,0,168,171,165,174,1,997
12.312273979,-3,-1,0,4,-3,-2,-4,0,-1,28,-66,135,7,-3,230,0,0,0,167,172,168,171,1,998
12.330150842,-3,-1,0,4,-3,-2,-4,0,-1,-10,0,161,31,0,232,0,0,0,167,172,168,171,1,999
12.341261863,-3,-1,0,0,2,0,-3,0,0,-122,102,158,48,-4,238,0,0,0,167,172,168,171,1,1000
12.352154016,-3,-1,0,6,4,2,-2,0,0,-122,102,158,48,-4,238,0,0,0,169,170,171,168,1,1001
12.363373994,-3,-1,0,6,4,2,-2,0,0,-122,102,158,48,-4,238,0,0,0,166,173,172,167,1,1002
12.382179021,-3,-1,0,0,5,2,-1,0,0,37,-55,244,56,-19,251,0,0,0,170,169,173,166,1,1003
12.393290042,-3,-1,0,-1,-4,-1,0,0,0,-1,-17,100,53,-39,13,0,0,0,170,169,173,166,1,1004
12.404223919,-3,-1,0,-1,-4,-1,0,0,0,-1,-17,100,53,-39,13,0,0,0,171,168,167,172,1,1005
12.415307045,-3,-1,0,0,3,0,1,0,1,-1,-17,100,53,-39,13,0,0,0,170,169,172,167,1,1006
12.434085846,-3,-1,0,0,3,0,1,0,1,-6,-208,222,42,-57,34,0,0,0,170,169,172,167,1,1007
12.445059061,-3,-1,0,0,3,0,2,0,1,-123,-14,62,24,-68,54,0,0,0,170,169,172,167,1,1008
12.456050872,-3,-1,0,0,3,0,2,0,1,-123,-14,62,24,-68,54,0,0,0,170,169,172,167,1,1009
12.46708703,-3,-1,0,0,-3,-2,3,0,1,-123,-14,62,24,-68,54,0,0,0,170,169,172,167,1,1010
12.48527503,-3,0,0,0,-3,-2,3,0,1,-28,19,153,5,-72,65,0,0,0,170,169,167,172,1,1011
12.496783971,-3,0,0,-3,-6,-1,2,0,1,8,138,214,-13,-69,63,0,0,0,170,169,167,172,1,1012
12.507120847,-3,0,0,-5,-2,-1,1,1,0,8,138,214,-13,-69,63,0,0,0,171,168,166,173,1,1013
12.518381834,-3,0,0,-5,-2,-1,1,1,0,8,138,214,-13,-69,63,0,0,0,173,166,168,171,1,1014
12.537242889,-3,0,0,4,3,2,0,1,0,-183,87,116,-28,-62,46,0,0,0,167,172,172,167,1,1015
12.548079967,-3,0,0,3,8,1,0,1,0,-93,-96,203,-40,-51,17,0,0,0,167,172,172,167,1,1016
12.559180021,-3,0,0,3,8,1,0,1,0,-93,-96,203,-40,-51,17,0,0,0,167,172,175,164,1,1017
12.570212841,-3,0,0,0,-1,-3,-1,0,0,-93,-96,203,-40,-51,17,0,0,0,169,170,169,170,1,1018
12.588171005,-4,0,0,0,-1,-3,-1,0,0,-102,-72,38,-47,-37,238,0,0,0,169,170,169,170,1,1019
12.59919095,-4,-1,0,-6,-1,0,-1,0,0,-151,73,219,-53,-20,206,0,0,0,169,170,169,170,1,1020
12.610249042,-4,-1,0,1,-1,1,-1,0,0,-151,73,219,-53,-20,206,0,0,0,173,166,169,170,1,1021
12.621317863,-4,-1,0,1,-1,1,-1,0,0,-151,73,219,-53,-20,206,0,0,0,169,170,169,170,1,1022
12.640136957,-4,-1,0,4,2,0,-1,0,0,-70,-109,73,-60,-4,185,0,0,0,167,172,171,168,1,1023
12.65118289,-4,-1,0,5,0,0,0,0,0,102,76,39,-67,8,177,0,0,0,167,172,171,168,1,1024
12.662731886,-4,-1,0,5,0,0,0,0,0,102,76,39,-67,8,177,0,0,0,166,173,169,170,1,1025
12.673265934,-4,-1,0,1,1,2,0,0,0,102,76,39,-67,8,177,0,0,0,169,170,170,169,1,1026
12.691133976,-4,-1,0,1,1,2,0,0,0,-102,110,127,-76,16,181,0,0,0,169,170,170,169,1,1027
12.70210886,-4,-2,0,0,5,0,0,0,0,-3,43,248,-84,18,194,0,0,0,169,170,170,169,1,1028
12.713309049,-4,-2,0,0,5,0,0,0,0,-3,43,248,-84,18,194,0,0,0,170,169,173,166,1,1029
12.724105835,-3,-1,0,2,2,3,1,0,0,-3,43,248,-84,18,194,0,0,0,170,169,173,166,1,1030
12.743197918,-3,-2,0,0,3,-1,1,1,0,-86,-210,243,-88,15,211,0,0,0,169,170,172,167,1,1031
12.754196882,-3,-2,0,0,0,2,2,1,0,-18,71,171,-87,12,230,0,0,0,169,170,172,167,1,1032
12.765230894,-3,-2,0,0,0,2,2,1,0,-18,71,171,-87,12,230,0,0,0,170,169,169,170,1,1033
12.776275873,-3,-2,0,-7,0,0,2,1,1,-18,71,171,-87,12,230,0,0,0,174,165,169,170,1,1034
12.794205904,-3,-2,0,-7,0,0,2,1,1,21,-32,28,-80,9,247,0,0,0,174,165,169,170,1,1035
12.80509305,-3,-3,0,-4,0,1,2,1,1,108,48,233,-69,5,4,0,0,0,174,165,169,170,1,1036
12.816158056,-3,-3,0,-2,0,-2,1,2,1,108,48,233,-69,5,4,0,0,0,172,167,170,169,1,1037
12.827172041,-3,-3,0,-2,0,-2,1,2,1,108,48,233,-69,5,4,0,0,0,171,168,169,170,1,1038
12.847255945,-3,-3,0,1,1,1,0,2,1,8,6,39,-54,2,11,0,0,0,169,170,170,169,1,1039
12.85717988,-3,-3,0,8,0,1,0,2,1,-25,247,192,-39,0,13,0,0,0,169,170,170,169,1,1040
12.868144989,-3,-3,0,8,0,1,0,2,1,-25,247,192,-39,0,13,0,0,0,165,174,170,169,1,1041
12.879117012,-3,-3,0,-1,5,0,-1,1,0,-25,247,192,-39,0,13,0,0,0,171,168,173,166,1,1042
12.899085044,-3,-3,0,6,3,2,-2,1,0,16,95,109,-22,-2,10,0,0,0,165,174,172,167,1,1043
12.909538984,-3,-3,0,-4,1,0,-2,0,0,212,24,-7,-6,0,4,0,0,0,165,174,172,167,1,1044
12.920165062,-3,-3,0,-4,1,0,-2,0,0,212,24,-7,-6,0,4,0,0,0,172,167,170,169,1,1045
12.93108201,-3,-3,0,2,-7,-2,-1,0,0,212,24,-7,-6,0,4,0,0,0,168,171,165,174,1,1046
12.949269056,-2,-3,0,2,-7,-2,-1,0,0,92,-19,-31,7,7,253,0,0,0,168,171,165,174,1,1047
12.960172891,-2,-3,0,1,-6,-2,0,0,0,-55,-231,205,21,21,245,0,0,0,168,171,165,174,1,1048
12.971240043,-2,-3,0,1,-6,-2,0,0,0,-55,-231,205,21,21,245,0,0,0,169,170,166,173,1,1049
12.982058048,-2,-3,0,-3,-2,1,0,0,0,-55,-231,205,21,21,245,0,0,0,169,170,166,173,1,1050
13.001235008,-2,-3,0,-3,-2,1,0,0,0,-45,0,23,33,38,234,0,0,0,172,167,168,171,1,1051
13.011177063,-2,-3,0,-8,1,0,1,0,0,207,137,173,44,51,218,0,0,0,172,167,168,171,1,1052
13.022145986,-2,-3,0,3,4,0,2,0,0,207,137,173,44,51,218,0,0,0,175,164,170,169,1,1053
13.033210039,-2,-3,0,3,4,0,2,0,0,207,137,173,44,51,218,0,0,0,167,172,172,167,1,1054
13.052162885,-2,-3,0,0,0,-2,2,0,0,149,62,242,52,56,199,0,0,0,170,169,169,170,1,1055
13.063320875,-1,-2,0,0,0,-2,1,0,0,-18,-19,176,58,50,179,0,0,0,170,169,169,170,1,1056
13.074249029,-1,-2,0,0,0,-2,1,0,0,-18,-19,176,58,50,179,0,0,0,169,170,169,170,1,1057
13.085111856,-1,-2,0,-1,0,0,0,-1,0,-18,-19,176,58,50,179,0,0,0,171,168,169,170,1,1058
13.103178978,-1,-2,0,-1,0,0,0,-1,0,41,-51,230,62,38,164,0,0,0,171,168,169,170,1,1059
13.114279031,-1,-2,0,-1,-2,1,-1,-1,0,49,8,229,65,22,159,0,0,0,171,168,169,170,1,1060
13.127260923,-1,-2,0,6,0,0,-1,-1,-1,49,8,229,65,22,159,0,0,0,171,168,168,171,1,1061
13.13616991,-1,-2,0,6,0,0,-1,-1,-1,49,8,229,65,22,159,0,0,0,166,173,169,170,1,1062
13.155300855,-1,-1,0,0,-3,0,-2,-1,-1,2,98,143,67,7,166,0,0,0,169,170,168,171,1,1063
13.166148901,-1,-1,0,3,0,0,-1,0,-1,-106,-11,208,67,-2,185,0,0,0,169,170,168,171,1,1064
13.177212953,-1,-1,0,3,0,0,-1,0,-1,-106,-11,208,67,-2,185,0,0,0,167,172,170,169,1,1065
13.188199043,-1,-1,0,-3,-1,1,-1,0,0,-106,-11,208,67,-2,185,0,0,0,172,167,169,170,1,1066
13.20708394,-1,-1,0,-3,-1,1,-1,0,0,81,79,47,65,-7,209,0,0,0,172,167,169,170,1,1067
13.218227863,-1,0,0,-2,0,-3,0,0,0,140,43,213,60,-6,233,0,0,0,172,167,169,170,1,1068
13.229121923,-1,0,0,-2,0,-3,0,0,0,140,43,213,60,-6,233,0,0,0,171,168,170,169,1,1069
13.240156889,-1,0,0,5,0,2,0,0,0,140,43,213,60,-6,233,0,0,0,171,168,170,169,1,1070
13.25851798,-1,0,0,5,0,2,0,0,0,-71,64,107,50,-1,252,0,0,0,166,173,169,170,1,1071
13.269156932,0,0,0,2,-3,0,1,0,0,90,-141,206,39,8,6,0,0,0,166,173,169,170,1,1072
13.280123949,0,0,0,-2,1,0,1,0,0,90,-141,206,39,8,6,0,0,0,168,171,167,172,1,1073
13.29124999,0,0,0,-2,1,0,1,0,0,90,-141,206,39,8,6,0,0,0,171,168,170,169,1,1074
13.311169862,0,0,0,0,-4,0,1,-1,0,-19,-74,48,29,19,6,0,0,0,169,170,167,172,1,1075
13.321105003,0,0,0,-7,2,-3,1,-1,0,16,148,194,21,29,253,0,0,0,169,170,167,172,1,1076
13.33244586,0,0,0,-7,2,-3,1,-1,0,16,148,194,21,29,253,0,0,0,174,165,171,168,1,1077
13.343478918,0,0,0,0,5,4,1,-1,0,16,148,194,21,29,253,0,0,0,169,170,173,166,1,1078
13.361234903,0,0,0,0,5,4,1,-1,0,-113,49,35,16,34,239,0,0,0,169,170,173,166,1,1079
13.372212886,0,0,0,2,0,1,0,-1,0,-64,63,28,14,33,222,0,0,0,169,170,173,166,1,1080
13.383198022,0,0,0,0,1,0,0,-1,0,-64,63,28,14,33,222,0,0,0,168,171,169,170,1,1081
13.394062996,0,0,0,0,1,0,0,-1,0,-64,63,28,14,33,222,0,0,0,170,169,171,168,1,1082
13.413271904,0,0,0,0,-2,2,0,0,0,-31,65,4,13,28,206,0,0,0,169,170,168,171,1,1083
13.424157858,0,0,0,0,0,0,0,0,0,32,-16,173,11,22,191,0,0,0,169,170,168,171,1,1084
13.435314893,0,0,0,0,0,0,0,0,0,32,-16,173,11,22,191,0,0,0,169,170,170,169,1,1085
13.446248054,0,0,0,2,-6,1,-1,0,0,32,-16,173,11,22,191,0,0,0,168,171,166,173,1,1086
13.464244842,0,0,0,2,-6,1,-1,0,0,-109,-53,203,5,18,176,0,0,0,168,171,166,173,1,1087
13.475688934,0,0,0,0,0,3,-1,0,0,-167,-47,139,-4,17,163,0,0,0,168,171,166,173,1,1088
13.486242055,0,0,0,0,0,3,-1,0,0,-167,-47,139,-4,17,163,0,0,0,169,170,169,170,1,1089
13.500787019,0,0,0,-1,7,0,0,0,0,-167,-47,139,-4,17,163,0,0,0,169,170,169,170,1,1090
13.515127897,0,0,0,-1,7,0,0,0,0,-31,5,143,-16,18,153,0,0,0,170,169,174,165,1,1091
13.531558036,0,0,0,-1,0,-1,0,0,1,80,151,167,-30,20,148,0,0,0,170,169,174,165,1,1092
13.537103891,0,0,0,1,1,2,0,0,1,80,151,167,-30,20,148,0,0,0,170,169,170,169,1,1093
13.548267841,0,0,0,1,1,2,0,0,1,80,151,167,-30,20,148,0,0,0,169,170,170,169,1,1094
13.567173004,0,0,0,-7,-3,-4,0,0,1,-89,97,30,-47,21,147,0,0,0,174,165,167,172,1,1095
13.578425884,0,0,0,-5,0,-1,0,0,1,-175,126,207,-66,19,150,0,0,0,174,165,167,172,1,1096
13.589253902,0,0,0,-5,0,-1,0,0,1,-175,126,207,-66,19,150,0,0,0,173,166,169,170,1,1097
13.600188016,0,0,0,-6,1,0,0,0,1,-175,126,207,-66,19,150,0,0,0,173,166,171,168,1,1098
13.619242906,0,0,0,-6,1,0,0,0,1,-81,-133,82,-84,18,156,0,0,0,173,166,171,168,1,1099
13.630193948,0,0,0,-7,2,0,0,0,0,106,73,92,-100,20,165,0,0,0,173,166,171,168,1,1100
13.640249967,0,0,0,5,0,-2,0,0,0,106,73,92,-100,20,165,0,0,0,174,165,171,168,1,1101
13.651308059,0,0,0,5,0,-2,0,0,0,106,73,92,-100,20,165,0,0,0,166,173,169,170,1,1102
13.670119047,0,-1,0,-4,0,-2,-2,0,0,19,21,121,-110,25,177,0,0,0,172,167,169,170,1,1103
13.681776046,0,-1,0,2,3,6,-3,0,0,-11,34,52,-114,32,191,0,0,0,172,167,169,170,1,1104
13.692091941,0,-1,0,2,3,6,-3,0,0,-11,34,52,-114,32,191,0,0,0,168,171,172,167,1,1105
13.704589843,0,-1,0,0,0,0,-4,0,-1,-11,34,52,-114,32,191,0,0,0,170,169,169,170,1,1106
13.72210288,1,-2,0,0,0,0,-4,0,-1,1,112,11,-108,39,204,0,0,0,170,169,169,170,1,1107
13.733294963,1,-2,0,-4,-2,0,-4,0,-1,237,205,30,-93,43,214,0,0,0,170,169,169,170,1,1108
13.744082927,1,-2,0,-4,-2,0,-4,0,-1,237,205,30,-93,43,214,0,0,0,172,167,168,171,1,1109
13.755131006,1,-2,0,-2,-2,-2,-4,0,-1,237,205,30,-93,43,214,0,0,0,172,167,168,171,1,1110
13.773077011,1,-2,0,-2,-2,-2,-4,0,-1,-20,-39,74,-69,46,220,0,0,0,171,168,168,171,1,1111
13.78421688,1,-3,0,0,1,1,-3,0,0,-39,-13,182,-40,48,224,0,0,0,171,168,168,171,1,1112
13.795186996,1,-3,0,-5,0,0,-2,0,0,-39,-13,182,-40,48,224,0,0,0,170,169,171,168,1,1113
13.806180954,1,-3,0,-5,0,0,-2,0,0,-39,-13,182,-40,48,224,0,0,0,173,166,169,170,1,1114
13.825141906,1,-3,0,1,6,5,-1,0,0,-101,-173,226,-9,51,225,0,0,0,169,170,174,165,1,1115
13.836148977,1,-3,0,1,-8,-5,0,0,0,40,29,-51,20,54,224,0,0,0,169,170,174,165,1,1116
13.847174882,1,-3,0,3,2,5,0,0,0,40,29,-51,20,54,224,0,0,0,169,170,164,175,1,1117
13.858161926,1,-3,0,3,2,5,0,0,0,40,29,-51,20,54,224,0,0,0,167,172,171,168,1,1118
13.877073049,1,-3,0,0,-1,-4,0,0,0,80,173,148,41,54,220,0,0,0,169,170,169,170,1,1119
13.888079881,2,-3,0,4,3,0,0,0,0,-118,11,176,53,49,211,0,0,0,169,170,169,170,1,1120
13.899978876,2,-3,0,4,3,0,0,0,0,-118,11,176,53,49,211,0,0,0,167,172,172,167,1,1121
13.910066843,2,-3,0,0,-2,-4,0,0,0,-118,11,176,53,49,211,0,0,0,170,169,168,171,1,1122
13.92850995,2,-2,0,6,-1,1,0,0,0,-108,77,91,52,40,197,0,0,0,166,173,169,170,1,1123
13.939192056,2,-2,0,0,-3,0,0,0,0,2,27,230,42,29,179,0,0,0,166,173,169,170,1,1124
13.955210924,2,-2,0,0,-3,0,0,0,0,2,27,230,42,29,179,0,0,0,170,169,168,171,1,1125
13.964506864,2,-2,0,-2,-1,2,0,0,0,2,27,230,42,29,179,0,0,0,171,168,169,170,1,1126
13.980079889,2,-2,0,-2,-1,2,0,0,0,-38,57,32,24,19,162,0,0,0,171,168,169,170,1,1127
13.991212844,2,-2,0,-5,1,2,1,0,0,-8,-50,39,3,15,151,0,0,0,171,168,169,170,1,1128
14.002261877,2,-2,0,-5,1,2,1,0,0,-8,-50,39,3,15,151,0,0,0,173,166,170,169,1,1129
14.013172865,2,-2,0,-6,-7,-2,2,0,0,-8,-50,39,3,15,151,0,0,0,173,166,165,174,1,1130
14.031213998,2,-2,0,-6,-7,-2,2,0,0,-64,-133,165,-18,16,149,0,0,0,173,166,165,174,1,1131
14.042382955,3,-2,0,-5,-1,3,2,0,0,-8,113,71,-36,20,157,0,0,0,173,166,165,174,1,1132
14.05309391,3,-2,0,-5,-1,3,2,0,0,-8,113,71,-36,20,157,0,0,0,173,166,169,170,1,1133
14.064123869,3,-2,0,-3,0,0,1,-1,0,-8,113,71,-36,20,157,0,0,0,172,167,170,169,1,1134
14.08258295,3,-2,0,-3,0,0,1,-1,0,-58,122,144,-49,25,171,0,0,0,172,167,170,169,1,1135
14.093230962,3,-2,0,0,2,1,0,-1,0,17,161,25,-55,27,187,0,0,0,172,167,170,169,1,1136
14.104050874,3,-2,0,0,9,0,-1,-1,0,17,161,25,-55,27,187,0,0,0,169,170,171,168,1,1137
14.115265846,3,-2,0,0,9,0,-1,-1,0,17,161,25,-55,27,187,0,0,0,169,170,175,164,1,1138
14.134171962,3,-2,0,0,2,1,-2,-1,0,-48,7,80,-55,27,202,0,0,0,169,170,171,168,1,1139
14.145128011,3,-2,0,-2,2,-2,-4,-1,1,122,111,18,-51,28,214,0,0,0,169,170,171,168,1,1140
14.156151056,3,-2,0,-2,2,-2,-4,-1,1,122,111,18,-51,28,214,0,0,0,171,168,171,168,1,1141
14.167387008,3,-2,0,-5,-3,1,-4,0,1,122,111,18,-51,28,214,0,0,0,173,166,168,171,1,1142
14.185127973,3,-3,0,-5,-3,1,-4,0,1,-80,-167,66,-43,30,223,0,0,0,173,166,168,171,1,1143
14.202829837,3,-3,0,-2,-6,3,-4,0,1,-105,6,220,-33,36,230,0,0,0,173,166,168,171,1,1144
14.207099914,3,-3,0,-3,-9,-3,-3,1,1,-105,6,220,-33,36,230,0,0,0,171,168,166,173,1,1145
14.218237876,3,-3,0,-3,-9,-3,-3,1,1,-105,6,220,-33,36,230,0,0,0,172,167,164,175,1,1146
14.237231016,3,-3,0,2,-3,0,-2,2,0,-179,171,219,-22,43,236,0,0,0,168,171,168,171,1,1147
14.248250007,3,-3,0,5,8,2,-1,2,0,136,168,223,-14,48,239,0,0,0,168,171,168,171,1,1148
14.26326704,3,-3,0,5,8,2,-1,2,0,136,168,223,-14,48,239,0,0,0,166,173,175,164,1,1149
14.270103931,3,-3,0,2,1,0,-1,1,0,136,168,223,-14,48,239,0,0,0,166,173,175,164,1,1150
14.288215875,3,-3,0,2,1,0,-1,1,0,109,47,234,-10,51,238,0,0,0,168,171,170,169,1,1151
14.299519062,3,-3,0,0,1,0,0,0,0,-66,-35,32,-11,51,234,0,0,0,168,171,170,169,1,1152
14.310154914,3,-3,0,-5,-3,-3,0,-1,0,-66,-35,32,-11,51,234,0,0,0,170,169,170,169,1,1153
14.321087837,3,-3,0,-5,-3,-3,0,-1,0,-66,-35,32,-11,51,234,0,0,0,173,166,167,172,1,1154
14.340118885,3,-3,0,1,3,0,0,-2,0,-74,-173,33,-16,51,228,0,0,0,169,170,171,168,1,1155
14.35157895,4,-3,0,0,2,2,0,-2,0,-61,-118,253,-20,51,222,0,0,0,169,170,171,168,1,1156
14.362305879,4,-3,0,0,2,2,0,-2,0,-61,-118,253,-20,51,222,0,0,0,169,170,171,168,1,1157
14.373184919,3,-3,0,-4,3,1,0,-1,0,-61,-118,253,-20,51,222,0,0,0,172,167,172,167,1,1158
14.391237974,4,-3,0,-4,3,1,0,-1,0,-55,17,17,-22,49,219,0,0,0,172,167,172,167,1,1159
14.403171062,4,-3,0,0,-4,-2,0,0,0,-10,3,205,-23,43,220,0,0,0,172,167,172,167,1,1160
14.415318966,4,-3,0,-1,-1,1,0,0,0,-10,3,205,-23,43,220,0,0,0,170,169,167,172,1,1161
14.424113035,4,-3,0,-1,-1,1,0,0,0,-10,3,205,-23,43,220,0,0,0,170,169,168,171,1,1162
14.444908857,4,-3,0,4,2,2,0,1,0,30,228,59,-25,29,223,0,0,0,167,172,171,168,1,1163
14.454292059,4,-3,0,5,1,0,0,1,0,78,153,201,-28,11,226,0,0,0,167,172,171,168,1,1164
14.465159893,4,-3,0,5,1,0,0,1,0,78,153,201,-28,11,226,0,0,0,166,173,170,169,1,1165
14.477082967,4,-3,0,0,4,0,0,2,0,78,153,201,-28,11,226,0,0,0,169,170,172,167,1,1166
14.494278907,4,-3,0,0,4,0,0,2,0,29,21,168,-36,-5,226,0,0,0,169,170,172,167,1,1167
14.505167961,4,-3,0,2,8,3,-1,1,0,-171,-9,72,-45,-16,224,0,0,0,169,170,172,167,1,1168
14.516157865,4,-3,0,2,8,3,-1,1,0,-171,-9,72,-45,-16,224,0,0,0,168,171,175,164,1,1169
14.527158022,4,-3,0,-1,-1,1,0,1,0,-171,-9,72,-45,-16,224,0,0,0,168,171,175,164,1,1170
14.54625988,4,-3,0,0,7,1,0,1,0,101,-235,178,-54,-15,221,0,0,0,170,169,174,165,1,1171
14.557174921,4,-3,0,-2,0,2,0,1,0,91,22,121,-58,-3,217,0,0,0,170,169,174,165,1,1172
14.568629026,4,-3,0,-2,0,2,0,1,0,91,22,121,-58,-3,217,0,0,0,171,168,170,169,1,1173
14.579130888,4,-3,0,-5,0,0,1,1,1,91,22,121,-58,-3,217,0,0,0,173,166,170,169,1,1174
14.598417997,4,-3,0,-5,0,0,1,1,1,76,131,203,-56,13,214,0,0,0,173,166,170,169,1,1175
14.60907197,4,-4,0,-2,-2,0,1,2,1,-145,128,184,-48,28,212,0,0,0,173,166,170,169,1,1176
14.620156049,4,-3,0,-4,0,0,1,3,1,-145,128,184,-48,28,212,0,0,0,171,168,168,171,1,1177
14.631424903,4,-3,0,-4,0,0,1,3,1,-145,128,184,-48,28,212,0,0,0,172,167,169,170,1,1178
14.649338007,4,-4,0,-2,-1,0,0,3,1,-24,190,204,-33,36,211,0,0,0,171,168,169,170,1,1179
14.66028285,4,-4,0,4,0,-1,0,3,1,179,15,105,-15,39,208,0,0,0,171,168,169,170,1,1180
14.671205043,4,-4,0,4,0,-1,0,3,1,179,15,105,-15,39,208,0,0,0,167,172,170,169,1,1181
14.68209505,4,-4,0,-1,2,0,-1,2,1,179,15,105,-15,39,208,0,0,0,171,168,171,168,1,1182
14.701172828,4,-4,0,-1,2,0,-1,2,1,-58,-17,110,1,39,206,0,0,0,171,168,171,168,1,1183
14.712318897,4,-4,0,-5,-2,-1,-2,1,0,-113,-48,105,16,44,204,0,0,0,171,168,171,168,1,1184
14.723181009,4,-4,0,1,3,0,-3,0,0,-113,-48,105,16,44,204,0,0,0,173,166,168,171,1,1185
14.734153986,4,-4,0,1,3,0,-3,0,0,-113,-48,105,16,44,204,0,0,0,169,170,171,168,1,1186
14.753101825,4,-3,0,-2,-9,-2,-3,0,0,25,-150,-69,25,54,205,0,0,0,171,168,164,175,1,1187
14.764189958,4,-3,0,4,0,-1,-2,0,0,79,-91,-31,28,68,210,0,0,0,171,168,164,175,1,1188
14.775302887,4,-3,0,4,0,-1,-2,0,0,79,-91,-31,28,68,210,0,0,0,167,172,169,170,1,1189
14.78621006,4,-3,0,1,-5,0,-2,-1,0,79,-91,-31,28,68,210,0,0,0,168,171,166,173,1,1190
14.804206848,4,-3,0,1,-5,0,-2,-1,0,-55,-37,13,25,79,216,0,0,0,168,171,166,173,1,1191
14.815243005,4,-3,0,-3,0,0,-1,-1,-1,-77,-107,249,17,82,215,0,0,0,168,171,166,173,1,1192
14.826092004,4,-3,0,0,4,-1,0,-1,-1,-77,-107,249,17,82,215,0,0,0,172,167,169,170,1,1193
14.837174892,4,-3,0,0,4,-1,0,-1,-1,-77,-107,249,17,82,215,0,0,0,170,169,172,167,1,1194
14.856112003,4,-3,0,7,3,0,0,-1,-1,-92,118,69,7,71,206,0,0,0,165,174,172,167,1,1195
14.867169857,5,-3,0,4,3,0,0,-1,-1,95,251,121,-2,47,189,0,0,0,165,174,172,167,1,1196
14.878458976,5,-3,0,4,3,0,0,-1,-1,95,251,121,-2,47,189,0,0,0,167,172,172,167,1,1197
14.889307975,5,-3,0,0,-5,-1,0,-1,-1,95,251,121,-2,47,189,0,0,0,170,169,166,173,1,1198
14.907982826,5,-3,0,0,-5,-1,0,-1,-1,-48,-192,-35,-12,16,171,0,0,0,170,169,166,173,1,1199
14.918230056,5,-3,0,-5,-3,-1,1,-1,0,-24,-216,22,-20,-13,159,0,0,0,170,169,166,173,1,1200
14.929191827,5,-3,0,-5,-3,-1,1,-1,0,-24,-216,22,-20,-13,159,0,0,0,173,166,167,172,1,1201
14.940271854,5,-3,0,1,4,0,1,0,0,-24,-216,22,-20,-13,159,0,0,0,169,170,172,167,1,1202
14.958217859,5,-3,0,1,4,0,1,0,0,49,117,68,-26,-34,156,0,0,0,169,170,172,167,1,1203
14.969151973,5,-3,0,-1,3,-1,1,0,0,66,158,51,-29,-45,161,0,0,0,169,170,172,167,1,1204
14.980300903,5,-3,0,-2,4,1,1,0,0,66,158,51,-29,-45,161,0,0,0,170,169,171,168,1,1205
14.991266965,5,-3,0,-2,4,1,1,0,0,66,158,51,-29,-45,161,0,0,0,171,168,172,167,1,1206
15.010243892,4,-3,0,-6,-1,0,1,1,0,-80,35,235,-28,-46,166,0,0,0,173,166,169,170,1,1207
15.021204948,4,-3,0,0,0,2,0,1,0,121,160,100,-24,-38,167,0,0,0,173,166,169,170,1,1208
15.032222986,4,-3,0,0,0,2,0,1,0,121,160,100,-24,-38,167,0,0,0,169,170,169,170,1,1209
15.043486833,4,-3,0,3,0,3,0,1,0,121,160,100,-24,-38,167,0,0,0,169,170,169,170,1,1210
15.061168909,4,-3,0,3,0,3,0,1,0,-14,209,53,-16,-24,162,0,0,0,168,171,169,170,1,1211
15.072115898,4,-3,0,-2,-2,2,-1,1,0,-39,-56,110,-6,-3,150,0,0,0,168,171,169,170,1,1212
15.083214998,4,-3,0,3,0,0,-1,1,0,-39,-56,110,-6,-3,150,0,0,0,171,168,168,171,1,1213
15.094162941,4,-3,0,3,0,0,-1,1,0,-39,-56,110,-6,-3,150,0,0,0,171,168,168,171,1,1214
15.11312294,3,-3,0,-1,-2,0,-2,1,0,28,100,46,4,21,138,0,0,0,170,169,168,171,1,1215
15.124368906,3,-3,0,0,2,0,-2,0,0,-64,-31,-83,13,48,128,0,0,0,170,169,168,171,1,1216
15.135290861,3,-3,0,0,2,0,-2,0,0,-64,-31,-83,13,48,128,0,0,0,170,169,171,168,1,1217
15.146167039,3,-3,0,0,-5,-5,-1,0,1,-64,-31,-83,13,48,128,0,0,0,169,170,166,173,1,1218
15.164211034,4,-3,0,0,-5,-5,-1,0,1,244,217,214,20,73,126,0,0,0,169,170,166,173,1,1219
15.175320863,4,-3,0,0,-3,-5,0,0,1,82,-52,83,23,92,130,0,0,0,169,170,166,173,1,1220
15.186123848,4,-3,0,3,4,3,0,0,1,82,-52,83,23,92,130,0,0,0,170,169,167,172,1,1221
15.197348833,4,-3,0,3,4,3,0,0,1,82,-52,83,23,92,130,0,0,0,167,172,172,167,1,1222
15.216234922,4,-2,0,-4,0,-3,0,-1,0,-159,-26,24,23,102,139,0,0,0,172,167,170,169,1,1223
15.227149009,5,-2,0,0,1,0,0,-1,0,-106,118,183,24,103,147,0,0,0,172,167,170,169,1,1224
15.238442897,5,-2,0,0,1,0,0,-1,0,-106,118,183,24,103,147,0,0,0,170,169,170,169,1,1225
15.249333858,5,-2,0,-2,0,-1,0,-1,0,-106,118,183,24,103,147,0,0,0,171,168,169,170,1,1226
15.26712799,5,-2,0,-2,0,-1,0,-1,0,64,-6,122,24,96,151,0,0,0,171,168,169,170,1,1227
15.27845788,6,-2,0,2,-8,0,0,-1,-1,89,47,-34,25,82,149,0,0,0,171,168,169,170,1,1228
15.289121866,6,-2,0,2,-8,0,0,-1,-1,89,47,-34,25,82,149,0,0,0,168,171,165,174,1,1229
15.299339056,6,-2,0,4,0,1,0,-1,-2,89,47,-34,25,82,149,0,0,0,168,171,165,174,1,1230
15.318258047,6,-2,0,0,6,1,0,0,-2,-32,-119,203,23,65,142,0,0,0,170,169,174,165,1,1231
15.329115867,6,-1,0,-1,6,1,0,0,-2,-80,34,51,18,48,130,0,0,0,170,169,174,165,1,1232
15.340145826,6,-1,0,-1,6,1,0,0,-2,-80,34,51,18,48,130,0,0,0,170,169,174,165,1,1233
15.351155996,6,-1,0,0,-2,-1,0,0,-1,-80,34,51,18,48,130,0,0,0,170,169,168,171,1,1234
15.369333982,7,-1,0,0,-2,-1,0,0,-1,37,122,198,12,32,117,0,0,0,170,169,168,171,1,1235
15.380295038,7,-1,0,2,0,1,0,0,-1,72,119,-75,6,19,107,0,0,0,170,169,168,171,1,1236
15.391185045,7,-1,0,0,-1,0,0,0,0,72,119,-75,6,19,107,0,0,0,168,171,169,170,1,1237
15.402176857,7,-1,0,0,-1,0,0,0,0,72,119,-75,6,19,107,0,0,0,170,169,169,170,1,1238
15.421213865,7,-1,0,-4,4,0,0,0,0,37,102,220,0,10,104,0,0,0,172,167,172,167,1,1239
15.432147026,7,-1,0,0,-3,1,0,0,0,-89,-74,151,-4,6,108,0,0,0,172,167,172,167,1,1240
15.443322897,7,-1,0,0,-3,1,0,0,0,-89,-74,151,-4,6,108,0,0,0,169,170,168,171,1,1241
15.458225965,7,-1,0,-2,-3,-1,0,1,1,-89,-74,151,-4,6,108,0,0,0,171,168,168,171,1,1242
15.473079919,7,-1,0,-2,-3,-1,0,1,1,59,40,157,-5,10,117,0,0,0,171,168,168,171,1,1243
15.484241962,7,-1,0,-4,0,0,0,1,1,197,116,129,-3,19,129,0,0,0,171,168,168,171,1,1244
15.49516201,7,-1,0,0,1,1,0,1,0,197,116,129,-3,19,129,0,0,0,172,167,170,169,1,1245
15.506088018,7,-1,0,0,1,1,0,1,0,197,116,129,-3,19,129,0,0,0,169,170,171,168,1,1246
15.524296999,7,-1,0,-5,0,-1,0,0,0,163,8,183,0,32,140,0,0,0,173,166,170,169,1,1247
15.535198927,7,-1,0,2,-2,1,-1,0,0,-14,-32,94,8,44,149,0,0,0,173,166,170,169,1,1248
15.546177864,7,-1,0,2,-2,1,-1,0,0,-14,-32,94,8,44,149,0,0,0,168,171,168,171,1,1249
15.557181835,7,-1,0,1,1,0,-1,0,0,-14,-32,94,8,44,149,0,0,0,168,171,168,171,1,1250
15.576319933,7,-1,0,1,1,0,-1,0,0,-129,-61,208,19,53,155,0,0,0,169,170,171,168,1,1251
15.587220907,7,0,0,-1,4,0,-2,0,0,-156,46,205,33,58,160,0,0,0,169,170,171,168,1,1252
15.598142862,7,0,0,3,0,-2,-2,0,0,-156,46,205,33,58,160,0,0,0,170,169,172,167,1,1253
15.609124899,7,0,0,3,0,-2,-2,0,0,-156,46,205,33,58,160,0,0,0,168,171,169,170,1,1254
15.62834692,7,0,0,-5,-2,-3,-2,0,0,148,4,169,46,56,167,0,0,0,173,166,168,171,1,1255
15.643157005,8,0,0,3,1,2,-1,0,0,7,-189,31,54,47,176,0,0,0,173,166,168,171,1,1256
15.650074958,8,0,0,3,1,2,-1,0,0,7,-189,31,54,47,176,0,0,0,167,172,171,168,1,1257
15.661211013,7,0,0,-3,1,2,-1,0,0,7,-189,31,54,47,176,0,0,0,167,172,171,168,1,1258
15.679095983,8,0,0,-3,1,2,-1,0,0,180,-1,101,54,34,188,0,0,0,172,167,170,169,1,1259
15.691459894,8,0,0,-1,2,2,0,0,0,156,120,16,46,17,200,0,0,0,172,167,170,169,1,1260
15.701717853,8,0,0,-1,2,2,0,0,0,156,120,16,46,17,200,0,0,0,170,169,171,168,1,1261
15.712110042,8,0,0,4,2,0,0,0,0,156,120,16,46,17,200,0,0,0,167,172,171,168,1,1262
15.730254888,8,0,0,4,2,0,0,0,0,-138,-145,248,34,0,211,0,0,0,167,172,171,168,1,1263
15.741353988,8,0,0,0,-2,1,0,1,0,22,-202,60,24,-18,219,0,0,0,167,172,171,168,1,1264
15.752150058,7,0,0,-2,-2,0,0,1,0,22,-202,60,24,-18,219,0,0,0,169,170,168,171,1,1265
15.763735056,7,0,0,-2,-2,0,0,1,0,22,-202,60,24,-18,219,0,0,0,171,168,168,171,1,1266
15.782243013,7,0,0,4,2,-1,0,1,0,94,-12,29,19,-32,224,0,0,0,167,172,171,168,1,1267
15.793813943,7,0,0,-1,-1,-1,0,1,0,-10,65,83,20,-42,227,0,0,0,167,172,171,168,1,1268
15.804152011,7,0,0,-1,-1,-1,0,1,0,-10,65,83,20,-42,227,0,0,0,170,169,169,170,1,1269
15.815485,7,0,0,2,12,3,0,0,0,-10,65,83,20,-42,227,0,0,0,170,169,169,170,1,1270
15.833385944,7,0,0,2,12,3,0,0,0,34,172,172,25,-50,231,0,0,0,168,171,177,162,1,1271
15.844106912,6,1,0,-5,-1,-3,0,0,1,-34,58,17,32,-55,237,0,0,0,168,171,177,162,1,1272
15.855268001,6,1,0,-8,0,1,0,0,0,-34,58,17,32,-55,237,0,0,0,173,166,169,170,1,1273
15.866178035,6,1,0,-8,0,1,0,0,0,-34,58,17,32,-55,237,0,0,0,175,164,169,170,1,1274
15.885423898,6,1,0,-2,0,0,0,0,0,40,32,219,37,-54,247,0,0,0,171,168,169,170,1,1275
15.899303913,6,1,0,-7,-4,0,0,0,0,230,57,200,39,-46,4,0,0,0,171,168,169,170,1,1276
15.907217025,6,1,0,-7,-4,0,0,0,0,230,57,200,39,-46,4,0,0,0,174,165,167,172,1,1277
15.918314933,6,1,0,0,1,3,0,1,0,230,57,200,39,-46,4,0,0,0,169,170,170,169,1,1278
15.936167955,5,1,0,0,1,3,0,1,0,-14,-88,225,39,-29,16,0,0,0,169,170,170,169,1,1279
15.947293996,5,1,0,3,3,4,-1,1,0,-163,-165,75,37,-6,22,0,0,0,169,170,170,169,1,1280
15.95808506,5,1,0,0,0,-1,-2,1,0,-163,-165,75,37,-6,22,0,0,0,167,172,172,167,1,1281
15.969234943,5,1,0,0,0,-1,-2,1,0,-163,-165,75,37,-6,22,0,0,0,170,169,170,169,1,1282
15.988232851,5,1,0,6,3,1,-3,1,0,24,47,120,35,16,20,0,0,0,166,173,171,168,1,1283
15.999290943,5,1,0,0,4,0,-4,0,0,69,134,191,33,34,12,0,0,0,166,173,171,168,1,1284
16.010139942,5,1,0,0,4,0,-4,0,0,69,134,191,33,34,12,0,0,0,170,169,172,167,1,1285
16.021122932,4,1,0,4,1,-1,-3,0,0,69,134,191,33,34,12,0,0,0,167,172,170,169,1,1286
16.039556026,5,1,0,4,1,-1,-3,0,0,-30,-33,126,31,42,1,0,0,0,167,172,170,169,1,1287
16.050292015,4,2,0,2,-5,-1,-2,0,1,-164,73,18,27,39,248,0,0,0,167,172,170,169,1,1288
16.061239957,4,2,0,2,-5,-1,-2,0,1,-164,73,18,27,39,248,0,0,0,168,171,166,173,1,1289
16.072177887,4,2,0,0,-5,-2,0,0,1,-164,73,18,27,39,248,0,0,0,168,171,166,173,1,1290
16.091227054,4,2,0,0,-5,-2,0,0,1,-192,158,230,21,30,241,0,0,0,169,170,166,173,1,1291
16.10306096,5,2,0,-5,0,0,0,1,1,-5,241,180,11,18,238,0,0,0,169,170,166,173,1,1292
16.113137006,5,2,0,-5,0,0,0,1,1,-5,241,180,11,18,238,0,0,0,173,166,169,170,1,1293
16.124171018,4,2,0,0,-1,0,2,1,0,-5,241,180,11,18,238,0,0,0,173,166,169,170,1,1294
16.142158031,5,2,0,0,-1,0,2,1,0,50,11,255,-1,11,237,0,0,0,170,169,168,171,1,1295
16.153138876,5,2,0,-6,-4,-3,3,1,0,-111,-181,10,-19,12,236,0,0,0,170,169,168,171,1,1296
16.164198875,5,2,0,-6,-4,-3,3,1,0,-111,-181,10,-19,12,236,0,0,0,174,165,167,172,1,1297
16.175268888,4,2,0,-8,5,1,3,0,0,-111,-181,10,-19,12,236,0,0,0,174,165,167,172,1,1298
16.193073034,5,2,0,-8,5,1,3,0,0,-222,-248,133,-38,22,235,0,0,0,174,165,173,166,1,1299
16.204143047,5,2,0,1,6,1,2,0,-1,-195,0,15,-56,37,234,0,0,0,174,165,173,166,1,1300
16.215241909,5,2,0,1,6,1,2,0,-1,-195,0,15,-56,37,234,0,0,0,169,170,173,166,1,1301
16.226416826,5,2,0,4,0,1,0,-1,-1,-195,0,15,-56,37,234,0,0,0,167,172,169,170,1,1302
16.244279861,5,1,0,4,0,1,0,-1,-1,-60,-100,183,-72,49,234,0,0,0,167,172,169,170,1,1303
16.259059906,5,1,0,4,-7,0,-1,-1,-1,-29,133,128,-85,48,237,0,0,0,167,172,169,170,1,1304
16.266088962,5,1,0,0,-4,1,-2,-1,-1,-29,133,128,-85,48,237,0,0,0,167,172,165,174,1,1305
16.277101993,5,1,0,0,-4,1,-2,-1,-1,-29,133,128,-85,48,237,0,0,0,169,170,167,172,1,1306
16.296169996,5,1,0,10,3,5,-3,-1,0,-126,-47,44,-97,29,244,0,0,0,163,176,172,167,1,1307
16.307155847,5,0,0,-3,-3,1,-3,0,0,202,-76,230,-106,-3,251,0,0,0,163,176,172,167,1,1308
16.318058014,5,0,0,-3,-3,1,-3,0,0,202,-76,230,-106,-3,251,0,0,0,171,168,167,172,1,1309
16.329237938,4,0,0,3,-1,-2,-2,0,0,202,-76,230,-106,-3,251,0,0,0,171,168,167,172,1,1310
16.348163843,4,0,0,3,-1,-2,-2,0,0,46,-75,111,-111,-43,0,0,0,0,167,172,169,170,1,1311
16.359228849,4,0,0,0,3,0,0,0,0,-68,-209,166,-110,-78,0,0,0,0,167,172,169,170,1,1312
16.36916089,4,0,0,-5,1,0,1,0,1,-68,-209,166,-110,-78,0,0,0,0,169,170,172,167,1,1313
16.380373954,4,0,0,-5,1,0,1,0,1,-68,-209,166,-110,-78,0,0,0,0,173,166,170,169,1,1314
16.400087833,4,0,0,0,6,4,3,0,1,14,-243,194,-100,-104,252,0,0,0,169,170,174,165,1,1315
16.410142898,4,0,0,-11,-5,1,4,0,1,-101,-12,74,-80,-116,242,0,0,0,169,170,174,165,1,1316
16.42118287,4,0,0,-11,-5,1,4,0,1,-101,-12,74,-80,-116,242,0,0,0,176,163,166,173,1,1317
16.432194948,4,0,0,-2,-4,-2,3,0,1,-101,-12,74,-80,-116,242,0,0,0,171,168,167,172,1,1318
16.451231002,3,-1,0,-2,-4,-2,3,0,1,-36,124,159,-54,-119,229,0,0,0,171,168,167,172,1,1319
16.462090015,3,-1,0,4,1,-1,2,0,1,-99,28,30,-27,-116,214,0,0,0,171,168,167,172,1,1320
16.473162889,3,-1,0,4,1,-1,2,0,1,-99,28,30,-27,-116,214,0,0,0,167,172,170,169,1,1321
16.484042883,3,-1,0,0,0,-2,0,0,0,-99,28,30,-27,-116,214,0,0,0,169,170,169,170,1,1322
16.502151012,2,-1,0,0,0,-2,0,0,0,-14,-91,143,-5,-109,202,0,0,0,169,170,169,170,1,1323
16.513188839,2,-1,0,-4,0,-4,-1,0,0,-46,-125,59,6,-98,195,0,0,0,169,170,169,170,1,1324
16.524198055,2,-1,0,3,4,3,-2,0,0,-46,-125,59,6,-98,195,0,0,0,172,167,170,169,1,1325
16.536013841,2,-1,0,3,4,3,-2,0,0,-46,-125,59,6,-98,195,0,0,0,167,172,172,167,1,1326
16.554270029,1,-1,0,-2,6,-1,-3,0,0,33,-24,106,8,-83,196,0,0,0,171,168,173,166,1,1327
16.565160989,0,-1,0,2,-1,-3,-3,0,0,77,-192,17,1,-66,204,0,0,0,171,168,173,166,1,1328
16.576215028,0,-1,0,2,-1,-3,-3,0,0,77,-192,17,1,-66,204,0,0,0,168,171,169,170,1,1329
16.587178945,0,-1,0,-3,-3,-1,-2,0,0,77,-192,17,1,-66,204,0,0,0,168,171,169,170,1,1330
16.605123996,0,-1,0,-3,-3,-1,-2,0,0,-23,-29,226,-8,-51,218,0,0,0,171,168,167,172,1,1331
16.616201877,0,-1,0,1,-2,0,-1,0,-1,0,54,125,-15,-41,231,0,0,0,171,168,167,172,1,1332
16.627636909,0,-1,0,3,-6,0,0,0,-1,0,54,125,-15,-41,231,0,0,0,169,170,168,171,1,1333
16.638131857,0,-1,0,3,-6,0,0,0,-1,0,54,125,-15,-41,231,0,0,0,167,172,165,174,1,1334
16.657212972,0,-1,0,0,5,3,0,0,-1,138,7,49,-13,-37,240,0,0,0,170,169,173,166,1,1335
16.668553829,0,-1,0,2,5,2,1,0,-1,72,24,25,-3,-38,241,0,0,0,170,169,173,166,1,1336
16.679219007,0,-1,0,2,5,2,1,0,-1,72,24,25,-3,-38,241,0,0,0,168,171,173,166,1,1337
16.691267967,0,-1,0,-5,2,-3,1,0,-1,72,24,25,-3,-38,241,0,0,0,173,166,171,168,1,1338
16.70817995,0,-1,0,-5,2,-3,1,0,-1,74,15,71,13,-39,235,0,0,0,173,166,171,168,1,1339
16.719499826,0,-1,0,-1,2,1,1,0,-1,-7,-168,119,33,-32,225,0,0,0,173,166,171,168,1,1340
16.730149984,0,-1,0,-1,2,1,1,0,-1,-7,-168,119,33,-32,225,0,0,0,170,169,171,168,1,1341
16.741142988,0,-1,0,-5,-2,-1,1,0,0,-7,-168,119,33,-32,225,0,0,0,173,166,168,171,1,1342
16.760273933,0,-1,0,-5,-2,-1,1,0,0,-56,-243,71,53,-15,216,0,0,0,173,166,168,171,1,1343
16.771199941,0,-1,0,2,-7,0,0,0,0,96,24,189,68,10,214,0,0,0,173,166,168,171,1,1344
16.782379865,0,-1,0,0,-1,1,0,0,0,96,24,189,68,10,214,0,0,0,168,171,165,174,1,1345
16.793109893,0,-1,0,0,-1,1,0,0,0,96,24,189,68,10,214,0,0,0,169,170,169,170,1,1346
16.819174051,0,-1,0,8,-7,-2,0,0,0,-98,72,210,76,35,222,0,0,0,164,175,165,174,1,1347
16.823164939,0,0,0,0,2,-2,-1,0,0,-24,144,32,75,51,238,0,0,0,164,175,165,174,1,1348
16.834095001,0,0,0,0,2,-2,-1,0,0,-24,144,32,75,51,238,0,0,0,169,170,171,168,1,1349
16.845098972,0,0,0,2,0,0,-1,0,0,-24,144,32,75,51,238,0,0,0,169,170,171,168,1,1350
16.863267898,0,0,0,2,0,0,-1,0,0,-66,163,133,66,53,2,0,0,0,168,171,169,170,1,1351
16.874389886,0,0,0,5,-4,-2,-1,0,0,92,197,38,49,45,21,0,0,0,168,171,169,170,1,1352
16.885124921,0,0,0,-1,-1,-2,0,-1,0,92,197,38,49,45,21,0,0,0,166,173,167,172,1,1353
16.896114826,0,0,0,-1,-1,-2,0,-1,0,92,197,38,49,45,21,0,0,0,171,168,169,170,1,1354
16.915350914,0,0,0,3,-1,-3,0,-2,0,63,-36,151,28,32,36,0,0,0,167,172,169,170,1,1355
16.926167011,0,0,0,-7,3,1,2,-2,-1,-94,-18,22,7,23,44,0,0,0,167,172,169,170,1,1356
16.938516855,0,0,0,-7,3,1,2,-2,-1,-94,-18,22,7,23,44,0,0,0,174,165,172,167,1,1357
16.948396921,0,0,0,-3,0,2,3,-3,-1,-94,-18,22,7,23,44,0,0,0,174,165,172,167,1,1358
16.967242002,0,0,0,-3,0,2,3,-3,-1,-112,-79,245,-10,22,47,0,0,0,171,168,169,170,1,1359
16.977097034,0,0,0,0,0,1,3,-2,-1,73,134,152,-22,25,43,0,0,0,171,168,169,170,1,1360
16.988219022,0,0,0,0,0,1,3,-2,-1,73,134,152,-22,25,43,0,0,0,169,170,169,170,1,1361
16.999171972,0,0,0,0,0,1,2,-2,-1,73,134,152,-22,25,43,0,0,0,169,170,170,169,1,1362
17.017138958,0,0,0,0,0,1,2,-2,-1,-19,184,106,-27,28,34,0,0,0,169,170,170,169,1,1363
17.028213977,0,0,0,-3,0,2,1,-1,-1,-223,67,136,-27,22,21,0,0,0,169,170,170,169,1,1364
17.039145946,0,0,0,6,3,0,0,0,0,-223,67,136,-27,22,21,0,0,0,171,168,169,170,1,1365
17.05026102,0,0,0,6,3,0,0,0,0,-223,67,136,-27,22,21,0,0,0,166,173,172,167,1,1366
17.069237947,0,0,0,0,-1,-1,0,0,0,-150,5,115,-25,9,3,0,0,0,170,169,169,170,1,1367
17.080227851,0,0,0,0,2,0,-1,0,0,-39,-94,125,-24,-5,238,0,0,0,170,169,169,170,1,1368
17.091526985,0,0,0,0,2,0,-1,0,0,-39,-94,125,-24,-5,238,0,0,0,169,170,171,168,1,1369
17.102251052,0,0,0,-3,0,0,-2,0,1,-39,-94,125,-24,-5,238,0,0,0,169,170,171,168,1,1370
17.120172977,0,0,0,-3,0,0,-2,0,1,-141,-246,162,-27,-18,215,0,0,0,171,168,169,170,1,1371
17.131114959,0,0,0,0,-6,-2,-1,0,1,-238,-205,83,-36,-24,194,0,0,0,171,168,169,170,1,1372
17.142143011,0,0,0,6,2,5,-1,0,1,-238,-205,83,-36,-24,194,0,0,0,170,169,165,174,1,1373
17.153215885,0,0,0,6,2,5,-1,0,1,-238,-205,83,-36,-24,194,0,0,0,166,173,171,168,1,1374
17.17377305,0,0,0,1,0,-5,0,0,1,69,-130,180,-51,-27,177,0,0,0,169,170,169,170,1,1375
17.183171033,0,0,0,1,1,-3,0,0,0,155,6,12,-70,-30,169,0,0,0,169,170,169,170,1,1376
17.194185018,0,0,0,1,1,-3,0,0,0,155,6,12,-70,-30,169,0,0,0,168,171,171,168,1,1377
17.205201864,0,0,0,-3,0,1,1,0,0,155,6,12,-70,-30,169,0,0,0,172,167,170,169,1,1378
17.224134922,0,-1,0,-3,0,1,1,0,0,146,223,180,-89,-39,172,0,0,0,172,167,170,169,1,1379
17.235265016,0,-1,0,-2,2,-2,1,0,0,-114,150,93,-103,-52,184,0,0,0,172,167,170,169,1,1380
17.246146917,0,-1,0,-2,2,-2,1,0,0,-114,150,93,-103,-52,184,0,0,0,171,168,171,168,1,1381
17.257964849,0,-1,0,2,2,2,1,0,0,-114,150,93,-103,-52,184,0,0,0,168,171,171,168,1,1382
17.275281906,0,-1,0,2,2,2,1,0,0,93,-144,45,-104,-67,202,0,0,0,168,171,171,168,1,1383
17.286190033,0,-2,0,6,0,2,1,0,-1,177,-118,27,-91,-75,222,0,0,0,168,171,171,168,1,1384
17.297091961,0,-2,0,0,5,0,1,0,-1,177,-118,27,-91,-75,222,0,0,0,166,173,169,170,1,1385
17.308130979,0,-2,0,0,5,0,1,0,-1,177,-118,27,-91,-75,222,0,0,0,169,170,173,166,1,1386
17.327085018,0,-2,0,2,-2,4,0,0,-1,145,-200,17,-63,-72,241,0,0,0,168,171,168,171,1,1387
17.338183879,-1,-2,0,-2,-2,-3,0,0,0,12,-111,13,-27,-60,1,0,0,0,168,171,168,171,1,1388
17.349354028,-1,-2,0,-2,-2,-3,0,0,0,12,-111,13,-27,-60,1,0,0,0,171,168,168,171,1,1389
17.360152006,-1,-2,0,2,0,0,0,1,0,12,-111,13,-27,-60,1,0,0,0,171,168,168,171,1,1390
17.37826991,-1,-2,0,2,0,0,0,1,0,-109,15,93,13,-43,12,0,0,0,168,171,169,170,1,1391
17.389097929,-1,-2,0,3,0,3,0,1,0,11,24,185,52,-30,15,0,0,0,168,171,169,170,1,1392
17.400307893,-1,-2,0,2,6,0,1,1,1,11,24,185,52,-30,15,0,0,0,167,172,169,170,1,1393
17.41139388,-1,-2,0,2,6,0,1,1,1,11,24,185,52,-30,15,0,0,0,168,171,173,166,1,1394
17.430310011,-1,-2,0,1,-4,5,1,1,1,53,235,96,82,-25,11,0,0,0,168,171,167,172,1,1395
17.441128015,-1,-2,0,-5,-5,-2,1,0,1,-47,-97,204,98,-27,2,0,0,0,168,171,167,172,1,1396
17.452715873,-1,-2,0,-5,-5,-2,1,0,1,-47,-97,204,98,-27,2,0,0,0,173,166,166,173,1,1397
17.46307683,-1,-2,0,0,-2,4,2,0,1,-47,-97,204,98,-27,2,0,0,0,169,170,168,171,1,1398
17.481158971,-1,-2,0,0,-2,4,2,0,1,-91,-189,95,99,-33,245,0,0,0,169,170,168,171,1,1399
17.49217391,-1,-1,0,-1,2,0,1,0,1,-45,-171,41,84,-36,231,0,0,0,169,170,168,171,1,1400
17.503167867,-1,-1,0,-4,5,-2,1,0,1,-45,-171,41,84,-36,231,0,0,0,170,169,171,168,1,1401
17.514082908,-1,-1,0,-4,5,-2,1,0,1,-45,-171,41,84,-36,231,0,0,0,172,167,173,166,1,1402
17.533166885,-2,-1,0,-3,5,-1,1,-1,1,-26,174,28,59,-36,219,0,0,0,172,167,173,166,1,1403
17.544148922,-2,-1,0,-2,4,-2,0,-1,1,29,210,211,28,-34,210,0,0,0,172,167,173,166,1,1404
17.555266857,-2,-1,0,-2,4,-2,0,-1,1,29,210,211,28,-34,210,0,0,0,171,168,172,167,1,1405
17.566356897,-2,-1,0,5,-1,0,0,0,1,29,210,211,28,-34,210,0,0,0,166,173,168,171,1,1406
17.58434987,-2,0,0,5,-1,0,0,0,1,51,35,37,-2,-31,206,0,0,0,166,173,168,171,1,1407
17.595185995,-2,0,0,0,-2,3,-1,0,0,158,-65,26,-29,-26,206,0,0,0,166,173,168,171,1,1408
17.611403942,-2,0,0,0,-2,3,-1,0,0,158,-65,26,-29,-26,206,0,0,0,169,170,168,171,1,1409
17.617584943,-2,0,0,0,-7,-3,-2,0,0,158,-65,26,-29,-26,206,0,0,0,169,170,168,171,1,1410
17.636294841,-2,0,0,0,-7,-3,-2,0,0,90,-89,95,-45,-18,209,0,0,0,170,169,165,174,1,1411
17.647214889,-2,0,0,-1,-5,-2,-2,1,0,-136,-174,111,-49,-6,213,0,0,0,170,169,165,174,1,1412
17.659008026,-2,0,0,5,0,-3,-2,2,0,-136,-174,111,-49,-6,213,0,0,0,170,169,166,173,1,1413
17.669185876,-2,0,0,5,0,-3,-2,2,0,-136,-174,111,-49,-6,213,0,0,0,166,173,169,170,1,1414
17.688153982,-2,0,0,-3,0,1,-1,1,0,-134,-57,229,-39,6,219,0,0,0,172,167,170,169,1,1415
17.699568986,-2,-1,0,2,4,0,0,0,-1,-88,100,248,-20,15,227,0,0,0,172,167,170,169,1,1416
17.710566043,-2,-1,0,2,4,0,0,0,-1,-88,100,248,-20,15,227,0,0,0,168,171,172,167,1,1417
17.721140861,-2,-1,0,-5,-1,-6,0,0,-1,-88,100,248,-20,15,227,0,0,0,168,171,172,167,1,1418
17.739140987,-2,-1,0,-5,-1,-6,0,0,-1,67,177,175,1,15,235,0,0,0,173,166,169,170,1,1419
17.750174999,-2,-1,0,-2,-5,-3,0,-1,-1,-47,-67,178,18,8,241,0,0,0,173,166,169,170,1,1420
17.763309955,-2,-1,0,-2,-5,-3,0,-1,-1,-47,-67,178,18,8,241,0,0,0,171,168,166,173,1,1421
17.77216196,-2,-1,0,3,-1,-1,1,-2,-1,-47,-67,178,18,8,241,0,0,0,171,168,166,173,1,1422
17.791153907,-2,-1,0,-3,-8,-1,1,-2,-1,-127,-56,186,24,-2,244,0,0,0,172,167,164,175,1,1423
17.802142858,-2,-1,0,3,0,0,0,-2,-1,-183,27,155,19,-13,242,0,0,0,172,167,164,175,1,1424
17.81329298,-2,-1,0,3,0,0,0,-2,-1,-183,27,155,19,-13,242,0,0,0,167,172,169,170,1,1425
17.827214956,-2,-1,0,-3,-2,0,0,-2,-2,-183,27,155,19,-13,242,0,0,0,171,168,168,171,1,1426
17.842172861,-2,-1,0,-3,-2,0,0,-2,-2,2,-1,158,4,-18,236,0,0,0,171,168,168,171,1,1427
17.853155851,-2,-1,0,-1,-3,0,0,-1,-2,-126,137,218,-17,-18,229,0,0,0,171,168,168,171,1,1428
17.864161014,-2,-1,0,-1,-3,0,0,-1,-2,-126,137,218,-17,-18,229,0,0,0,170,169,167,172,1,1429
17.875162839,-2,-1,0,5,6,3,-1,-1,-2,-126,137,218,-17,-18,229,0,0,0,166,173,173,166,1,1430
17.893142938,-2,-1,0,5,6,3,-1,-1,-2,-189,-9,42,-42,-14,222,0,0,0,166,173,173,166,1,1431
17.90410304,-2,-1,0,5,6,3,-1,-1,-2,-177,-113,181,-66,-5,217,0,0,0,166,173,173,166,1,1432
17.91523695,-2,-1,0,5,6,3,-1,-1,-2,-177,-113,181,-66,-5,217,0,0,0,166,173,173,166,1,1433
17.926250934,-2,-1,0,1,-6,1,-1,-2,-1,-177,-113,181,-66,-5,217,0,0,0,169,170,165,174,1,1434
17.945180893,-2,-1,0,1,-6,1,-1,-2,-1,34,-33,79,-88,4,214,0,0,0,169,170,165,174,1,1435
17.9560709,-2,-1,0,-3,-4,0,0,-2,0,34,-20,250,-105,14,211,0,0,0,169,170,165,174,1,1436
17.967108011,-2,-1,0,0,2,-2,0,-1,0,34,-20,250,-105,14,211,0,0,0,172,167,167,172,1,1437
17.978402853,-2,-1,0,0,2,-2,0,-1,0,34,-20,250,-105,14,211,0,0,0,170,169,171,168,1,1438
17.997180938,-2,-2,0,2,0,0,0,-1,0,-32,9,44,-117,19,208,0,0,0,168,171,170,169,1,1439
18.008466959,-2,-2,0,4,8,3,1,0,1,-104,-154,17,-121,19,205,0,0,0,168,171,170,169,1,1440
18.01921606,-2,-2,0,4,8,3,1,0,1,-104,-154,17,-121,19,205,0,0,0,167,172,174,165,1,1441
18.030103921,-1,-2,0,0,-1,-4,1,0,1,-104,-154,17,-121,19,205,0,0,0,170,169,169,170,1,1442
18.0480659,-1,-3,0,0,-1,-4,1,0,1,-12,43,132,-117,13,205,0,0,0,170,169,169,170,1,1443
18.059094905,-1,-3,0,-8,-4,1,1,0,1,61,102,206,-104,2,209,0,0,0,170,169,169,170,1,1444
18.070077896,-1,-3,0,0,1,1,1,0,1,61,102,206,-104,2,209,0,0,0,175,164,167,172,1,1445
18.081203937,-1,-3,0,0,1,1,1,0,1,61,102,206,-104,2,209,0,0,0,169,170,171,168,1,1446
18.10017395,-1,-3,0,0,0,-1,1,0,0,-162,40,55,-86,-11,217,0,0,0,170,169,170,169,1,1447
18.111330032,-1,-4,0,-6,0,-1,0,0,0,-109,74,44,-65,-23,227,0,0,0,170,169,170,169,1,1448
18.122190952,-1,-4,0,-6,0,-1,0,0,0,-109,74,44,-65,-23,227,0,0,0,174,165,170,169,1,1449
18.133081913,-1,-4,0,0,1,0,0,0,0,-109,74,44,-65,-23,227,0,0,0,174,165,170,169,1,1450
18.151118993,-1,-4,0,0,1,0,0,0,0,20,55,57,-46,-30,236,0,0,0,169,170,170,169,1,1451
18.162168026,-1,-4,0,1,1,0,-1,0,0,63,92,64,-31,-29,244,0,0,0,169,170,170,169,1,1452
18.174310922,-1,-4,0,-1,-3,-1,-1,0,0,63,92,64,-31,-29,244,0,0,0,169,170,170,169,1,1453
18.184398889,-1,-4,0,-1,-3,-1,-1,0,0,63,92,64,-31,-29,244,0,0,0,171,168,168,171,1,1454
18.203081846,-1,-4,0,2,4,0,-2,0,0,132,-49,78,-23,-18,251,0,0,0,168,171,172,167,1,1455
18.214143037,-1,-4,0,2,-1,4,-2,0,0,110,-3,188,-21,0,2,0,0,0,168,171,172,167,1,1456
18.225147009,-1,-4,0,2,-1,4,-2,0,0,110,-3,188,-21,0,2,0,0,0,168,171,169,170,1,1457
18.236103057,-1,-4,0,1,0,-2,-2,0,0,110,-3,188,-21,0,2,0,0,0,169,170,169,170,1,1458
18.254302024,-1,-4,0,1,0,-2,-2,0,0,3,48,79,-20,20,10,0,0,0,169,170,169,170,1,1459
18.265275001,-1,-4,0,0,4,1,-1,0,0,-54,113,147,-17,39,19,0,0,0,169,170,169,170,1,1460
18.276146888,-1,-4,0,-5,1,-2,0,0,0,-54,113,147,-17,39,19,0,0,0,170,169,172,167,1,1461
18.288141965,-1,-4,0,-5,1,-2,0,0,0,-54,113,147,-17,39,19,0,0,0,173,166,170,169,1,1462
18.306089878,-1,-4,0,0,8,2,0,0,0,-15,185,67,-8,53,28,0,0,0,170,169,175,164,1,1463
18.317100048,-1,-4,0,0,-2,0,0,0,0,-45,22,71,4,60,33,0,0,0,170,169,175,164,1,1464
18.328091859,-1,-4,0,0,-2,0,0,0,0,-45,22,71,4,60,33,0,0,0,169,170,168,171,1,1465
18.339251041,-1,-4,0,-2,1,-3,0,1,0,-45,22,71,4,60,33,0,0,0,171,168,171,168,1,1466
18.357166051,-1,-4,0,-2,1,-3,0,1,0,-19,88,23,18,62,35,0,0,0,171,168,171,168,1,1467
18.368124961,-1,-4,0,1,1,-2,0,1,0,136,15,80,29,62,33,0,0,0,171,168,171,168,1,1468
18.379441022,-1,-4,0,1,1,-2,0,1,0,136,15,80,29,62,33,0,0,0,169,170,170,169,1,1469
18.390266895,-1,-4,0,-3,-2,0,0,2,0,136,15,80,29,62,33,0,0,0,169,170,170,169,1,1470
18.409184932,0,-4,0,3,-5,1,0,2,0,-25,-119,23,33,63,28,0,0,0,168,171,166,173,1,1471
18.420179844,0,-4,0,4,-4,0,0,2,0,-119,-111,228,31,64,20,0,0,0,168,171,166,173,1,1472
18.431241035,0,-4,0,4,-4,0,0,2,0,-119,-111,228,31,64,20,0,0,0,167,172,167,172,1,1473
18.442240953,0,-4,0,1,1,1,-1,2,0,-119,-111,228,31,64,20,0,0,0,169,170,171,168,1,1474
18.463292837,0,-3,0,1,1,1,-1,2,0,150,177,29,25,63,8,0,0,0,169,170,171,168,1,1475
18.471169948,0,-3,0,-2,8,-3,-1,1,0,81,150,82,16,58,247,0,0,0,169,170,171,168,1,1476
18.482128858,0,-3,0,-3,1,-1,0,0,0,81,150,82,16,58,247,0,0,0,171,168,174,165,1,1477
18.495342016,0,-3,0,-3,1,-1,0,0,0,81,150,82,16,58,247,0,0,0,172,167,170,169,1,1478
18.512254953,0,-3,0,0,0,3,0,0,0,-63,-127,198,7,49,227,0,0,0,170,169,169,170,1,1479
18.523357868,0,-3,0,1,-5,0,0,-1,0,-213,31,130,1,36,209,0,0,0,170,169,169,170,1,1480
18.534574985,0,-3,0,1,-5,0,0,-1,0,-213,31,130,1,36,209,0,0,0,168,171,166,173,1,1481
18.545101881,0,-3,0,0,-4,1,0,-1,0,-213,31,130,1,36,209,0,0,0,170,169,167,172,1,1482
18.563125848,0,-3,0,0,-4,1,0,-1,0,-124,-83,166,0,25,196,0,0,0,170,169,167,172,1,1483
18.574338913,0,-3,0,0,-4,2,0,0,0,56,6,100,-1,15,190,0,0,0,170,169,167,172,1,1484
18.585217952,0,-3,0,4,-2,-2,0,0,0,56,6,100,-1,15,190,0,0,0,169,170,167,172,1,1485
18.596125841,0,-3,0,4,-2,-2,0,0,0,56,6,100,-1,15,190,0,0,0,167,172,168,171,1,1486
18.615147829,0,-3,0,3,-2,3,0,0,0,-46,213,24,-3,8,190,0,0,0,167,172,168,171,1,1487
18.626204967,1,-3,0,-3,2,-2,0,0,0,-87,-73,181,-10,3,193,0,0,0,167,172,168,171,1,1488
18.637058019,1,-3,0,-3,2,-2,0,0,0,-87,-73,181,-10,3,193,0,0,0,171,168,171,168,1,1489
18.648100853,0,-2,0,-4,3,-1,0,0,0,-87,-73,181,-10,3,193,0,0,0,172,167,171,168,1,1490
18.666188955,1,-3,0,-4,3,-1,0,0,0,8,-72,195,-21,1,196,0,0,0,172,167,171,168,1,1491
18.677118063,1,-3,0,-2,-1,-1,0,-1,0,84,76,144,-34,2,197,0,0,0,172,167,171,168,1,1492
18.688213825,1,-3,0,-5,0,-1,0,-2,0,84,76,144,-34,2,197,0,0,0,171,168,168,171,1,1493
18.699131965,1,-3,0,-5,0,-1,0,-2,0,84,76,144,-34,2,197,0,0,0,173,166,169,170,1,1494
18.718209028,1,-3,0,-1,-4,0,0,-2,0,-135,-41,11,-46,5,197,0,0,0,170,169,167,172,1,1495
18.729213953,1,-3,0,-5,0,-1,0,-2,0,-19,163,5,-54,9,195,0,0,0,170,169,167,172,1,1496
18.741668939,1,-3,0,-5,0,-1,0,-2,0,-19,163,5,-54,9,195,0,0,0,173,166,169,170,1,1497
18.751207828,1,-3,0,-2,-4,0,0,-1,0,-19,163,5,-54,9,195,0,0,0,171,168,167,172,1,1498
18.769165992,1,-3,0,-2,-4,0,0,-1,0,60,88,24,-56,13,193,0,0,0,171,168,167,172,1,1499
18.78015685,1,-3,0,1,1,1,-1,-1,0,132,55,90,-52,16,192,0,0,0,171,168,167,172,1,1500
18.791290998,1,-3,0,1,1,1,-1,-1,0,132,55,90,-52,16,192,0,0,0,168,171,171,168,1,1501
18.802324056,1,-3,0,5,6,2,-2,0,-1,132,55,90,-52,16,192,0,0,0,166,173,173,166,1,1502
18.82118988,1,-3,0,5,6,2,-2,0,-1,-79,-233,15,-43,20,194,0,0,0,166,173,173,166,1,1503
18.832217931,1,-4,0,2,8,2,-3,0,-1,-133,-96,209,-31,26,199,0,0,0,166,173,173,166,1,1504
18.843091964,1,-3,0,4,1,0,-3,0,0,-133,-96,209,-31,26,199,0,0,0,168,171,174,165,1,1505
18.854260921,1,-3,0,4,1,0,-3,0,0,-133,-96,209,-31,26,199,0,0,0,167,172,171,168,1,1506
18.87311697,1,-4,0,-1,-5,0,-2,0,0,-43,154,63,-17,30,206,0,0,0,171,168,166,173,1,1507
18.884261846,1,-4,0,-1,-3,1,-1,0,0,75,-16,52,-4,31,213,0,0,0,171,168,166,173,1,1508
18.895359993,1,-4,0,-1,-3,1,-1,0,0,75,-16,52,-4,31,213,0,0,0,170,169,167,172,1,1509
18.906048059,1,-4,0,-7,-6,-2,0,0,1,75,-16,52,-4,31,213,0,0,0,170,169,167,172,1,1510
18.924152851,1,-4,0,-7,-6,-2,0,0,1,19,-140,211,4,27,220,0,0,0,174,165,166,173,1,1511
18.935264825,1,-4,0,0,3,1,0,1,1,178,-198,3,7,17,224,0,0,0,174,165,166,173,1,1512
18.946154832,1,-3,0,0,5,1,1,1,1,178,-198,3,7,17,224,0,0,0,169,170,172,167,1,1513
18.957224845,1,-3,0,0,5,1,1,1,1,178,-198,3,7,17,224,0,0,0,169,170,173,166,1,1514
18.976135969,1,-3,0,-3,-4,-3,1,1,1,103,-17,113,5,3,226,0,0,0,171,168,167,172,1,1515
18.98752594,1,-3,0,0,-2,-1,1,0,0,44,169,242,3,-13,224,0,0,0,171,168,167,172,1,1516
18.998235941,1,-3,0,0,-2,-1,1,0,0,44,169,242,3,-13,224,0,0,0,170,169,168,171,1,1517
19.009177923,1,-3,0,-8,1,2,0,0,0,44,169,242,3,-13,224,0,0,0,175,164,170,169,1,1518
19.027183055,1,-3,0,-8,1,2,0,0,0,-90,160,8,4,-34,222,0,0,0,175,164,170,169,1,1519
19.038149833,1,-3,0,-3,-3,1,-1,0,0,-11,39,-114,10,-56,221,0,0,0,175,164,170,169,1,1520
19.051297903,1,-3,0,5,0,0,-2,-1,0,-11,39,-114,10,-56,221,0,0,0,172,167,167,172,1,1521
19.06022191,1,-3,0,5,0,0,-2,-1,0,-11,39,-114,10,-56,221,0,0,0,166,173,170,169,1,1522
19.079303026,1,-3,0,2,-6,-1,-3,-1,0,156,-133,248,22,-73,222,0,0,0,168,171,166,173,1,1523
19.090339899,0,-3,0,7,5,3,-3,-1,0,83,116,200,34,-81,225,0,0,0,168,171,166,173,1,1524
19.101111888,0,-3,0,7,5,3,-3,-1,0,83,116,200,34,-81,225,0,0,0,165,174,173,166,1,1525
19.112264871,0,-3,0,-1,-1,0,-3,-1,0,83,116,200,34,-81,225,0,0,0,170,169,169,170,1,1526
19.130153894,0,-3,0,-1,-1,0,-3,-1,0,-55,163,85,45,-76,225,0,0,0,170,169,169,170,1,1527
19.141248941,0,-3,0,-8,0,2,-2,-1,0,41,95,244,52,-59,221,0,0,0,170,169,169,170,1,1528
19.15238285,0,-3,0,-8,0,2,-2,-1,0,41,95,244,52,-59,221,0,0,0,175,164,169,170,1,1529
19.167273998,0,-2,0,-2,0,0,-1,-1,0,41,95,244,52,-59,221,0,0,0,175,164,169,170,1,1530
19.181372881,0,-2,0,-2,0,0,-1,-1,0,45,66,7,55,-32,213,0,0,0,171,168,170,169,1,1531
19.19215393,0,-2,0,0,2,0,0,-1,0,-136,112,159,54,0,206,0,0,0,171,168,170,169,1,1532
19.203202962,0,-2,0,0,0,-1,0,0,0,-136,112,159,54,0,206,0,0,0,170,169,171,168,1,1533
19.214261055,0,-2,0,0,0,-1,0,0,0,-136,112,159,54,0,206,0,0,0,170,169,169,170,1,1534
19.233201027,0,-2,0,5,5,0,1,0,1,-68,66,148,49,33,201,0,0,0,166,173,173,166,1,1535
19.244324922,0,-1,0,-4,-2,0,0,0,1,-110,69,42,41,64,202,0,0,0,166,173,173,166,1,1536
19.255321025,0,-1,0,-4,-2,0,0,0,1,-110,69,42,41,64,202,0,0,0,172,167,168,171,1,1537
19.266185999,0,-1,0,5,2,2,0,0,0,-110,69,42,41,64,202,0,0,0,172,167,168,171,1,1538
19.285126924,0,-1,0,5,2,2,0,0,0,-26,39,226,28,88,206,0,0,0,166,173,171,168,1,1539
19.296115875,0,-1,0,2,-1,0,0,0,0,-49,22,113,12,104,213,0,0,0,166,173,171,168,1,1540
19.307240963,0,-1,0,-2,-1,0,0,1,0,-49,22,113,12,104,213,0,0,0,168,171,169,170,1,1541
19.318192958,0,-1,0,-2,-1,0,0,1,0,-49,22,113,12,104,213,0,0,0,171,168,169,170,1,1542
19.337097883,0,-1,0,0,-1,0,0,1,0,47,-91,119,-7,110,219,0,0,0,169,170,169,170,1,1543
19.348170995,0,-1,0,-2,-1,-1,0,1,0,7,-45,146,-28,106,223,0,0,0,169,170,169,170,1,1544
19.359065055,0,-1,0,-2,-1,-1,0,1,0,7,-45,146,-28,106,223,0,0,0,171,168,169,170,1,1545
19.370094061,0,-1,0,5,-2,1,0,1,0,7,-45,146,-28,106,223,0,0,0,166,173,168,171,1,1546
19.388291835,1,-1,0,5,-2,1,0,1,0,-13,-46,131,-46,94,222,0,0,0,166,173,168,171,1,1547
19.39914298,1,-1,0,1,2,0,0,0,0,17,84,230,-57,73,216,0,0,0,166,173,168,171,1,1548
19.410176038,1,-1,0,1,2,0,0,0,0,17,84,230,-57,73,216,0,0,0,168,171,171,168,1,1549
19.421144008,1,-1,0,-4,0,-3,1,0,0,17,84,230,-57,73,216,0,0,0,168,171,171,168,1,1550
19.439270973,2,-1,0,-4,0,-3,1,0,0,-124,19,68,-60,48,204,0,0,0,172,167,170,169,1,1551
19.45291686,2,-1,0,-5,2,0,1,0,0,-53,-189,117,-54,21,189,0,0,0,172,167,170,169,1,1552
19.461309909,2,-1,0,-1,-5,0,1,-1,0,-53,-189,117,-54,21,189,0,0,0,173,166,171,168,1,1553
19.472148895,2,-1,0,-1,-5,0,1,-1,0,-53,-189,117,-54,21,189,0,0,0,170,169,166,173,1,1554
19.491302967,2,-1,0,-3,4,0,0,-1,0,-52,-24,151,-43,-3,176,0,0,0,172,167,172,167,1,1555
19.50316286,2,-2,0,0,-6,0,0,0,0,-80,-104,52,-31,-22,170,0,0,0,172,167,172,167,1,1556
19.513123035,2,-2,0,0,-6,0,0,0,0,-80,-104,52,-31,-22,170,0,0,0,170,169,166,173,1,1557
19.524252891,2,-1,0,-4,1,-2,0,0,0,-80,-104,52,-31,-22,170,0,0,0,170,169,166,173,1,1558
19.542103052,2,-2,0,-4,1,-2,0,0,0,66,204,-90,-22,-39,174,0,0,0,172,167,170,169,1,1559
19.553164959,2,-2,0,1,3,-1,-1,0,0,-69,187,213,-18,-53,187,0,0,0,172,167,170,169,1,1560
19.564231872,2,-2,0,4,0,1,-2,0,0,-69,187,213,-18,-53,187,0,0,0,168,171,172,167,1,1561
19.575227975,2,-2,0,4,0,1,-2,0,0,-69,187,213,-18,-53,187,0,0,0,167,172,170,169,1,1562
19.59412384,2,-2,0,5,2,-1,-2,0,0,44,95,235,-19,-65,204,0,0,0,166,173,171,168,1,1563
19.605185985,1,-2,0,6,-6,1,-2,0,0,43,-13,76,-24,-71,218,0,0,0,166,173,171,168,1,1564
19.61638093,1,-2,0,6,-6,1,-2,0,0,43,-13,76,-24,-71,218,0,0,0,165,174,165,174,1,1565
19.627249956,1,-2,0,-2,5,1,-2,0,0,43,-13,76,-24,-71,218,0,0,0,171,168,173,166,1,1566
19.645187854,1,-2,0,-2,5,1,-2,0,0,37,-188,192,-30,-66,226,0,0,0,171,168,173,166,1,1567
19.656285047,1,-2,0,-3,5,0,-1,0,0,-122,-19,145,-32,-48,226,0,0,0,171,168,173,166,1,1568
19.667189836,1,-2,0,-3,5,0,-1,0,0,-122,-19,145,-32,-48,226,0,0,0,171,168,173,166,1,1569
19.678380012,1,-2,0,0,0,4,0,0,0,-122,-19,145,-32,-48,226,0,0,0,171,168,173,166,1,1570
19.697252988,0,-2,0,0,0,4,0,0,0,-92,76,235,-31,-24,221,0,0,0,170,169,169,170,1,1571
19.708200931,0,-2,0,0,0,2,1,0,0,-6,85,124,-25,1,213,0,0,0,170,169,169,170,1,1572
19.719291925,0,-2,0,-5,-1,-2,2,0,0,-6,85,124,-25,1,213,0,0,0,170,169,170,169,1,1573
19.73024106,0,-2,0,-5,-1,-2,2,0,0,-6,85,124,-25,1,213,0,0,0,173,166,169,170,1,1574
19.749161005,0,-2,0,-7,6,0,2,0,0,44,32,41,-18,21,206,0,0,0,174,165,173,166,1,1575
19.760246038,0,-2,0,-7,2,0,2,1,0,-4,45,161,-13,34,201,0,0,0,174,165,173,166,1,1576
19.771277904,0,-2,0,-7,2,0,2,1,0,-4,45,161,-13,34,201,0,0,0,174,165,171,168,1,1577
19.784168005,0,-2,0,1,-1,-2,0,1,1,-4,45,161,-13,34,201,0,0,0,169,170,169,170,1,1578
19.800143957,0,-2,0,1,-1,-2,0,1,1,-61,-87,16,-10,41,197,0,0,0,169,170,169,170,1,1579
19.811122894,0,-2,0,2,0,2,-1,1,1,15,-183,47,-11,46,196,0,0,0,169,170,169,170,1,1580
19.822571992,0,-2,0,0,0,-2,-2,1,1,15,-183,47,-11,46,196,0,0,0,168,171,170,169,1,1581
19.8332479,0,-2,0,0,0,-2,-2,1,1,15,-183,47,-11,46,196,0,0,0,170,169,169,170,1,1582
19.85217905,0,-2,0,-1,2,-1,-4,1,0,-127,-58,-22,-13,50,198,0,0,0,170,169,171,168,1,1583
19.864588022,1,-2,0,-6,-2,0,-4,1,0,-196,37,246,-16,52,202,0,0,0,170,169,171,168,1,1584
19.87419796,1,-2,0,-6,-2,0,-4,1,0,-196,37,246,-16,52,202,0,0,0,173,166,168,171,1,1585
19.887092828,1,-2,0,5,2,4,-4,1,0,-196,37,246,-16,52,202,0,0,0,166,173,171,168,1,1586
19.903244972,1,-2,0,5,2,4,-4,1,0,-75,0,47,-21,49,207,0,0,0,166,173,171,168,1,1587
19.914156913,1,-2,0,2,-3,0,-3,1,0,227,101,57,-27,38,211,0,0,0,166,173,171,168,1,1588
19.925358057,1,-2,0,2,-3,0,-3,1,0,227,101,57,-27,38,211,0,0,0,168,171,167,172,1,1589
19.93630886,1,-2,0,-3,-3,2,-2,0,0,227,101,57,-27,38,211,0,0,0,168,171,167,172,1,1590
19.954190969,1,-3,0,-3,-3,2,-2,0,0,171,138,107,-36,21,212,0,0,0,171,168,168,171,1,1591
19.965312957,1,-3,0,0,1,1,-1,0,0,-50,-115,20,-45,3,210,0,0,0,171,168,168,171,1,1592
19.979168892,1,-3,0,-4,-1,-5,0,0,0,-50,-115,20,-45,3,210,0,0,0,169,170,170,169,1,1593
19.98711586,1,-3,0,-4,-1,-5,0,0,0,-50,-115,20,-45,3,210,0,0,0,172,167,169,170,1,1594
20.00630784,1,-3,0,0,5,-1,0,0,0,-18,-34,66,-49,-10,205,0,0,0,169,170,173,166,1,1595
20.017133951,1,-3,0,3,7,3,0,0,0,-84,4,37,-44,-17,197,0,0,0,169,170,173,166,1,1596
20.028272867,1,-3,0,3,7,3,0,0,0,-84,4,37,-44,-17,197,0,0,0,167,172,174,165,1,1597
20.039181947,1,-3,0,-3,-6,-1,0,0,0,-84,4,37,-44,-17,197,0,0,0,167,172,174,165,1,1598
20.058409929,1,-3,0,-3,-6,-1,0,0,0,127,132,11,-31,-15,189,0,0,0,171,168,166,173,1,1599
20.069068908,1,-3,0,-2,-6,-1,0,0,0,18,59,48,-13,-8,182,0,0,0,171,168,166,173,1,1600
20.079222917,1,-3,0,-3,-6,-1,0,0,0,18,59,48,-13,-8,182,0,0,0,171,168,166,173,1,1601
20.09019494,1,-3,0,-3,-6,-1,0,0,0,18,59,48,-13,-8,182,0,0,0,172,167,165,174,1,1602
20.109223842,1,-3,0,2,-3,-1,0,0,0,81,-49,3,6,0,176,0,0,0,168,171,168,171,1,1603
20.120280027,1,-3,0,4,0,0,-1,0,0,67,-124,126,22,11,172,0,0,0,168,171,168,171,1,1604
20.131408929,1,-3,0,4,0,0,-1,0,0,67,-124,126,22,11,172,0,0,0,167,172,170,169,1,1605
20.142212867,1,-3,0,-1,-3,-2,-1,0,0,67,-124,126,22,11,172,0,0,0,171,168,168,171,1,1606
20.161111831,1,-3,0,-1,-3,-2,-1,0,0,-80,-154,209,35,20,170,0,0,0,171,168,168,171,1,1607
20.172250032,1,-3,0,0,-2,-5,-1,0,-1,-99,62,19,43,26,172,0,0,0,171,168,168,171,1,1608
20.183109045,1,-3,0,0,-2,-5,-1,0,-1,-99,62,19,43,26,172,0,0,0,169,170,168,171,1,1609
20.19419384,1,-3,0,-3,-2,0,0,-1,-1,-99,62,19,43,26,172,0,0,0,169,170,168,171,1,1610
20.212203979,1,-3,0,-3,-2,0,0,-1,-1,3,-136,182,45,24,181,0,0,0,172,167,168,171,1,1611
20.223238945,1,-2,0,0,0,-1,0,-2,-1,-32,59,234,42,15,196,0,0,0,172,167,168,171,1,1612
20.234154939,1,-2,0,-2,2,-1,0,-3,-1,-32,59,234,42,15,196,0,0,0,170,169,170,169,1,1613
20.245138883,1,-2,0,-2,2,-1,0,-3,-1,-32,59,234,42,15,196,0,0,0,171,168,171,168,1,1614
20.264179945,1,-2,0,-8,-2,0,0,-3,-1,82,21,157,34,0,215,0,0,0,174,165,168,171,1,1615
20.275439977,1,-2,0,-2,-2,-1,0,-3,-1,-67,-116,134,20,-20,234,0,0,0,174,165,168,171,1,1616
20.287063837,1,-2,0,-2,-2,-1,0,-3,-1,-67,-116,134,20,-20,234,0,0,0,171,168,168,171,1,1617
20.29717803,1,-2,0,1,-4,2,0,-2,-1,-67,-116,134,20,-20,234,0,0,0,171,168,168,171,1,1618
20.315247058,1,-2,0,1,-4,2,0,-2,-1,-93,-124,65,5,-38,248,0,0,0,169,170,167,172,1,1619
20.326092004,1,-2,0,8,1,2,-1,-1,-1,-70,-12,68,-8,-51,254,0,0,0,169,170,167,172,1,1620
20.337056875,1,-2,0,2,0,-2,-1,-1,-1,-70,-12,68,-8,-51,254,0,0,0,164,175,170,169,1,1621
20.348214864,1,-2,0,2,0,-2,-1,-1,-1,-70,-12,68,-8,-51,254,0,0,0,168,171,170,169,1,1622
20.367133855,1,-2,0,-1,-2,0,-2,0,-1,10,161,182,-21,-58,252,0,0,0,170,169,168,171,1,1623
20.378301859,0,-2,0,4,2,0,-2,0,0,-122,111,0,-30,-60,244,0,0,0,170,169,168,171,1,1624
20.389119863,0,-2,0,4,2,0,-2,0,0,-122,111,0,-30,-60,244,0,0,0,167,172,171,168,1,1625
20.400109052,0,-2,0,1,-3,0,-1,0,0,-122,111,0,-30,-60,244,0,0,0,169,170,167,172,1,1626
20.419358968,0,-2,0,1,-3,0,-1,0,0,-134,-78,19,-36,-55,235,0,0,0,169,170,167,172,1,1627
20.42916584,0,-2,0,-3,-3,0,0,0,0,-39,-85,7,-42,-45,227,0,0,0,169,170,167,172,1,1628
20.440188884,0,-2,0,-3,-3,0,0,0,0,-39,-85,7,-42,-45,227,0,0,0,171,168,167,172,1,1629
20.451346874,0,-2,0,-1,2,-2,0,0,0,-39,-85,7,-42,-45,227,0,0,0,171,168,167,172,1,1630
20.470685958,0,-2,0,-1,2,-2,0,0,0,-18,-66,81,-47,-30,224,0,0,0,170,169,171,168,1,1631
20.486866951,0,-2,0,0,0,-1,1,0,0,4,-44,32,-53,-13,226,0,0,0,170,169,171,168,1,1632
20.492269992,0,-2,0,-7,2,1,2,0,0,4,-44,32,-53,-13,226,0,0,0,169,170,170,169,1,1633
20.503234863,0,-2,0,-7,2,1,2,0,0,4,-44,32,-53,-13,226,0,0,0,174,165,171,168,1,1634
20.522341966,0,-2,0,-1,-5,0,2,0,0,23,59,67,-58,1,233,0,0,0,171,168,166,173,1,1635
20.533161878,0,-2,0,0,-4,0,1,0,0,-4,-111,198,-63,9,245,0,0,0,171,168,166,173,1,1636
20.544042825,0,-2,0,0,-4,0,1,0,0,-4,-111,198,-63,9,245,0,0,0,170,169,167,172,1,1637
20.555290937,0,-2,0,1,2,0,0,0,0,-4,-111,198,-63,9,245,0,0,0,168,171,171,168,1,1638
20.573207855,0,-3,0,1,2,0,0,0,0,111,-6,20,-63,10,3,0,0,0,168,171,171,168,1,1639
20.584056854,0,-3,0,0,0,-3,0,0,-1,-34,129,125,-59,3,17,0,0,0,168,171,171,168,1,1640
20.595177888,0,-3,0,0,0,-3,0,0,-1,-34,129,125,-59,3,17,0,0,0,169,170,169,170,1,1641
20.60622096,0,-3,0,7,1,1,-1,0,-1,-34,129,125,-59,3,17,0,0,0,165,174,170,169,1,1642
20.624197006,0,-3,0,7,1,1,-1,0,-1,-43,145,70,-48,-6,28,0,0,0,165,174,170,169,1,1643
20.635488033,0,-3,0,3,0,0,-2,0,0,-4,6,211,-32,-16,33,0,0,0,165,174,170,169,1,1644
20.646131992,0,-3,0,1,-6,0,-2,0,0,-4,6,211,-32,-16,33,0,0,0,167,172,170,169,1,1645
20.657363891,0,-3,0,1,-6,0,-2,0,0,-4,6,211,-32,-16,33,0,0,0,169,170,166,173,1,1646
20.676172018,0,-3,0,0,1,0,-1,0,0,-87,-97,98,-14,-22,31,0,0,0,169,170,170,169,1,1647
20.687393903,0,-3,0,-4,0,0,0,0,0,-15,61,109,1,-19,22,0,0,0,169,170,170,169,1,1648
20.699646949,0,-3,0,-4,0,0,0,0,0,-15,61,109,1,-19,22,0,0,0,172,167,169,170,1,1649
20.709105014,0,-3,0,-5,2,0,1,0,0,-15,61,109,1,-19,22,0,0,0,172,167,169,170,1,1650
20.727273941,0,-3,0,-5,2,0,1,0,0,-56,-119,239,12,-9,7,0,0,0,173,166,171,168,1,1651
20.738268852,0,-3,0,3,5,3,2,0,0,64,79,122,15,4,244,0,0,0,173,166,171,168,1,1652
20.749137878,0,-3,0,0,-5,-2,2,0,0,64,79,122,15,4,244,0,0,0,168,171,173,166,1,1653
20.760128975,0,-3,0,0,-5,-2,2,0,0,64,79,122,15,4,244,0,0,0,170,169,166,173,1,1654
20.77926898,0,-3,0,-2,1,-1,2,0,0,79,22,83,11,17,223,0,0,0,171,168,170,169,1,1655
20.790400982,0,-3,0,-3,2,0,1,0,0,147,70,210,1,25,204,0,0,0,171,168,170,169,1,1656
20.80139184,0,-3,0,-3,2,0,1,0,0,147,70,210,1,25,204,0,0,0,172,167,171,168,1,1657
20.812188863,0,-3,0,-3,8,-2,0,0,0,147,70,210,1,25,204,0,0,0,172,167,171,168,1,1658
20.830261945,0,-3,0,-3,8,-2,0,0,0,29,109,196,-7,28,189,0,0,0,172,167,175,164,1,1659
20.841241836,0,-3,0,-5,0,-1,-1,0,0,-1,-188,17,-12,27,182,0,0,0,172,167,175,164,1,1660
20.85215497,0,-3,0,-1,-8,-1,-2,1,0,-1,-188,17,-12,27,182,0,0,0,173,166,169,170,1,1661
20.863371849,0,-3,0,-1,-8,-1,-2,1,0,-1,-188,17,-12,27,182,0,0,0,170,169,164,175,1,1662
20.882297992,0,-3,0,-3,-6,0,-2,1,0,-47,-92,183,-6,23,180,0,0,0,172,167,165,174,1,1663
20.893141985,0,-3,0,3,-8,-5,-3,1,0,-45,-22,23,9,18,181,0,0,0,172,167,165,174,1,1664
20.904233932,0,-3,0,3,-8,-5,-3,1,0,-45,-22,23,9,18,181,0,0,0,168,171,165,174,1,1665
20.915148019,0,-3,0,1,6,0,-3,1,-1,-45,-22,23,9,18,181,0,0,0,169,170,173,166,1,1666
20.93413186,0,-2,0,1,6,0,-3,1,-1,72,197,221,33,13,183,0,0,0,169,170,173,166,1,1667
20.944329977,0,-2,0,-1,3,-2,-3,0,-1,-38,251,194,58,6,183,0,0,0,169,170,173,166,1,1668
20.956133842,0,-2,0,-1,3,-2,-3,0,-1,-38,251,194,58,6,183,0,0,0,171,168,171,168,1,1669
20.967159986,0,-2,0,0,0,0,-2,0,-1,-38,251,194,58,6,183,0,0,0,171,168,171,168,1,1670
20.984122991,0,-2,0,0,0,0,-2,0,-1,-68,-2,86,77,0,182,0,0,0,170,169,170,169,1,1671
20.995116949,0,-2,0,-1,-3,-1,-2,-1,-1,-89,-57,160,84,-3,182,0,0,0,170,169,170,169,1,1672
21.006278038,0,-2,0,-7,-4,0,-1,-2,-2,-89,-57,160,84,-3,182,0,0,0,171,168,168,171,1,1673
21.017560005,0,-2,0,-7,-4,0,-1,-2,-2,-89,-57,160,84,-3,182,0,0,0,174,165,167,172,1,1674
21.036264896,0,-1,0,2,-1,1,0,-2,-2,-96,-50,66,77,0,184,0,0,0,168,171,168,171,1,1675
21.047274828,0,-1,0,-4,-1,0,0,-2,-1,-81,135,126,58,12,190,0,0,0,168,171,168,171,1,1676
21.059449911,0,-1,0,-4,-1,0,0,-2,-1,-81,135,126,58,12,190,0,0,0,172,167,169,170,1,1677
21.069288969,0,-1,0,0,0,1,0,-1,-1,-81,135,126,58,12,190,0,0,0,172,167,169,170,1,1678
21.087173938,0,-1,0,0,0,1,0,-1,-1,-180,-38,-56,29,27,197,0,0,0,170,169,169,170,1,1679
21.098341941,0,0,0,6,4,1,0,-1,-1,-109,21,59,-4,41,202,0,0,0,170,169,169,170,1,1680
21.109292984,0,0,0,6,4,1,0,-1,-1,-109,21,59,-4,41,202,0,0,0,166,173,172,167,1,1681
21.120138883,0,0,0,-1,0,-2,-1,0,0,-109,21,59,-4,41,202,0,0,0,166,173,172,167,1,1682
21.139276981,0,0,0,4,4,0,-1,0,0,17,136,9,-39,51,200,0,0,0,167,172,172,167,1,1683
21.150163889,0,0,0,0,-1,0,-1,0,0,74,149,65,-71,54,188,0,0,0,167,172,172,167,1,1684
21.161165952,0,0,0,0,-1,0,-1,0,0,74,149,65,-71,54,188,0,0,0,169,170,169,170,1,1685
21.17213583,0,0,0,3,0,1,-1,0,0,74,149,65,-71,54,188,0,0,0,168,171,169,170,1,1686
21.190147876,0,-1,0,3,0,1,-1,0,0,-57,-5,218,-96,53,168,0,0,0,168,171,169,170,1,1687
21.201323032,1,-1,0,-5,2,1,0,0,0,-47,-138,119,-110,49,146,0,0,0,168,171,169,170,1,1688
21.212199926,1,-1,0,-5,2,1,0,0,0,-47,-138,119,-110,49,146,0,0,0,173,166,171,168,1,1689
21.223325967,1,-1,0,-9,-2,-2,0,0,0,-47,-138,119,-110,49,146,0,0,0,175,164,168,171,1,1690
21.242120981,1,-1,0,-9,-2,-2,0,0,0,2,-214,9,-111,46,129,0,0,0,175,164,168,171,1,1691
21.253202915,1,-2,0,-4,-2,1,1,0,0,112,191,180,-99,42,123,0,0,0,175,164,168,171,1,1692
21.264132022,1,-2,0,0,2,0,1,0,0,112,191,180,-99,42,123,0,0,0,172,167,168,171,1,1693
21.275094986,1,-2,0,0,2,0,1,0,0,112,191,180,-99,42,123,0,0,0,170,169,171,168,1,1694
21.294070005,1,-2,0,-3,4,-1,0,0,0,-76,10,246,-79,36,129,0,0,0,171,168,172,167,1,1695
21.311312914,2,-3,0,1,0,0,0,0,0,-156,87,61,-53,28,146,0,0,0,171,168,172,167,1,1696
21.316129922,2,-3,0,1,0,0,0,0,0,-156,87,61,-53,28,146,0,0,0,168,171,170,169,1,1697
21.327255964,2,-3,0,0,4,-1,-1,0,0,-156,87,61,-53,28,146,0,0,0,169,170,172,167,1,1698
21.345113039,2,-3,0,0,4,-1,-1,0,0,46,-108,225,-27,19,168,0,0,0,169,170,172,167,1,1699
21.35643506,2,-3,0,-3,0,0,-2,0,0,-67,-79,84,-6,14,194,0,0,0,169,170,172,167,1,1700
21.367423057,2,-3,0,-3,0,0,-2,0,0,-67,-79,84,-6,14,194,0,0,0,172,167,169,170,1,1701
21.378330946,2,-3,0,0,-3,4,-3,0,0,-67,-79,84,-6,14,194,0,0,0,169,170,168,171,1,1702
21.396118879,2,-3,0,0,-3,4,-3,0,0,-157,-89,-58,5,15,218,0,0,0,169,170,168,171,1,1703
21.407225847,2,-3,0,0,-3,3,-3,0,0,-252,-88,-7,7,20,238,0,0,0,169,170,168,171,1,1704
21.418158054,2,-3,0,0,2,0,-3,0,0,-252,-88,-7,7,20,238,0,0,0,169,170,167,172,1,1705
21.429131984,2,-3,0,0,2,0,-3,0,0,-252,-88,-7,7,20,238,0,0,0,170,169,171,168,1,1706
21.448104858,2,-3,0,2,-2,-1,-2,1,0,-179,-96,153,0,24,250,0,0,0,168,171,168,171,1,1707
21.459449052,2,-3,0,-5,11,0,-1,1,0,-110,149,154,-18,23,251,0,0,0,168,171,168,171,1,1708
21.470336914,2,-3,0,-5,11,0,-1,1,0,-110,149,154,-18,23,251,0,0,0,173,166,176,163,1,1709
21.481164932,2,-3,0,-3,1,1,0,0,0,-110,149,154,-18,23,251,0,0,0,173,166,176,163,1,1710
21.499163866,2,-3,0,-3,1,1,0,0,0,-72,38,233,-45,15,238,0,0,0,172,167,170,169,1,1711
21.510158062,2,-3,0,-2,-3,2,0,0,0,19,205,192,-77,1,212,0,0,0,172,167,170,169,1,1712
21.521144867,2,-3,0,-2,1,-1,0,0,1,19,205,192,-77,1,212,0,0,0,171,168,167,172,1,1713
21.532135009,2,-3,0,-2,1,-1,0,0,1,19,205,192,-77,1,212,0,0,0,171,168,170,169,1,1714
21.551204919,2,-4,0,-1,-4,3,0,0,1,77,46,196,-108,-10,181,0,0,0,171,168,167,172,1,1715
21.562195062,2,-4,0,-3,0,1,0,0,1,-7,-139,92,-133,-12,151,0,0,0,171,168,167,172,1,1716
21.573588848,2,-4,0,-3,0,1,0,0,1,-7,-139,92,-133,-12,151,0,0,0,172,167,170,169,1,1717
21.585846901,2,-4,0,1,-3,0,-1,0,1,-7,-139,92,-133,-12,151,0,0,0,168,171,167,172,1,1718
21.60216403,2,-5,0,1,-3,0,-1,0,1,-156,-187,110,-144,-2,129,0,0,0,168,171,167,172,1,1719
21.613196849,2,-5,0,0,-1,5,-2,0,1,71,-32,237,-139,18,119,0,0,0,168,171,167,172,1,1720
21.624539852,2,-5,0,0,-1,5,-2,0,1,71,-32,237,-139,18,119,0,0,0,169,170,169,170,1,1721
21.635202884,2,-5,0,-2,1,1,-2,0,1,71,-32,237,-139,18,119,0,0,0,171,168,171,168,1,1722
21.65417099,2,-6,0,-2,1,1,-2,0,1,-120,-33,110,-120,41,119,0,0,0,171,168,171,168,1,1723
21.665142059,2,-6,0,0,2,-4,-2,0,1,-60,-67,182,-90,56,129,0,0,0,171,168,171,168,1,1724
21.676122903,2,-6,0,8,4,1,-2,0,1,-60,-67,182,-90,56,129,0,0,0,170,169,171,168,1,1725
21.687173843,2,-6,0,8,4,1,-2,0,1,-60,-67,182,-90,56,129,0,0,0,164,175,172,167,1,1726
21.706222057,2,-7,0,0,0,-1,-2,-1,1,91,101,90,-59,57,145,0,0,0,170,169,170,169,1,1727
21.717252016,2,-7,0,2,-2,0,-1,-1,1,1,33,70,-31,44,165,0,0,0,170,169,170,169,1,1728
21.728191852,2,-7,0,2,-2,0,-1,-1,1,1,33,70,-31,44,165,0,0,0,168,171,168,171,1,1729
21.739269971,2,-7,0,-4,-2,1,0,0,1,1,33,70,-31,44,165,0,0,0,168,171,168,171,1,1730
21.75713396,2,-7,0,-4,-2,1,0,0,1,-105,-107,95,-11,20,188,0,0,0,172,167,168,171,1,1731
21.771472931,3,-8,0,-5,-1,3,0,0,1,-71,163,40,-1,-6,213,0,0,0,172,167,168,171,1,1732
21.779222011,2,-7,0,-7,-4,6,1,0,0,-71,163,40,-1,-6,213,0,0,0,173,166,169,170,1,1733
21.790062904,2,-7,0,-7,-4,6,1,0,0,-71,163,40,-1,-6,213,0,0,0,174,165,167,172,1,1734
21.80911088,2,-7,0,-8,0,0,1,0,0,58,-165,13,1,-28,236,0,0,0,174,165,169,170,1,1735
21.820173025,2,-7,0,1,8,4,1,0,0,41,-38,201,-2,-42,254,0,0,0,174,165,169,170,1,1736
21.831135034,2,-7,0,1,8,4,1,0,0,41,-38,201,-2,-42,254,0,0,0,169,170,175,164,1,1737
21.842119932,2,-7,0,-7,-1,0,0,0,0,41,-38,201,-2,-42,254,0,0,0,174,165,169,170,1,1738
21.86008501,2,-7,0,-7,-1,0,0,0,0,165,84,209,-10,-45,8,0,0,0,174,165,169,170,1,1739
21.871130943,2,-7,0,1,1,-2,-1,0,1,-5,23,9,-17,-39,6,0,0,0,174,165,169,170,1,1740
21.883077859,2,-7,0,1,1,-2,-1,0,1,-5,23,9,-17,-39,6,0,0,0,169,170,171,168,1,1741
21.893313884,2,-7,0,6,4,1,-3,0,1,-5,23,9,-17,-39,6,0,0,0,165,174,172,167,1,1742
21.912201881,2,-7,0,3,1,-1,-4,0,2,-14,88,50,-21,-29,250,0,0,0,167,172,170,169,1,1743
21.923173904,1,-7,0,7,1,3,-5,0,2,-134,-13,95,-17,-16,231,0,0,0,167,172,170,169,1,1744
21.934298038,1,-7,0,7,1,3,-5,0,2,-134,-13,95,-17,-16,231,0,0,0,165,174,171,168,1,1745
21.945179939,1,-7,0,-1,-6,0,-4,0,2,-134,-13,95,-17,-16,231,0,0,0,170,169,166,173,1,1746
21.963238954,1,-7,0,-1,-6,0,-4,0,2,186,193,40,-8,-3,213,0,0,0,170,169,166,173,1,1747
21.974052906,1,-7,0,-2,0,1,-3,1,1,100,-74,140,4,9,200,0,0,0,170,169,166,173,1,1748
21.985244989,1,-7,0,-2,0,1,-3,1,1,100,-74,140,4,9,200,0,0,0,171,168,169,170,1,1749
21.99617505,1,-7,0,-3,-3,-1,0,1,0,100,-74,140,4,9,200,0,0,0,171,168,169,170,1,1750
22.015288829,1,-7,0,-3,-3,-1,0,1,0,-72,78,73,17,21,199,0,0,0,172,167,167,172,1,1751
22.025236845,1,-6,0,0,4,3,1,1,0,-179,-88,21,28,33,208,0,0,0,172,167,167,172,1,1752
22.036155939,1,-6,0,0,7,0,2,1,0,-179,-88,21,28,33,208,0,0,0,169,170,172,167,1,1753
22.047212839,1,-6,0,0,7,0,2,1,0,-179,-88,21,28,33,208,0,0,0,170,169,174,165,1,1754
22.06616497,1,-6,0,-3,-3,-3,3,0,0,-116,-128,43,35,41,225,0,0,0,172,167,168,171,1,1755
22.077262878,1,-6,0,0,-3,0,3,0,0,6,114,17,36,46,245,0,0,0,172,167,168,171,1,1756
22.088361024,1,-6,0,0,-3,0,3,0,0,6,114,17,36,46,245,0,0,0,170,169,168,171,1,1757
22.102671861,1,-6,0,3,-5,-1,1,0,0,6,114,17,36,46,245,0,0,0,167,172,166,173,1,1758
22.117110967,2,-6,0,3,-5,-1,1,0,0,-5,-21,108,29,45,5,0,0,0,167,172,166,173,1,1759
22.128278017,2,-5,0,0,-2,3,0,0,0,-34,-7,219,14,37,14,0,0,0,167,172,166,173,1,1760
22.139205932,2,-5,0,-1,8,3,0,0,0,-34,-7,219,14,37,14,0,0,0,169,170,168,171,1,1761
22.150123834,2,-5,0,-1,8,3,0,0,0,-34,-7,219,14,37,14,0,0,0,171,168,175,164,1,1762
22.169255972,2,-5,0,-2,-2,-5,-1,0,0,5,-65,221,-6,24,12,0,0,0,171,168,168,171,1,1763
22.180068016,2,-5,0,-1,0,-1,-2,0,0,-28,181,11,-27,9,0,0,0,0,171,168,168,171,1,1764
22.19114089,2,-5,0,-1,0,-1,-2,0,0,-28,181,11,-27,9,0,0,0,0,170,169,170,169,1,1765
22.202491998,2,-5,0,4,0,1,-1,0,0,-28,181,11,-27,9,0,0,0,0,167,172,170,169,1,1766
22.221118927,2,-5,0,4,0,1,-1,0,0,69,65,137,-45,-3,237,0,0,0,167,172,170,169,1,1767
22.232256889,2,-5,0,0,-5,-3,-1,0,0,102,29,165,-56,-13,216,0,0,0,167,172,170,169,1,1768
22.243311882,2,-5,0,0,-5,-3,-1,0,0,102,29,165,-56,-13,216,0,0,0,169,170,166,173,1,1769
22.254261016,2,-5,0,-1,5,1,0,0,0,102,29,165,-56,-13,216,0,0,0,169,170,166,173,1,1770
22.272131919,2,-5,0,-1,5,1,0,0,0,-52,141,149,-57,-15,198,0,0,0,170,169,173,166,1,1771
22.283697843,2,-5,0,-2,1,0,0,0,0,16,-59,5,-48,-8,186,0,0,0,170,169,173,166,1,1772
22.29418993,2,-5,0,-1,1,-2,0,0,0,16,-59,5,-48,-8,186,0,0,0,171,168,171,168,1,1773
22.305229902,2,-5,0,-1,1,-2,0,0,0,16,-59,5,-48,-8,186,0,0,0,171,168,171,168,1,1774
22.32434988,2,-5,0,-2,0,0,0,0,0,22,-177,20,-32,4,181,0,0,0,171,168,170,169,1,1775
22.335178852,2,-5,0,3,0,0,0,0,0,122,28,153,-11,22,186,0,0,0,171,168,170,169,1,1776
22.346184015,2,-5,0,3,0,0,0,0,0,122,28,153,-11,22,186,0,0,0,168,171,170,169,1,1777
22.357089042,1,-5,0,-2,2,0,0,0,0,122,28,153,-11,22,186,0,0,0,171,168,171,168,1,1778
22.379667043,2,-5,0,-2,2,0,0,0,0,-24,-106,238,8,37,199,0,0,0,171,168,171,168,1,1779
22.38646698,2,-5,0,-6,0,0,0,0,0,-10,-54,233,26,45,217,0,0,0,171,168,171,168,1,1780
22.397101879,2,-5,0,-4,0,-2,0,1,0,-10,-54,233,26,45,217,0,0,0,173,166,170,169,1,1781
22.408059835,2,-5,0,-4,0,-2,0,1,0,-10,-54,233,26,45,217,0,0,0,172,167,170,169,1,1782
22.427191019,2,-5,0,-5,-3,0,-1,1,0,16,-111,211,38,42,236,0,0,0,173,166,168,171,1,1783
22.438241005,2,-5,0,5,1,2,-1,1,0,198,-82,56,45,27,250,0,0,0,173,166,168,171,1,1784
22.44956398,2,-5,0,5,1,2,-1,1,0,198,-82,56,45,27,250,0,0,0,166,173,170,169,1,1785
22.460125923,2,-4,0,1,-1,-1,-2,1,0,198,-82,56,45,27,250,0,0,0,169,170,169,170,1,1786
22.478271961,2,-4,0,1,-1,-1,-2,1,0,231,50,110,46,4,3,0,0,0,169,170,169,170,1,1787
22.489372015,2,-4,0,1,2,0,-2,0,0,52,56,212,45,-23,5,0,0,0,169,170,169,170,1,1788
22.500123024,2,-4,0,1,2,0,-2,0,0,52,56,212,45,-23,5,0,0,0,169,170,171,168,1,1789
22.511266946,2,-4,0,2,1,-4,-2,0,0,52,56,212,45,-23,5,0,0,0,169,170,171,168,1,1790
22.530146837,2,-4,0,3,2,3,-2,0,0,39,-75,211,44,-49,3,0,0,0,167,172,171,168,1,1791
22.541151046,1,-3,0,5,5,3,-1,0,0,-78,-243,146,49,-69,1,0,0,0,167,172,171,168,1,1792
22.552165031,1,-3,0,5,5,3,-1,0,0,-78,-243,146,49,-69,1,0,0,0,166,173,173,166,1,1793
22.563163995,1,-3,0,0,-4,-2,0,0,0,-78,-243,146,49,-69,1,0,0,0,169,170,167,172,1,1794
22.581526041,1,-3,0,0,-4,-2,0,0,0,-126,-187,240,58,-79,254,0,0,0,169,170,167,172,1,1795
22.592093944,1,-3,0,-5,-3,0,0,0,0,91,-40,231,68,-79,252,0,0,0,169,170,167,172,1,1796
22.603184938,1,-3,0,-3,-2,-4,1,0,0,91,-40,231,68,-79,252,0,0,0,173,166,168,171,1,1797
22.614136934,1,-3,0,-3,-2,-4,1,0,0,91,-40,231,68,-79,252,0,0,0,171,168,168,171,1,1798
22.633134842,1,-2,0,-2,3,4,2,1,0,-130,-122,213,75,-76,249,0,0,0,171,168,171,168,1,1799
22.644513845,0,-2,0,-5,9,4,2,1,0,-58,84,102,73,-73,244,0,0,0,171,168,171,168,1,1800
22.655256033,0,-2,0,-5,9,4,2,1,0,-58,84,102,73,-73,244,0,0,0,173,166,175,164,1,1801
22.666192054,0,-2,0,-3,3,-2,2,1,0,-58,84,102,73,-73,244,0,0,0,171,168,172,167,1,1802
22.684217929,0,-2,0,-3,3,-2,2,1,0,-106,92,167,61,-73,238,0,0,0,171,168,172,167,1,1803
22.695363998,0,-1,0,-1,0,0,0,0,0,-24,26,159,39,-76,233,0,0,0,171,168,172,167,1,1804
22.706130981,0,-1,0,-2,0,1,0,0,0,-24,26,159,39,-76,233,0,0,0,171,168,170,169,1,1805
22.71727395,0,-1,0,-2,0,1,0,0,0,-24,26,159,39,-76,233,0,0,0,171,168,170,169,1,1806
22.736279964,0,-1,0,0,3,3,-2,0,0,70,36,93,10,-77,232,0,0,0,170,169,172,167,1,1807
22.747275829,0,-1,0,0,-8,-4,-3,1,0,-78,-95,215,-19,-73,236,0,0,0,170,169,172,167,1,1808
22.758187055,0,-1,0,0,-8,-4,-3,1,0,-78,-95,215,-19,-73,236,0,0,0,169,170,164,175,1,1809
22.769196987,0,-1,0,3,2,-1,-4,1,0,-78,-95,215,-19,-73,236,0,0,0,169,170,164,175,1,1810
22.787220001,0,-1,0,3,2,-1,-4,1,0,-205,-176,91,-45,-62,243,0,0,0,168,171,171,168,1,1811
22.798472881,-1,-1,0,0,3,0,-4,2,0,-113,-245,148,-65,-44,250,0,0,0,168,171,171,168,1,1812
22.809243917,-1,-1,0,-2,-1,-2,-3,2,0,-113,-245,148,-65,-44,250,0,0,0,170,169,172,167,1,1813
22.820267915,-1,-1,0,-2,-1,-2,-3,2,0,-113,-245,148,-65,-44,250,0,0,0,171,168,169,170,1,1814
22.839218855,-1,-1,0,-2,6,1,-2,1,0,-92,115,42,-75,-26,254,0,0,0,171,168,174,165,1,1815
22.850257873,-1,-1,0,-3,-2,-1,-1,1,0,-86,150,250,-80,-14,254,0,0,0,171,168,174,165,1,1816
22.861176967,-1,-1,0,-3,-2,-1,-1,1,0,-86,150,250,-80,-14,254,0,0,0,172,167,168,171,1,1817
22.872087955,-1,-1,0,-1,6,3,0,0,0,-86,150,250,-80,-14,254,0,0,0,170,169,173,166,1,1818
22.891175031,-1,-1,0,-1,6,3,0,0,0,-207,52,43,-81,-11,250,0,0,0,170,169,173,166,1,1819
22.902140855,-1,-2,0,0,3,1,0,0,0,-87,167,97,-82,-16,245,0,0,0,170,169,173,166,1,1820
22.913205862,-1,-2,0,0,3,1,0,0,0,-87,167,97,-82,-16,245,0,0,0,169,170,172,167,1,1821
22.924129963,-1,-2,0,-3,-3,0,0,0,0,-87,167,97,-82,-16,245,0,0,0,172,167,168,171,1,1822
22.942075967,-1,-2,0,4,-1,0,0,0,0,-114,-72,49,-85,-22,241,0,0,0,167,172,168,171,1,1823
22.953098058,-1,-2,0,-1,-4,-3,0,1,0,-38,-9,55,-91,-25,240,0,0,0,167,172,168,171,1,1824
22.964139938,-1,-2,0,-1,-4,-3,0,1,0,-38,-9,55,-91,-25,240,0,0,0,170,169,167,172,1,1825
22.97529602,-1,-2,0,-1,0,2,-1,1,0,-38,-9,55,-91,-25,240,0,0,0,171,168,169,170,1,1826
22.994143009,-2,-2,0,-1,0,2,-1,1,0,23,-140,13,-100,-19,244,0,0,0,171,168,169,170,1,1827
23.00517106,-2,-3,0,0,8,1,-1,1,0,-183,-167,111,-108,-7,252,0,0,0,171,168,169,170,1,1828
23.0162189,-2,-3,0,0,8,1,-1,1,0,-183,-167,111,-108,-7,252,0,0,0,170,169,175,164,1,1829
23.027153968,-2,-3,0,-2,-1,-5,-1,1,0,-183,-167,111,-108,-7,252,0,0,0,170,169,175,164,1,1830
23.045158863,-2,-3,0,-2,-1,-5,-1,1,0,-84,-111,220,-113,6,3,0,0,0,171,168,169,170,1,1831
23.0561769,-2,-3,0,3,-2,-1,-1,1,0,86,-93,229,-114,15,9,0,0,0,171,168,169,170,1,1832
23.067106008,-2,-3,0,-1,-5,0,-1,0,0,86,-93,229,-114,15,9,0,0,0,167,172,168,171,1,1833
23.079881906,-2,-3,0,-1,-5,0,-1,0,0,86,-93,229,-114,15,9,0,0,0,170,169,166,173,1,1834
23.097233057,-2,-4,0,-2,2,0,0,0,0,157,230,110,-108,13,12,0,0,0,171,168,171,168,1,1835
23.108146906,-1,-4,0,1,0,3,0,0,0,213,-58,190,-98,0,11,0,0,0,171,168,171,168,1,1836
23.119156837,-1,-4,0,1,0,3,0,0,0,213,-58,190,-98,0,11,0,0,0,169,170,169,170,1,1837
23.130486011,-1,-4,0,0,-1,-3,0,0,0,213,-58,190,-98,0,11,0,0,0,169,170,169,170,1,1838
23.148241996,-1,-4,0,0,-1,-3,0,0,0,67,105,49,-80,-19,6,0,0,0,170,169,168,171,1,1839
23.159251928,-2,-5,0,-2,1,-1,0,0,0,11,-201,34,-56,-40,254,0,0,0,170,169,168,171,1,1840
23.170218944,-1,-5,0,4,2,1,0,0,-1,11,-201,34,-56,-40,254,0,0,0,171,168,171,168,1,1841
23.181143999,-1,-5,0,4,2,1,0,0,-1,11,-201,34,-56,-40,254,0,0,0,167,172,171,168,1,1842
23.201567888,-2,-5,0,-1,2,0,0,0,0,225,-56,195,-23,-53,242,0,0,0,171,168,171,168,1,1843
23.211385965,-2,-5,0,-1,-1,0,0,0,0,34,91,87,13,-57,231,0,0,0,171,168,171,168,1,1844
23.222223043,-2,-5,0,-1,-1,0,0,0,0,34,91,87,13,-57,231,0,0,0,170,169,169,170,1,1845
23.235322952,-2,-5,0,-2,2,-4,0,0,0,34,91,87,13,-57,231,0,0,0,171,168,171,168,1,1846
23.251319885,-2,-5,0,-2,2,-4,0,0,0,-198,13,23,51,-53,222,0,0,0,171,168,171,168,1,1847
23.262246847,-2,-5,0,-4,-3,-3,0,0,0,12,113,65,84,-43,219,0,0,0,171,168,171,168,1,1848
23.273579835,-2,-5,0,-4,-3,-3,0,0,0,12,113,65,84,-43,219,0,0,0,172,167,167,172,1,1849
23.284137964,-2,-5,0,-1,-1,1,0,0,0,12,113,65,84,-43,219,0,0,0,172,167,167,172,1,1850
23.307127952,-2,-4,0,-1,-1,1,0,0,0,-21,-87,50,106,-29,223,0,0,0,170,169,169,170,1,1851
23.314111948,-2,-4,0,0,-2,-3,0,0,0,45,79,80,113,-15,233,0,0,0,170,169,169,170,1,1852
23.325883865,-2,-4,0,-4,-6,0,0,0,0,45,79,80,113,-15,233,0,0,0,169,170,168,171,1,1853
23.336139917,-2,-4,0,-4,-6,0,0,0,0,45,79,80,113,-15,233,0,0,0,172,167,166,173,1,1854
23.354207992,-2,-3,0,1,0,0,-1,0,-1,16,-197,20,102,-1,249,0,0,0,169,170,169,170,1,1855
23.365185022,-2,-3,0,-6,0,-3,-1,0,-1,-36,-86,117,78,10,11,0,0,0,169,170,169,170,1,1856
23.376230001,-2,-3,0,-6,0,-3,-1,0,-1,-36,-86,117,78,10,11,0,0,0,173,166,169,170,1,1857
23.387153864,-2,-3,0,2,5,0,-1,0,-1,-36,-86,117,78,10,11,0,0,0,168,171,173,166,1,1858
23.406120061,-2,-3,0,2,5,0,-1,0,-1,-163,-56,91,47,16,30,0,0,0,168,171,173,166,1,1859
23.418570041,-2,-2,0,-1,3,0,-2,-1,-1,-177,-48,12,14,15,47,0,0,0,168,171,173,166,1,1860
23.428030967,-2,-2,0,-4,-6,0,-2,-2,-1,-177,-48,12,14,15,47,0,0,0,171,168,172,167,1,1861
23.439147949,-2,-2,0,-4,-6,0,-2,-2,-1,-177,-48,12,14,15,47,0,0,0,172,167,166,173,1,1862
23.458348989,-2,-2,0,1,1,1,-2,-2,-1,7,172,29,-13,6,60,0,0,0,168,171,170,169,1,1863
23.469187975,-2,-2,0,-1,-1,2,-1,-1,-1,-48,-41,239,-37,-8,69,0,0,0,168,171,170,169,1,1864
23.480113029,-2,-2,0,-1,-1,2,-1,-1,-1,-48,-41,239,-37,-8,69,0,0,0,170,169,169,170,1,1865
23.491106987,-2,-2,0,4,2,3,-1,-1,0,-48,-41,239,-37,-8,69,0,0,0,167,172,171,168,1,1866
23.509112835,-2,-2,0,4,2,3,-1,-1,0,-56,-95,245,-55,-25,70,0,0,0,167,172,171,168,1,1867
23.520089864,-2,-2,0,-1,4,1,-1,0,0,149,-60,67,-69,-39,62,0,0,0,167,172,171,168,1,1868
23.531283855,-2,-2,0,-1,4,1,-1,0,0,149,-60,67,-69,-39,62,0,0,0,170,169,172,167,1,1869
23.542357921,-2,-2,0,-1,-6,-2,-1,0,0,149,-60,67,-69,-39,62,0,0,0,170,169,172,167,1,1870
23.560143947,-2,-2,0,-1,-6,-2,-1,0,0,50,-215,86,-76,-47,45,0,0,0,170,169,166,173,1,1871
23.571249008,-2,-2,0,0,-5,-4,0,0,0,-101,0,5,-76,-48,23,0,0,0,170,169,166,173,1,1872
23.582124948,-2,-2,0,3,6,2,0,0,1,-101,0,5,-76,-48,23,0,0,0,169,170,166,173,1,1873
23.593209982,-2,-2,0,3,6,2,0,0,1,-101,0,5,-76,-48,23,0,0,0,167,172,173,166,1,1874
23.61213088,-2,-2,0,1,-2,-3,0,0,1,-63,-38,87,-68,-47,1,0,0,0,168,171,168,171,1,1875
23.623446941,-2,-3,0,2,0,-1,0,0,1,57,180,36,-53,-45,242,0,0,0,168,171,168,171,1,1876
23.634217023,-2,-3,0,2,0,-1,0,0,1,57,180,36,-53,-45,242,0,0,0,168,171,170,169,1,1877
23.645087957,-2,-3,0,-3,0,-1,0,0,0,57,180,36,-53,-45,242,0,0,0,172,167,169,170,1,1878
