TiempoEjecucion,AnguloPitch,AnguloRoll,AnguloYaw,G_Pitch,G_Roll,G_Yaw,G_Pitch_filtrada,G_Roll_filtrada,G_Yaw_filtrada,Ax,Ay,Az,Ax_filtrada,Ay_filtrada,Az_filtrada,posZ,posZ_filtrada,velZ,motorDelantero,motorTrasero,motorDerecho,motorIzquierdo,EstadoEncendido,MensajesRecibidos
83.794993162,0,-2,-54,-1,-1,-2,0,0,0,-24,13,84,-1,-32,201,6,4,0,169,170,170,169,1,7562
83.80599618,0,-2,-54,-1,-1,-2,0,0,0,-24,13,84,-1,-32,201,6,4,0,170,169,169,170,1,7563
83.824972153,0,-2,-54,1,0,1,0,0,0,-49,-119,0,-9,-44,197,6,4,0,169,170,170,169,1,7564
83.8392272,0,-2,-54,0,0,-2,0,0,0,125,-72,9,-17,-52,203,6,4,0,169,170,170,169,1,7565
83.847227097,0,-2,-54,1,0,2,0,0,0,125,-72,9,-17,-52,203,6,4,0,170,169,169,170,1,7566
83.85811019,0,-2,-54,1,0,2,0,0,0,78,-96,186,-24,-55,218,6,4,0,169,170,170,169,1,7567
83.876969099,0,-2,-54,-1,0,-2,0,0,0,78,-96,186,-24,-55,218,6,4,0,170,169,169,170,1,7568
83.888275147,0,-2,-55,0,0,0,0,0,-1,-192,-22,169,-28,-55,240,6,4,0,170,169,169,170,1,7569
83.899054051,0,-2,-55,0,0,0,0,0,-1,-192,-22,169,-28,-55,240,6,4,0,169,170,169,170,1,7570
83.911139012,0,-2,-55,-1,0,0,0,0,0,-192,-22,169,-28,-55,240,6,4,0,169,170,169,170,1,7571
83.928166151,0,-2,-55,-1,0,0,0,0,0,-146,-9,118,-27,-54,6,6,4,0,170,169,170,169,1,7572
83.93902421,0,-2,-55,0,0,0,0,0,0,-124,-36,241,-22,-52,22,6,4,0,170,169,170,169,1,7573
83.949927092,0,-2,-55,0,0,0,0,0,0,-124,-36,241,-22,-52,22,6,4,0,169,170,169,170,1,7574
83.960964203,0,-2,-55,-1,-1,-1,0,0,0,-124,-36,241,-22,-52,22,6,4,0,170,169,169,170,1,7575
83.979959011,0,-2,-55,-1,-1,-1,0,0,0,14,144,10,-17,-52,28,6,4,0,170,169,169,170,1,7576
83.991064072,0,-2,-55,0,0,-1,0,0,0,-70,74,135,-15,-50,22,6,4,0,170,169,169,170,1,7577
84.001923084,0,-2,-55,0,0,-1,0,0,0,-70,74,135,-15,-50,22,6,4,0,170,169,169,170,1,7578
84.012906075,0,-2,-55,1,0,1,0,0,0,-70,74,135,-15,-50,22,6,4,0,168,171,170,169,1,7579
84.030984164,0,-2,-55,1,0,1,0,0,0,-59,-14,2,-20,-47,5,6,4,0,168,171,170,169,1,7580
84.041975022,-1,-2,-55,0,0,0,0,0,0,-115,75,55,-31,-38,239,6,4,0,168,171,170,169,1,7581
84.053035021,-1,-2,-55,-1,-1,-2,0,0,0,-115,75,55,-31,-38,239,6,4,0,169,170,170,169,1,7582
84.063971043,-1,-2,-55,-1,-1,-2,0,0,0,-115,75,55,-31,-38,239,6,4,0,171,168,169,170,1,7583
84.084007979,-1,-2,-55,0,0,0,0,0,0,-147,-26,70,-45,-25,217,6,4,0,170,169,169,170,1,7584
84.093923092,-1,-2,-55,0,0,0,0,0,0,-101,-9,66,-61,-7,200,6,4,0,170,169,169,170,1,7585
84.104959011,-1,-2,-55,0,0,0,0,0,0,-101,-9,66,-61,-7,200,6,4,0,170,169,170,169,1,7586
84.115998984,-1,-3,-55,0,0,0,0,0,0,31,-13,239,-74,11,193,6,4,0,170,169,170,169,1,7587
84.135028124,-1,-3,-55,0,0,-2,0,0,0,31,-13,239,-74,11,193,6,4,0,170,169,169,170,1,7588
84.152091027,-1,-3,-55,0,0,-1,0,0,0,93,-96,1,-86,27,198,6,4,0,170,169,169,170,1,7589
84.157258034,-1,-3,-55,0,0,-1,0,0,0,93,-96,1,-86,27,198,6,4,0,170,169,169,170,1,7590
84.167904139,-1,-3,-55,1,0,1,0,0,0,93,-96,1,-86,27,198,6,4,0,170,169,169,170,1,7591
84.186053992,-1,-3,-55,1,0,1,0,0,0,85,-12,214,-92,38,214,6,4,0,169,170,170,169,1,7592
84.196945191,-1,-3,-55,-1,0,0,0,0,0,156,-158,162,-93,40,236,6,4,0,169,170,170,169,1,7593
84.208377123,-1,-3,-55,-1,0,0,0,0,0,156,-158,162,-93,40,236,6,4,0,170,169,170,169,1,7594
84.219156981,-1,-3,-55,0,0,-1,0,0,0,156,-158,162,-93,40,236,6,4,0,170,169,169,170,1,7595
84.236968041,-1,-4,-55,0,0,-1,0,0,0,-34,-71,17,-83,32,3,6,4,0,170,169,169,170,1,7596
84.248291016,0,-4,-55,-1,0,-2,0,0,0,-57,-24,137,-64,16,20,6,4,0,170,169,169,170,1,7597
84.259102106,0,-4,-55,-2,0,0,0,0,0,-57,-24,137,-64,16,20,6,4,0,170,169,169,170,1,7598
84.270075083,0,-4,-55,-2,0,0,0,0,0,-57,-24,137,-64,16,20,6,4,0,171,168,170,169,1,7599
84.288943053,0,-4,-55,0,0,-2,0,0,0,-172,19,189,-35,-5,27,6,4,0,169,170,169,170,1,7600
84.300096035,0,-4,-55,-1,0,-1,0,0,0,-18,13,26,-4,-30,24,6,4,0,169,170,169,170,1,7601
84.311105013,0,-4,-55,-1,0,-1,0,0,0,-18,13,26,-4,-30,24,6,4,0,170,169,169,170,1,7602
84.321966171,0,-4,-55,1,0,1,0,0,0,-18,13,26,-4,-30,24,6,4,0,169,170,170,169,1,7603
84.341137171,0,-4,-55,0,1,0,0,0,-1,41,-19,13,22,-52,11,6,4,0,170,169,170,169,1,7604
84.352097988,-1,-4,-55,1,0,2,0,0,-1,-112,105,17,37,-67,248,6,4,0,170,169,170,169,1,7605
84.363084078,-1,-4,-55,1,0,2,0,0,-1,-112,105,17,37,-67,248,6,4,0,168,171,170,169,1,7606
84.374085188,-1,-4,-55,0,0,-1,0,0,-1,-112,105,17,37,-67,248,6,4,0,168,171,170,169,1,7607
84.392054081,-1,-4,-55,0,0,-1,0,0,-1,-100,-31,47,38,-71,229,6,4,0,169,170,169,170,1,7608
84.403082133,-1,-4,-55,0,0,-1,0,0,0,55,2,182,26,-65,214,6,4,0,169,170,169,170,1,7609
84.421653986,-1,-4,-55,0,0,-1,0,0,0,55,2,182,26,-65,214,6,4,0,169,170,169,170,1,7610
84.424945116,-1,-4,-55,-2,0,-1,0,0,0,55,2,182,26,-65,214,6,4,0,169,170,169,170,1,7611
84.447099209,-1,-4,-55,-2,0,-1,0,0,0,70,-77,246,5,-50,207,6,4,0,171,168,170,169,1,7612
84.454945088,-1,-4,-55,-2,0,-1,0,0,0,21,-4,82,-18,-29,209,6,4,0,171,168,170,169,1,7613
84.465964079,-1,-4,-55,-2,0,-1,0,0,0,21,-4,82,-18,-29,209,6,4,0,171,168,169,170,1,7614
84.475992203,-1,-3,-55,1,0,2,0,0,0,21,-4,82,-18,-29,209,6,4,0,169,170,169,170,1,7615
84.495063067,-2,-4,-55,1,0,2,0,0,0,46,6,7,-39,-7,218,6,4,0,169,170,169,170,1,7616
84.505911112,-2,-4,-55,0,0,2,0,0,0,75,64,222,-51,8,228,6,4,0,169,170,169,170,1,7617
84.519181013,-2,-3,-55,-1,0,-1,0,0,0,75,64,222,-51,8,228,6,4,0,170,169,170,169,1,7618
84.527932167,-2,-3,-55,-1,0,-1,0,0,0,75,64,222,-51,8,228,6,4,0,170,169,170,169,1,7619
84.546916008,-2,-4,-55,0,0,-1,0,0,0,197,-17,55,-51,18,237,6,4,0,170,169,170,169,1,7620
84.558008194,-1,-4,-55,2,0,-1,0,0,0,145,-26,27,-39,20,241,6,4,0,170,169,170,169,1,7621
84.575213194,-1,-4,-55,2,0,-1,0,0,0,145,-26,27,-39,20,241,6,4,0,168,171,169,170,1,7622
84.579927206,-1,-4,-55,1,0,2,0,0,0,145,-26,27,-39,20,241,6,4,0,168,171,170,169,1,7623
84.598004103,-1,-4,-55,1,0,2,0,0,0,108,-63,105,-16,17,240,6,4,0,168,171,170,169,1,7624
84.609000206,-1,-4,-55,-3,0,-2,0,0,0,-11,-27,54,14,10,238,6,4,0,168,171,170,169,1,7625
84.620068073,-1,-4,-55,0,0,-1,0,0,0,-11,-27,54,14,10,238,6,4,0,171,168,170,169,1,7626
84.635164976,-1,-4,-55,0,0,-1,0,0,0,99,-57,167,49,2,237,6,4,0,169,170,169,170,1,7627
84.650021076,-1,-4,-55,0,0,2,0,0,0,99,-57,167,49,2,237,6,4,0,170,169,169,170,1,7628
84.661465168,-1,-3,-55,0,0,1,0,0,0,13,-137,6,81,-5,241,6,4,0,170,169,169,170,1,7629
84.671962023,-1,-3,-55,0,0,1,0,0,0,13,-137,6,81,-5,241,6,4,0,169,170,169,170,1,7630
84.682915211,-1,-3,-55,-2,0,-2,0,0,0,13,-137,6,81,-5,241,6,4,0,171,168,169,170,1,7631
84.700927019,-1,-3,-55,-2,0,-2,0,0,0,12,-16,162,107,-14,248,6,4,0,171,168,169,170,1,7632
84.711982012,-1,-3,-55,-1,0,-2,0,0,0,83,-44,180,121,-23,2,6,4,0,171,168,169,170,1,7633
84.723052979,-1,-3,-55,1,0,1,0,0,0,83,-44,180,121,-23,2,6,4,0,170,169,170,169,1,7634
84.734314203,-1,-3,-55,1,0,1,0,0,0,83,-44,180,121,-23,2,6,4,0,169,170,170,169,1,7635
84.75385809,-1,-2,-55,-1,0,-3,0,0,0,71,-3,99,122,-33,11,6,4,0,170,169,169,170,1,7636
84.763970137,-1,-2,-55,0,0,0,0,0,0,55,-28,164,111,-43,13,6,4,0,170,169,169,170,1,7637
84.774991989,-1,-2,-55,0,0,0,0,0,0,55,-28,164,111,-43,13,6,4,0,170,169,169,170,1,7638
84.791127205,-1,-2,-55,0,0,0,0,0,0,55,-28,164,111,-43,13,6,4,0,169,170,169,170,1,7639
84.807030201,-1,-1,-55,-1,-1,0,0,0,0,-31,-91,201,93,-50,7,6,4,0,171,168,168,171,1,7640
84.815895081,-2,-1,-55,0,0,0,0,0,0,-99,-104,4,72,-55,249,6,4,0,171,168,168,171,1,7641
84.82706213,-2,-1,-55,0,0,0,0,0,0,-99,-104,4,72,-55,249,6,4,0,170,169,169,170,1,7642
84.837933064,-1,-1,-55,-2,0,-2,0,0,0,-99,-104,4,72,-55,249,6,4,0,171,168,170,169,1,7643
84.856956005,-2,0,-55,0,1,0,0,0,0,28,48,174,52,-57,228,6,4,0,169,170,170,169,1,7644
84.86818409,-2,0,-55,-1,0,-2,0,0,0,52,128,25,35,-56,204,6,4,0,169,170,170,169,1,7645
84.878926993,-2,0,-55,-1,0,-2,0,0,0,52,128,25,35,-56,204,6,4,0,171,168,169,170,1,7646
84.890033007,-2,0,-55,0,0,0,0,0,0,52,128,25,35,-56,204,6,4,0,171,168,169,170,1,7647
84.907896042,-2,0,-55,0,0,0,0,0,0,70,75,16,21,-53,184,6,4,0,169,170,169,170,1,7648
84.918956995,-2,0,-55,1,0,0,0,0,0,115,-2,227,10,-46,171,6,4,0,169,170,169,170,1,7649
84.929926157,-2,0,-55,1,0,0,0,0,0,115,-2,227,10,-46,171,6,4,0,169,170,170,169,1,7650
84.943099976,-2,0,-55,1,0,0,0,0,0,115,-2,227,10,-46,171,6,4,0,169,170,170,169,1,7651
84.958974123,-3,0,-55,1,0,0,0,0,0,1,-13,228,4,-36,169,6,4,0,168,171,170,169,1,7652
84.970141173,-3,0,-55,0,0,0,0,0,0,-27,40,180,3,-21,176,6,4,0,168,171,170,169,1,7653
84.981238127,-3,0,-55,0,0,0,0,0,0,-27,40,180,3,-21,176,6,4,0,169,170,170,169,1,7654
84.992012024,-3,0,-55,0,0,0,0,0,0,-27,40,180,3,-21,176,6,4,0,170,169,169,170,1,7655
85.010035038,-3,0,-55,0,0,0,0,0,0,6,9,117,7,-4,191,6,4,0,170,169,169,170,1,7656
85.020905018,-3,0,-55,0,0,-1,0,0,0,27,-102,220,15,12,210,6,4,0,170,169,169,170,1,7657
85.031920195,-3,0,-55,0,0,-1,0,0,0,27,-102,220,15,12,210,6,4,0,170,169,170,169,1,7658
85.043002129,-3,0,-55,0,1,0,0,0,0,27,-102,220,15,12,210,6,4,0,169,170,170,169,1,7659
85.060986996,-3,0,-55,0,1,0,0,0,0,-50,-42,176,25,26,225,6,4,0,169,170,170,169,1,7660
85.07208705,-3,0,-55,-1,0,1,0,0,0,25,-31,22,32,34,235,6,4,0,169,170,170,169,1,7661
85.082944155,-3,0,-55,0,0,0,0,0,0,25,-31,22,32,34,235,6,4,0,170,169,169,170,1,7662
85.095138073,-3,0,-55,0,0,0,0,0,0,25,-31,22,32,34,235,6,4,0,170,169,169,170,1,7663
85.11344719,-2,0,-55,0,0,0,0,0,0,1,-36,225,35,34,236,6,4,0,169,170,170,169,1,7664
85.123915196,-2,0,-55,1,0,0,0,0,0,77,30,193,33,26,230,6,4,0,169,170,170,169,1,7665
85.134976149,-2,0,-55,-1,0,0,0,0,0,77,30,193,33,26,230,6,4,0,169,170,170,169,1,7666
85.14606309,-2,0,-55,-1,0,0,0,0,0,87,7,201,26,11,220,6,4,0,170,169,169,170,1,7667
85.165008068,-2,0,-55,0,0,-3,0,0,0,87,7,201,26,11,220,6,4,0,169,170,169,170,1,7668
85.175990105,-2,1,-55,-1,0,0,0,0,0,-53,38,208,18,-5,210,6,4,0,169,170,169,170,1,7669
85.191095114,-2,1,-55,-1,0,0,0,0,0,-53,38,208,18,-5,210,6,4,0,171,168,169,170,1,7670
85.19802618,-2,1,-55,0,0,0,0,0,0,-53,38,208,18,-5,210,6,4,0,171,168,169,170,1,7671
85.215933085,-2,1,-55,0,0,0,0,0,0,14,-49,210,12,-21,202,6,4,0,170,169,170,169,1,7672
85.227128983,-2,1,-55,0,0,1,0,0,0,-148,-49,15,8,-31,198,6,4,0,170,169,170,169,1,7673
85.237995148,-2,1,-55,0,0,1,0,0,0,-148,-49,15,8,-31,198,6,4,0,169,170,170,169,1,7674
85.249078989,-2,1,-55,1,0,-1,0,0,0,-148,-49,15,8,-31,198,6,4,0,168,171,170,169,1,7675
85.267991066,-2,1,-55,1,0,-1,0,0,0,-130,20,179,7,-35,198,6,4,0,168,171,170,169,1,7676
85.279033184,-2,1,-55,2,0,-1,0,0,0,-18,-8,212,7,-32,200,6,4,0,168,171,170,169,1,7677
85.289896012,-2,1,-55,2,1,1,0,0,0,-18,-8,212,7,-32,200,6,4,0,168,171,170,169,1,7678
85.301000118,-2,1,-55,2,1,1,0,0,0,-18,-8,212,7,-32,200,6,4,0,168,171,170,169,1,7679
85.319920063,-2,1,-55,0,0,-2,0,0,0,41,1,244,5,-25,205,6,4,0,169,170,169,170,1,7680
85.331060171,-2,1,-55,-2,0,0,0,0,0,-48,-6,239,-2,-17,211,6,4,0,169,170,169,170,1,7681
85.34197402,-2,1,-55,-2,0,0,0,0,0,-48,-6,239,-2,-17,211,6,4,0,171,168,169,170,1,7682
85.352943182,-2,1,-55,0,0,0,0,0,0,-48,-6,239,-2,-17,211,6,4,0,170,169,169,170,1,7683
85.371113062,-2,1,-55,-3,-1,-1,0,0,0,-108,-13,232,-13,-9,217,6,4,0,172,167,169,170,1,7684
85.382299185,-2,1,-55,0,0,1,1,0,0,-68,-26,52,-27,-3,221,6,4,0,172,167,169,170,1,7685
85.393027067,-2,1,-55,0,0,1,1,0,0,-68,-26,52,-27,-3,221,6,4,0,170,169,170,169,1,7686
85.403974056,-2,1,-55,-1,0,-1,0,0,0,-68,-26,52,-27,-3,221,6,4,0,170,169,170,169,1,7687
85.422947169,-2,1,-55,-1,0,-1,0,0,0,-40,28,186,-40,0,225,6,4,0,170,169,169,170,1,7688
85.433948994,-2,0,-55,3,0,0,0,0,0,-60,-46,54,-51,0,228,6,4,0,170,169,169,170,1,7689
85.444928169,-2,0,-55,3,0,0,0,0,0,-60,-46,54,-51,0,228,6,4,0,168,171,170,169,1,7690
85.455924034,-2,0,-55,2,1,1,0,0,0,-60,-46,54,-51,0,228,6,4,0,168,171,170,169,1,7691
85.473994017,-2,0,-55,2,1,1,0,0,0,15,42,242,-59,0,232,6,4,0,168,171,170,169,1,7692
85.484944105,-2,0,-55,-2,-1,-1,0,0,0,38,-70,62,-63,-3,236,6,4,0,168,171,170,169,1,7693
85.497017145,-2,0,-55,-2,-1,-1,0,0,0,38,-70,62,-63,-3,236,6,4,0,171,168,169,170,1,7694
85.506973028,-2,0,-55,0,0,-1,-1,0,0,38,-70,62,-63,-3,236,6,4,0,170,169,169,170,1,7695
85.525103092,-2,0,-55,0,0,-1,-1,0,0,-41,70,3,-63,-6,241,6,4,0,170,169,169,170,1,7696
85.5360322,-2,0,-55,-1,0,1,-1,0,0,28,63,83,-59,-8,247,6,4,0,170,169,169,170,1,7697
85.546970129,-2,0,-55,-2,0,-1,0,0,0,28,63,83,-59,-8,247,6,4,0,171,168,170,169,1,7698
85.558281183,-2,0,-55,-2,0,-1,0,0,0,28,63,83,-59,-8,247,6,4,0,171,168,169,170,1,7699
85.576961041,-2,0,-55,2,0,-1,0,0,0,-29,13,0,-51,-9,253,6,4,0,168,171,169,170,1,7700
85.588245154,-2,0,-55,4,0,0,0,0,0,-48,31,172,-40,-8,2,6,4,0,168,171,169,170,1,7701
85.599052191,-2,0,-55,4,0,0,0,0,0,-48,31,172,-40,-8,2,6,4,0,167,172,170,169,1,7702
85.610972166,-2,0,-55,1,1,1,0,0,0,-48,31,172,-40,-8,2,6,4,0,168,171,170,169,1,7703
85.628931046,-2,0,-55,0,0,-1,0,0,0,88,-30,186,-28,-4,3,6,4,0,170,169,170,169,1,7704
85.639980078,-2,0,-55,0,1,1,0,0,0,206,103,194,-15,2,255,6,4,0,170,169,170,169,1,7705
85.651057005,-2,0,-55,0,1,1,0,0,0,206,103,194,-15,2,255,6,4,0,169,170,170,169,1,7706
85.662060023,-2,0,-55,0,0,0,0,0,0,206,103,194,-15,2,255,6,4,0,169,170,170,169,1,7707
85.679979086,-2,0,-55,0,0,0,0,0,0,-15,47,169,-5,10,245,6,4,0,169,170,169,170,1,7708
85.69096613,-2,0,-55,0,0,-1,0,0,0,-32,53,75,4,18,232,6,4,0,169,170,169,170,1,7709
85.701961041,-2,0,-55,0,0,-1,0,0,0,-32,53,75,4,18,232,6,4,0,169,170,169,170,1,7710
85.712954998,-2,0,-55,-3,0,-2,0,0,0,-32,53,75,4,18,232,6,4,0,171,168,169,170,1,7711
85.731266976,-2,0,-55,-3,0,-2,0,0,0,-107,61,37,15,26,217,6,4,0,171,168,169,170,1,7712
85.741959095,-1,0,-55,-1,0,-1,0,0,0,-58,45,64,25,33,204,6,4,0,171,168,169,170,1,7713
85.753018141,-1,0,-55,3,0,0,0,0,0,-58,45,64,25,33,204,6,4,0,171,168,169,170,1,7714
85.763967991,-1,0,-55,3,0,0,0,0,0,-58,45,64,25,33,204,6,4,0,168,171,170,169,1,7715
85.783346176,-1,0,-55,0,0,0,0,0,0,-48,-76,255,32,39,196,6,4,0,170,169,169,170,1,7716
85.793992043,-1,0,-55,0,0,1,0,0,0,62,-122,131,33,44,197,6,4,0,170,169,169,170,1,7717
85.804927111,-1,0,-55,0,0,1,0,0,0,62,-122,131,33,44,197,6,4,0,170,169,170,169,1,7718
85.815998078,-1,0,-55,0,0,0,0,0,0,62,-122,131,33,44,197,6,4,0,169,170,169,170,1,7719
85.834966183,-1,0,-55,-1,0,0,0,0,0,86,-165,239,27,46,207,6,4,0,171,168,169,170,1,7720
85.846019984,-1,0,-55,2,0,0,0,0,0,-5,16,176,16,43,222,6,4,0,171,168,169,170,1,7721
85.856945038,-1,0,-55,2,0,0,0,0,0,-5,16,176,16,43,222,6,4,0,168,171,170,169,1,7722
85.868035078,-1,0,-55,-2,0,-1,0,0,0,-5,16,176,16,43,222,6,4,0,171,168,170,169,1,7723
85.887060166,0,0,-55,2,0,-1,0,0,0,-111,2,138,1,32,238,6,4,0,168,171,170,169,1,7724
85.898017168,0,0,-55,0,0,-1,0,0,0,-109,39,227,-10,14,251,6,4,0,168,171,170,169,1,7725
85.908976078,0,0,-55,0,0,-1,0,0,0,-109,39,227,-10,14,251,6,4,0,170,169,169,170,1,7726
85.92013216,0,0,-55,4,0,0,0,0,0,-109,39,227,-10,14,251,6,4,0,170,169,169,170,1,7727
85.938070059,0,0,-55,4,0,0,0,0,0,-3,52,30,-18,-7,255,6,4,0,167,172,170,169,1,7728
85.948988199,0,0,-55,0,0,1,0,0,0,-90,-45,227,-23,-29,251,6,4,0,167,172,170,169,1,7729
85.960022211,0,0,-55,-1,0,0,0,0,0,-90,-45,227,-23,-29,251,6,4,0,170,169,170,169,1,7730
85.970944166,0,0,-55,-1,0,0,0,0,0,-90,-45,227,-23,-29,251,6,4,0,171,168,169,170,1,7731
85.989939213,0,0,-55,1,0,0,0,0,0,-160,24,238,-26,-45,240,6,4,0,169,170,170,169,1,7732
86.001155138,0,0,-55,1,0,0,0,0,0,-141,-7,207,-29,-52,226,6,4,0,169,170,170,169,1,7733
86.011934996,0,0,-55,1,0,0,0,0,0,-141,-7,207,-29,-52,226,6,4,0,169,170,170,169,1,7734
86.023296118,0,0,-55,-1,0,1,0,0,0,-141,-7,207,-29,-52,226,6,4,0,171,168,169,170,1,7735
86.041037083,0,0,-55,-1,0,1,0,0,0,-94,17,169,-36,-48,214,6,4,0,171,168,169,170,1,7736
86.051954985,0,0,-55,-1,0,-1,0,0,0,-75,31,227,-46,-37,206,6,4,0,171,168,169,170,1,7737
86.062985182,0,0,-55,3,0,0,0,0,0,-75,31,227,-46,-37,206,6,4,0,170,169,169,170,1,7738
86.077119112,0,0,-55,3,0,0,0,0,0,-75,31,227,-46,-37,206,6,4,0,167,172,170,169,1,7739
86.092956066,-1,0,-55,0,0,0,0,0,0,4,-72,176,-59,-20,203,6,4,0,170,169,170,169,1,7740
86.10563612,-1,-1,-55,3,0,0,0,0,0,-117,23,57,-75,-4,204,6,4,0,170,169,170,169,1,7741
86.115111113,-1,-1,-55,3,0,0,0,0,0,-117,23,57,-75,-4,204,6,4,0,168,171,170,169,1,7742
86.126018048,-1,-1,-55,-2,0,-1,0,0,0,-117,23,57,-75,-4,204,6,4,0,171,168,169,170,1,7743
86.144896031,-1,-1,-55,-2,0,-1,0,0,0,-89,37,230,-90,9,207,6,4,0,171,168,169,170,1,7744
86.155987025,-1,-1,-55,-2,0,-1,0,0,0,-11,122,188,-101,18,212,6,4,0,171,168,169,170,1,7745
86.171166182,-1,-1,-55,-2,0,-1,0,0,0,-11,122,188,-101,18,212,6,4,0,171,168,169,170,1,7746
86.178165198,-1,-1,-55,-1,0,0,0,0,0,-11,122,188,-101,18,212,6,4,0,171,168,169,170,1,7747
86.196041107,-1,-2,-55,-1,0,0,0,0,0,57,14,94,-105,22,216,6,4,0,171,168,169,170,1,7748
86.206957102,-1,-2,-55,1,0,1,0,0,0,27,39,227,-103,22,221,6,4,0,171,168,169,170,1,7749
86.217979193,0,-2,-55,0,0,0,0,0,0,27,39,227,-103,22,221,6,4,0,169,170,169,170,1,7750
86.229004145,0,-2,-55,0,0,0,0,0,0,27,39,227,-103,22,221,6,4,0,169,170,169,170,1,7751
86.248161078,0,-2,-55,0,0,1,0,0,0,23,28,243,-93,20,227,6,4,0,170,169,170,169,1,7752
86.258933068,0,-3,-55,2,0,0,0,0,0,-38,-123,246,-78,20,233,6,4,0,170,169,170,169,1,7753
86.27137208,0,-3,-55,-1,0,0,0,0,0,-38,-123,246,-78,20,233,6,4,0,168,171,170,169,1,7754
86.281012058,0,-3,-55,-1,0,0,0,0,0,-38,-123,246,-78,20,233,6,4,0,170,169,169,170,1,7755
86.300137043,0,-3,-55,1,0,0,0,0,0,30,-44,188,-57,22,239,6,4,0,169,170,169,170,1,7756
86.310976982,0,-3,-55,-1,0,-2,0,0,0,-20,-60,173,-34,24,245,6,4,0,169,170,169,170,1,7757
86.322391987,0,-3,-55,-1,0,-2,0,0,0,-20,-60,173,-34,24,245,6,4,0,170,169,169,170,1,7758
86.335285187,0,-3,-55,-2,0,0,0,0,0,-20,-60,173,-34,24,245,6,4,0,171,168,169,170,1,7759
86.351936102,0,-3,-55,-2,0,-2,0,0,0,-76,-4,186,-12,23,249,6,4,0,171,168,170,169,1,7760
86.363012076,0,-3,-55,-1,0,0,0,0,0,55,4,0,4,18,250,6,4,0,171,168,170,169,1,7761
86.373983145,0,-3,-55,0,0,-1,0,0,0,55,4,0,4,18,250,6,4,0,170,169,169,170,1,7762
86.38690114,0,-3,-55,0,0,-1,0,0,0,55,4,0,4,18,250,6,4,0,169,170,170,169,1,7763
86.403277159,0,-3,-55,4,0,0,0,0,0,1,51,247,16,8,247,6,4,0,167,172,170,169,1,7764
86.414024115,0,-3,-55,2,1,0,0,0,0,11,134,195,19,-3,239,6,4,0,167,172,170,169,1,7765
86.425021172,0,-3,-55,2,1,0,0,0,0,11,134,195,19,-3,239,6,4,0,168,171,170,169,1,7766
86.436010123,0,-3,-55,-1,0,0,0,0,0,11,134,195,19,-3,239,6,4,0,168,171,170,169,1,7767
86.454989195,0,-3,-55,-1,0,0,0,0,0,-61,-13,72,17,-15,230,6,4,0,171,168,169,170,1,7768
86.465917111,0,-3,-55,0,-1,-2,0,0,0,-149,17,49,11,-22,221,6,4,0,171,168,169,170,1,7769
86.479104996,0,-3,-55,2,-1,1,0,0,0,-149,17,49,11,-22,221,6,4,0,170,169,169,170,1,7770
86.488157988,0,-3,-55,2,-1,1,0,0,0,-149,17,49,11,-22,221,6,4,0,168,171,169,170,1,7771
86.507062197,0,-3,-55,-3,-1,0,0,0,0,9,-126,139,2,-22,215,6,4,0,171,168,168,171,1,7772
86.516923189,0,-3,-55,-1,0,0,0,0,0,16,-13,22,-6,-15,215,6,4,0,171,168,168,171,1,7773
86.527993202,0,-3,-55,-1,0,0,0,0,0,16,-13,22,-6,-15,215,6,4,0,170,169,170,169,1,7774
86.540767193,0,-3,-55,0,1,-1,0,0,0,16,-13,22,-6,-15,215,6,4,0,170,169,170,169,1,7775
86.557892084,0,-3,-55,0,1,-1,0,0,0,-26,-48,209,-16,-3,223,6,4,0,170,169,170,169,1,7776
86.56894207,0,-3,-55,3,0,0,0,0,0,62,-48,248,-26,6,238,6,4,0,170,169,170,169,1,7777
86.579951048,0,-3,-55,-2,-1,-1,0,0,0,62,-48,248,-26,6,238,6,4,0,168,171,169,170,1,7778
86.590927124,0,-3,-55,-2,-1,-1,0,0,0,62,-48,248,-26,6,238,6,4,0,171,168,169,170,1,7779
86.610031128,0,-3,-55,0,0,-2,0,0,0,-23,8,238,-33,12,1,6,4,0,169,170,169,170,1,7780
86.620898009,0,-3,-55,-2,0,0,0,0,0,67,-82,100,-36,11,20,6,4,0,169,170,169,170,1,7781
86.632027149,0,-3,-55,-2,0,0,0,0,0,67,-82,100,-36,11,20,6,4,0,171,168,169,170,1,7782
86.643047095,0,-3,-55,3,0,1,0,0,0,67,-82,100,-36,11,20,6,4,0,168,171,170,169,1,7783
86.661063194,0,-3,-55,3,0,1,0,0,0,102,75,200,-35,3,35,6,4,0,168,171,170,169,1,7784
86.671922207,0,-3,-55,3,0,0,0,0,0,49,-64,23,-27,-7,43,6,4,0,168,171,170,169,1,7785
86.683050156,0,-3,-55,3,0,0,0,0,0,49,-64,23,-27,-7,43,6,4,0,168,171,170,169,1,7786
86.693885088,0,-3,-55,-1,0,-1,0,0,0,49,-64,23,-27,-7,43,6,4,0,168,171,170,169,1,7787
86.712897063,0,-3,-55,0,0,1,0,0,0,25,-35,31,-15,-20,43,6,4,0,169,170,170,169,1,7788
86.723957062,0,-3,-55,0,0,-1,0,0,0,7,6,136,0,-31,37,6,4,0,169,170,170,169,1,7789
86.734940052,0,-3,-55,0,0,-1,0,0,0,7,6,136,0,-31,37,6,4,0,170,169,169,170,1,7790
86.746035099,0,-3,-55,-3,-1,-1,0,0,0,7,6,136,0,-31,37,6,4,0,172,167,168,171,1,7791
86.764070034,0,-3,-55,-3,-1,-1,0,0,0,-6,-32,218,18,-38,28,6,4,0,172,167,168,171,1,7792
86.775175095,0,-3,-55,-2,0,-1,0,0,0,-19,71,203,34,-39,16,6,4,0,172,167,168,171,1,7793
86.786143065,0,-3,-55,0,0,-1,0,0,0,-19,71,203,34,-39,16,6,4,0,171,168,169,170,1,7794
86.797010184,0,-3,-55,0,0,-1,0,0,0,-19,71,203,34,-39,16,6,4,0,169,170,170,169,1,7795
86.815908194,0,-3,-55,-4,0,-1,0,0,0,-9,-38,85,46,-37,3,6,4,0,172,167,169,170,1,7796
86.827018976,0,-2,-55,2,0,1,0,0,0,-31,-8,236,52,-30,246,6,4,0,172,167,169,170,1,7797
86.838111162,0,-2,-55,2,0,1,0,0,0,-31,-8,236,52,-30,246,6,4,0,168,171,170,169,1,7798
86.849002123,0,-2,-55,-1,-1,0,0,0,0,-31,-8,236,52,-30,246,6,4,0,170,169,169,170,1,7799
86.868000031,0,-2,-55,3,0,1,-1,0,0,-95,44,221,49,-22,232,6,4,0,167,172,170,169,1,7800
86.879220009,-1,-2,-55,0,0,0,-1,0,-1,-29,-35,219,39,-13,218,6,4,0,167,172,170,169,1,7801
86.889909029,-1,-2,-55,0,0,0,-1,0,-1,-29,-35,219,39,-13,218,6,4,0,169,170,169,170,1,7802
86.900979042,-1,-2,-55,1,0,0,-1,0,-1,-29,-35,219,39,-13,218,6,4,0,168,171,170,169,1,7803
86.918984175,-1,-2,-55,1,0,0,-1,0,-1,41,45,19,24,-4,205,6,4,0,168,171,170,169,1,7804
86.929999113,-1,-2,-55,-3,-1,-2,-1,0,0,-41,-43,236,5,2,194,6,4,0,168,171,170,169,1,7805
86.94098711,-1,-2,-55,-3,-1,-2,-1,0,0,-41,-43,236,5,2,194,6,4,0,172,167,169,170,1,7806
86.952025175,-1,-2,-55,0,0,0,0,0,0,-41,-43,236,5,2,194,6,4,0,170,169,169,170,1,7807
86.971225977,-1,-1,-55,0,0,0,0,0,0,-19,-76,213,-13,6,189,6,4,0,170,169,169,170,1,7808
86.980955124,-1,-1,-55,3,0,1,0,0,0,-42,44,208,-29,8,189,6,4,0,170,169,169,170,1,7809
86.99208808,-1,-1,-55,3,0,1,0,0,0,-42,44,208,-29,8,189,6,4,0,168,171,170,169,1,7810
87.003065109,-1,-1,-55,-2,0,-1,0,0,0,-42,44,208,-29,8,189,6,4,0,171,168,169,170,1,7811
87.022059202,-1,-1,-55,-2,0,-1,0,0,0,15,109,211,-39,7,195,6,4,0,171,168,169,170,1,7812
87.03294015,-1,-2,-55,-1,0,0,0,0,0,29,-32,237,-43,4,204,6,4,0,171,168,169,170,1,7813
87.044103146,-1,-1,-55,2,0,0,0,0,0,29,-32,237,-43,4,204,6,4,0,170,169,169,170,1,7814
87.05398202,-1,-1,-55,2,0,0,0,0,0,29,-32,237,-43,4,204,6,4,0,168,171,169,170,1,7815
87.073062182,-1,-2,-55,-3,0,-1,0,0,0,-10,0,195,-41,0,215,6,4,0,171,168,169,170,1,7816
87.08395505,0,-2,-55,1,0,1,0,0,0,-13,6,8,-35,-1,225,6,4,0,171,168,169,170,1,7817
87.094982147,0,-2,-55,1,0,1,0,0,0,-13,6,8,-35,-1,225,6,4,0,168,171,170,169,1,7818
87.105970144,0,-2,-55,1,0,0,0,0,0,-13,6,8,-35,-1,225,6,4,0,169,170,170,169,1,7819
87.125153065,0,-2,-55,3,1,1,0,0,0,-45,-76,8,-26,-2,231,6,4,0,168,171,170,169,1,7820
87.135974169,0,-2,-55,1,0,0,0,0,0,-39,-43,214,-16,0,234,6,4,0,168,171,170,169,1,7821
87.147195101,0,-2,-55,1,0,0,0,0,0,-39,-43,214,-16,0,234,6,4,0,168,171,170,169,1,7822
87.158081055,0,-2,-55,-3,-1,-1,0,0,0,-39,-43,214,-16,0,234,6,4,0,172,167,169,170,1,7823
87.176931143,0,-2,-55,-3,-1,-1,0,0,0,28,-100,51,-7,1,235,6,4,0,172,167,169,170,1,7824
87.187987089,0,-2,-55,-3,0,-1,0,0,0,-53,-51,220,-2,1,234,6,4,0,172,167,169,170,1,7825
87.198984146,0,-2,-55,-3,0,-1,0,0,0,-53,-51,220,-2,1,234,6,4,0,171,168,169,170,1,7826
87.214088202,0,-2,-55,2,0,1,0,0,0,-53,-51,220,-2,1,234,6,4,0,168,171,170,169,1,7827
87.228129149,0,-2,-55,2,0,1,0,0,0,-39,42,148,0,-1,233,6,4,0,168,171,170,169,1,7828
87.23903513,0,-2,-55,2,1,0,0,0,0,-45,-63,206,-2,-8,234,6,4,0,168,171,170,169,1,7829
87.250068188,0,-2,-55,2,1,0,0,0,0,-45,-63,206,-2,-8,234,6,4,0,168,171,170,169,1,7830
87.261110068,0,-2,-55,0,0,0,0,0,0,-45,-63,206,-2,-8,234,6,4,0,169,170,169,170,1,7831
87.279113054,0,-2,-55,0,0,0,0,0,0,-39,83,12,-7,-18,235,6,4,0,169,170,169,170,1,7832
87.290286064,0,-2,-55,1,0,0,0,0,0,36,24,161,-13,-29,236,6,4,0,169,170,169,170,1,7833
87.301211119,0,-2,-55,1,0,0,0,0,0,36,24,161,-13,-29,236,6,4,0,169,170,169,170,1,7834
87.311980009,0,-2,-55,1,0,0,0,0,0,36,24,161,-13,-29,236,6,4,0,169,170,170,169,1,7835
87.330943108,0,-2,-55,-3,0,0,0,0,0,3,18,10,-21,-37,235,6,4,0,171,168,169,170,1,7836
87.341933012,-1,-2,-55,-3,0,-2,0,0,0,40,89,88,-27,-39,232,6,4,0,171,168,169,170,1,7837
87.352971077,-1,-2,-55,-3,0,-2,0,0,0,40,89,88,-27,-39,232,6,4,0,172,167,169,170,1,7838
87.363900185,-1,-2,-55,1,0,0,0,0,0,40,89,88,-27,-39,232,6,4,0,169,170,170,169,1,7839
87.382002115,-1,-2,-55,1,0,0,0,0,0,9,-93,241,-31,-35,228,6,4,0,169,170,170,169,1,7840
87.3930192,-1,-2,-55,1,0,1,0,0,0,33,-92,39,-31,-24,225,6,4,0,169,170,170,169,1,7841
87.404071093,-1,-2,-55,-3,0,-1,0,0,0,33,-92,39,-31,-24,225,6,4,0,169,170,170,169,1,7842
87.41527319,-1,-2,-55,-3,0,-1,0,0,0,33,-92,39,-31,-24,225,6,4,0,171,168,169,170,1,7843
87.434146166,-1,-2,-55,1,0,1,0,0,0,-92,-19,89,-25,-9,225,6,4,0,168,171,170,169,1,7844
87.444969177,-1,-2,-55,2,0,1,0,0,0,-47,19,162,-17,3,228,6,4,0,168,171,170,169,1,7845
87.456557989,-1,-2,-55,2,0,1,0,0,0,-47,19,162,-17,3,228,6,4,0,168,171,169,170,1,7846
87.466902018,-1,-2,-55,1,0,1,0,0,0,-47,19,162,-17,3,228,6,4,0,168,171,170,169,1,7847
87.485200167,-1,-2,-55,1,0,1,0,0,0,54,-71,221,-7,13,234,6,4,0,168,171,170,169,1,7848
87.496088982,-1,-2,-55,1,1,-2,0,0,0,-44,109,186,1,15,239,6,4,0,168,171,170,169,1,7849
87.507972002,-1,-2,-55,1,0,0,0,0,0,-44,109,186,1,15,239,6,4,0,169,170,170,169,1,7850
87.51811409,-1,-2,-55,1,0,0,0,0,0,-44,109,186,1,15,239,6,4,0,169,170,170,169,1,7851
87.536955118,-1,-2,-55,1,0,0,0,0,0,-56,42,214,6,10,240,6,4,0,169,170,170,169,1,7852
87.547934056,-1,-2,-55,1,0,0,0,0,0,-9,-35,59,6,2,236,6,4,0,169,170,170,169,1,7853
87.559076071,-1,-2,-55,1,0,0,0,0,0,-9,-35,59,6,2,236,6,4,0,168,171,169,170,1,7854
87.570401192,-1,-2,-55,-4,0,-2,0,0,0,-9,-35,59,6,2,236,6,4,0,172,167,169,170,1,7855
87.589055062,-1,-2,-55,-4,0,-2,0,0,0,-56,44,220,2,-6,228,6,4,0,172,167,169,170,1,7856
87.600002051,-1,-2,-55,-4,0,-2,1,0,0,-91,82,227,-4,-11,218,6,4,0,172,167,169,170,1,7857
87.61519599,-1,-2,-55,-4,0,-2,1,0,0,-91,82,227,-4,-11,218,6,4,0,172,167,169,170,1,7858
87.621908188,-1,-2,-55,1,0,0,1,0,0,-91,82,227,-4,-11,218,6,4,0,169,170,170,169,1,7859
87.640051127,-1,-2,-55,1,0,0,1,0,0,-166,27,250,-13,-12,210,6,4,0,169,170,170,169,1,7860
87.651028156,-1,-2,-55,3,0,0,1,0,0,-23,16,186,-23,-7,206,6,4,0,169,170,170,169,1,7861
87.661955118,-1,-2,-55,-2,0,-1,0,0,0,-23,16,186,-23,-7,206,6,4,0,168,171,170,169,1,7862
87.673006058,-1,-2,-55,-2,0,-1,0,0,0,-23,16,186,-23,-7,206,6,4,0,171,168,169,170,1,7863
87.691897154,-1,-2,-55,3,1,0,0,0,0,47,15,181,-35,2,207,6,4,0,168,171,170,169,1,7864
87.703145981,-1,-2,-55,2,0,0,0,0,0,-169,33,129,-46,14,212,6,4,0,168,171,170,169,1,7865
87.713935137,-1,-2,-55,2,0,0,0,0,0,-169,33,129,-46,14,212,6,4,0,168,171,170,169,1,7866
87.72490716,-1,-2,-55,-5,0,-2,-1,0,0,-169,33,129,-46,14,212,6,4,0,168,171,170,169,1,7867
87.743056059,-1,-2,-55,-5,0,-2,-1,0,0,-5,-67,244,-57,26,218,6,4,0,173,166,169,170,1,7868
87.754129172,0,-2,-55,-4,-1,-2,-1,0,0,5,32,243,-66,35,223,6,4,0,173,166,169,170,1,7869
87.771308184,0,-2,-55,0,-1,0,0,0,0,5,32,243,-66,35,223,6,4,0,172,167,169,170,1,7870
87.776063204,0,-2,-55,0,-1,0,0,0,0,5,32,243,-66,35,223,6,4,0,169,170,169,170,1,7871
87.795423985,0,-3,-55,1,0,0,0,0,0,135,-14,142,-70,40,224,6,4,0,169,170,169,170,1,7872
87.805921078,0,-3,-55,1,0,0,0,0,0,76,-64,228,-70,39,221,6,4,0,169,170,169,170,1,7873
87.816962004,0,-3,-55,1,0,0,0,0,0,76,-64,228,-70,39,221,6,4,0,169,170,170,169,1,7874
87.827977181,0,-3,-55,-2,0,-2,0,0,0,76,-64,228,-70,39,221,6,4,0,171,168,170,169,1,7875
87.845955134,0,-3,-55,-2,0,-2,0,0,0,-4,84,205,-64,32,215,6,4,0,171,168,170,169,1,7876
87.857074976,0,-3,-55,2,0,1,0,0,0,-157,6,1,-50,22,208,6,4,0,171,168,170,169,1,7877
87.867913008,0,-3,-55,1,0,0,0,0,0,-157,6,1,-50,22,208,6,4,0,168,171,170,169,1,7878
87.879016161,0,-3,-55,1,0,0,0,0,0,-157,6,1,-50,22,208,6,4,0,169,170,170,169,1,7879
87.897988081,0,-3,-55,-2,-1,-1,0,0,0,7,-3,234,-31,10,201,6,4,0,171,168,169,170,1,7880
87.909133196,0,-3,-55,-2,0,-1,0,0,0,-19,-150,236,-10,0,197,6,4,0,171,168,169,170,1,7881
87.919949055,0,-3,-55,-2,0,-1,0,0,0,-19,-150,236,-10,0,197,6,4,0,171,168,169,170,1,7882
87.931117058,0,-3,-55,1,0,0,0,0,0,-19,-150,236,-10,0,197,6,4,0,169,170,170,169,1,7883
87.949036122,0,-4,-55,1,0,0,0,0,0,-47,-30,177,7,-7,197,6,4,0,169,170,170,169,1,7884
87.962479115,0,-4,-55,0,0,0,0,0,0,23,-46,216,18,-12,200,6,4,0,169,170,170,169,1,7885
87.971210003,0,-4,-55,0,0,0,0,0,0,23,-46,216,18,-12,200,6,4,0,169,170,170,169,1,7886
87.981956005,0,-3,-55,-4,0,-1,0,0,0,23,-46,216,18,-12,200,6,4,0,169,170,170,169,1,7887
88.000994206,0,-3,-55,-4,0,-1,0,0,0,2,-83,81,20,-16,206,6,4,0,172,167,169,170,1,7888
88.011870146,0,-3,-55,-2,-1,-1,0,0,0,96,68,212,14,-20,213,6,4,0,172,167,169,170,1,7889
88.022936106,0,-3,-55,2,0,0,0,0,0,96,68,212,14,-20,213,6,4,0,171,168,169,170,1,7890
88.033905983,0,-3,-55,2,0,0,0,0,0,96,68,212,14,-20,213,6,4,0,168,171,169,170,1,7891
88.052064181,0,-3,-55,-4,0,-1,0,0,0,10,-4,58,4,-25,221,6,4,0,172,167,170,169,1,7892
88.06317401,0,-3,-55,0,1,0,0,0,0,-7,33,18,-6,-31,229,6,4,0,172,167,170,169,1,7893
88.073918104,0,-3,-55,0,1,0,0,0,0,-7,33,18,-6,-31,229,6,4,0,169,170,170,169,1,7894
88.085007191,0,-3,-55,2,0,0,-1,0,0,-7,33,18,-6,-31,229,6,4,0,168,171,169,170,1,7895
88.103955031,0,-3,-55,2,0,0,-1,0,0,55,24,182,-13,-36,236,6,4,0,168,171,169,170,1,7896
88.115049124,0,-3,-55,2,0,0,-1,0,0,85,30,230,-13,-37,244,6,4,0,168,171,169,170,1,7897
88.126753092,0,-3,-55,2,0,0,-1,0,0,85,30,230,-13,-37,244,6,4,0,168,171,169,170,1,7898
88.136881113,0,-3,-55,-3,-1,-1,-1,0,0,85,30,230,-13,-37,244,6,4,0,172,167,169,170,1,7899
88.155035019,0,-3,-55,-3,-1,-1,-1,0,0,-82,45,203,-8,-33,251,6,4,0,172,167,169,170,1,7900
88.166040182,0,-3,-55,-5,0,-1,-1,0,0,-1,-14,22,1,-24,255,6,4,0,172,167,169,170,1,7901
88.17691803,0,-3,-55,0,0,0,0,0,0,-1,-14,22,1,-24,255,6,4,0,173,166,169,170,1,7902
88.188014984,0,-3,-55,0,0,0,0,0,0,-1,-14,22,1,-24,255,6,4,0,169,170,170,169,1,7903
88.206861019,-1,-3,-55,-3,0,-2,0,0,0,63,-43,250,12,-12,1,6,4,0,172,167,169,170,1,7904
88.218015194,-1,-3,-55,4,0,0,0,0,0,-28,-37,78,23,1,0,6,4,0,172,167,169,170,1,7905
88.230169058,-1,-3,-55,4,0,0,0,0,0,-28,-37,78,23,1,0,6,4,0,167,172,170,169,1,7906
88.23993206,-1,-3,-55,-1,0,-1,0,0,0,-28,-37,78,23,1,0,6,4,0,167,172,170,169,1,7907
88.258198023,-1,-3,-55,-1,0,-1,0,0,0,31,-27,31,30,13,252,6,4,0,170,169,169,170,1,7908
88.269020081,-1,-2,-55,2,0,1,0,0,0,-22,-23,192,32,21,248,6,4,0,170,169,169,170,1,7909
88.280105114,-1,-2,-55,0,0,0,0,0,0,-22,-23,192,32,21,248,6,4,0,168,171,170,169,1,7910
88.29131198,-1,-2,-55,0,0,0,0,0,0,-22,-23,192,32,21,248,6,4,0,169,170,170,169,1,7911
88.309935093,0,-2,-55,-4,-1,-1,0,0,0,5,-43,60,29,23,246,6,4,0,172,167,169,170,1,7912
88.320912123,0,-2,-55,-6,-1,-1,0,0,0,112,13,0,24,17,247,6,4,0,172,167,169,170,1,7913
88.331969977,0,-2,-55,-6,-1,-1,0,0,0,112,13,0,24,17,247,6,4,0,174,165,169,170,1,7914
88.343031168,0,-2,-55,0,0,0,0,0,0,112,13,0,24,17,247,6,4,0,169,170,169,170,1,7915
88.361098051,0,-2,-55,0,0,0,0,0,0,85,-21,218,17,7,251,6,4,0,169,170,169,170,1,7916
88.372650147,0,-2,-56,3,0,-1,0,0,0,-53,67,252,10,-5,0,6,4,0,169,170,169,170,1,7917
88.383485079,0,-2,-56,-2,0,-1,0,0,0,-53,67,252,10,-5,0,6,4,0,167,172,170,169,1,7918
88.39410615,0,-2,-56,-2,0,-1,0,0,0,-53,67,252,10,-5,0,6,4,0,171,168,170,169,1,7919
88.412948132,0,-2,-56,4,1,0,0,0,0,-62,80,99,8,-17,6,6,4,0,167,172,170,169,1,7920
88.423915148,0,-2,-56,-3,0,1,-1,0,0,-13,43,23,8,-25,11,6,4,0,167,172,170,169,1,7921
88.435103178,0,-2,-56,-3,0,1,-1,0,0,-13,43,23,8,-25,11,6,4,0,171,168,170,169,1,7922
88.445958138,0,-2,-56,2,0,0,-1,0,0,-13,43,23,8,-25,11,6,4,0,168,171,170,169,1,7923
88.463944197,0,-1,-56,2,0,0,-1,0,0,80,73,154,12,-27,13,6,4,0,168,171,170,169,1,7924
88.475031138,-1,-1,-56,1,0,0,-1,0,0,55,-3,41,16,-21,15,6,4,0,168,171,170,169,1,7925
88.486217022,-1,-1,-56,1,0,0,-1,0,0,55,-3,41,16,-21,15,6,4,0,169,170,169,170,1,7926
88.49742198,0,-1,-56,2,0,1,0,0,0,55,-3,41,16,-21,15,6,4,0,169,170,169,170,1,7927
88.515963078,-1,-1,-56,2,0,1,0,0,0,-63,-41,16,18,-8,14,6,4,0,168,171,169,170,1,7928
88.52708602,-1,-1,-56,0,0,0,0,0,0,-53,-84,194,18,8,13,6,4,0,168,171,169,170,1,7929
88.539072037,-1,-1,-56,0,0,0,0,0,0,-53,-84,194,18,8,13,6,4,0,169,170,169,170,1,7930
88.548984051,-1,-1,-56,0,0,0,0,0,0,-53,-84,194,18,8,13,6,4,0,169,170,170,169,1,7931
88.568063021,-1,-1,-56,1,0,1,0,0,0,-16,-5,211,17,25,11,6,4,0,169,170,169,170,1,7932
88.579118014,0,-1,-56,-6,0,-1,1,0,0,6,-7,229,14,37,7,6,4,0,169,170,169,170,1,7933
88.590089083,0,-1,-56,-6,0,-1,1,0,0,6,-7,229,14,37,7,6,4,0,173,166,169,170,1,7934
88.600977183,0,-1,-56,1,0,0,1,0,0,6,-7,229,14,37,7,6,4,0,169,170,169,170,1,7935
88.61917615,0,-1,-56,1,0,0,1,0,0,-41,-43,1,9,40,2,6,4,0,169,170,169,170,1,7936
88.629962206,0,-1,-56,3,0,0,1,0,0,-25,42,13,2,34,252,6,4,0,169,170,169,170,1,7937
88.640976191,0,-1,-56,-4,0,0,1,0,0,-25,42,13,2,34,252,6,4,0,167,172,169,170,1,7938
88.651943207,0,-1,-56,-4,0,0,1,0,0,-25,42,13,2,34,252,6,4,0,172,167,169,170,1,7939
88.671004057,0,-1,-56,1,1,0,0,0,0,109,124,168,-4,21,245,6,4,0,168,171,170,169,1,7940
88.681915999,0,-1,-55,1,0,0,0,0,0,-154,22,209,-11,5,238,6,4,0,168,171,170,169,1,7941
88.692892075,0,-1,-55,1,0,0,0,0,0,-154,22,209,-11,5,238,6,4,0,168,171,169,170,1,7942
88.703966141,0,-1,-55,2,0,0,0,0,0,-154,22,209,-11,5,238,6,4,0,168,171,170,169,1,7943
88.722083092,0,-1,-55,2,0,0,0,0,0,40,105,230,-17,-8,233,6,4,0,168,171,170,169,1,7944
88.732918978,0,-1,-55,-4,-1,-2,0,0,0,5,23,170,-20,-16,229,6,4,0,168,171,170,169,1,7945
88.744096041,0,-1,-55,-4,-1,-2,0,0,0,5,23,170,-20,-16,229,6,4,0,172,167,169,170,1,7946
88.75504899,0,-1,-55,0,0,0,0,0,0,5,23,170,-20,-16,229,6,4,0,172,167,169,170,1,7947
88.773013115,0,-1,-55,0,0,0,0,0,0,-135,-197,151,-20,-14,226,6,4,0,169,170,169,170,1,7948
88.784052134,0,-1,-55,0,0,0,0,0,0,-47,50,185,-20,-4,222,6,4,0,169,170,169,170,1,7949
88.795301199,0,-1,-55,-4,-1,-1,0,0,0,-47,50,185,-20,-4,222,6,4,0,169,170,169,170,1,7950
88.806102991,0,-1,-55,-4,-1,-1,0,0,0,-47,50,185,-20,-4,222,6,4,0,172,167,169,170,1,7951
88.827182055,0,-1,-55,1,0,0,0,0,0,-142,24,14,-19,9,218,6,4,0,169,170,169,170,1,7952
88.836318016,0,-1,-56,0,0,0,0,0,0,37,-123,244,-19,21,213,6,4,0,169,170,169,170,1,7953
88.847058058,0,-1,-56,0,0,0,0,0,0,37,-123,244,-19,21,213,6,4,0,169,170,169,170,1,7954
88.858191014,0,-1,-56,1,0,0,0,0,0,37,-123,244,-19,21,213,6,4,0,168,171,170,169,1,7955
88.876020193,0,-1,-56,1,0,0,0,0,0,104,-1,142,-23,28,207,6,4,0,168,171,170,169,1,7956
88.887533188,0,-1,-56,3,1,0,0,0,0,3,-28,5,-30,27,201,6,4,0,168,171,170,169,1,7957
88.898105145,0,-1,-56,1,0,0,0,0,0,3,-28,5,-30,27,201,6,4,0,168,171,170,169,1,7958
88.911202193,0,-1,-56,1,0,0,0,0,0,3,-28,5,-30,27,201,6,4,0,168,171,169,170,1,7959
88.927986145,0,-1,-56,1,0,0,0,0,0,-49,-111,13,-37,19,198,6,4,0,169,170,170,169,1,7960
88.939064026,0,-1,-56,1,0,0,0,0,0,-18,36,238,-41,4,197,6,4,0,169,170,170,169,1,7961
88.949985028,0,-1,-56,1,0,0,0,0,0,-18,36,238,-41,4,197,6,4,0,169,170,169,170,1,7962
88.961045981,0,-1,-56,-3,0,0,0,0,0,-18,36,238,-41,4,197,6,4,0,171,168,169,170,1,7963
88.980106116,0,-1,-56,-3,0,0,0,0,0,61,-143,214,-40,-12,200,6,4,0,171,168,169,170,1,7964
88.991055012,0,-2,-56,-2,0,0,0,0,0,-81,40,21,-34,-29,206,6,4,0,171,168,169,170,1,7965
89.003262043,0,-2,-56,-2,0,0,0,0,0,-81,40,21,-34,-29,206,6,4,0,171,168,169,170,1,7966
89.012890101,0,-2,-56,1,0,0,1,0,0,-81,40,21,-34,-29,206,6,4,0,171,168,169,170,1,7967
89.034581185,0,-2,-56,1,0,0,1,0,0,7,92,236,-25,-44,214,6,4,0,169,170,170,169,1,7968
89.042709112,0,-2,-56,1,1,0,1,0,0,-32,45,206,-14,-53,224,6,4,0,169,170,170,169,1,7969
89.052926064,0,-2,-56,-1,0,-1,1,0,0,-32,45,206,-14,-53,224,6,4,0,169,170,170,169,1,7970
89.063987017,0,-2,-56,-1,0,-1,1,0,0,-32,45,206,-14,-53,224,6,4,0,171,168,169,170,1,7971
89.083033085,0,-2,-56,2,0,0,0,0,0,-42,78,188,-4,-56,233,6,4,0,168,171,170,169,1,7972
89.095146179,0,-2,-56,2,0,0,0,0,0,93,-68,234,1,-50,240,6,4,0,168,171,170,169,1,7973
89.104906082,0,-2,-56,2,0,0,0,0,0,93,-68,234,1,-50,240,6,4,0,168,171,169,170,1,7974
89.115981102,0,-2,-56,-1,0,-2,0,0,0,93,-68,234,1,-50,240,6,4,0,170,169,169,170,1,7975
89.134051085,0,-2,-56,-1,0,-2,0,0,0,-13,-10,193,3,-37,244,6,4,0,170,169,169,170,1,7976
89.145052195,0,-2,-56,-3,0,-2,0,0,0,37,92,174,1,-18,245,6,4,0,170,169,169,170,1,7977
89.156061173,0,-2,-56,0,0,0,0,0,0,37,92,174,1,-18,245,6,4,0,172,167,169,170,1,7978
89.170284033,0,-2,-56,0,0,0,0,0,0,37,92,174,1,-18,245,6,4,0,169,170,169,170,1,7979
89.185935021,0,-2,-56,0,0,-1,0,0,0,23,-43,197,-1,1,241,6,4,0,170,169,170,169,1,7980
89.196925163,0,-2,-56,0,0,-1,0,0,0,-32,86,128,-3,19,233,6,4,0,170,169,170,169,1,7981
89.208159209,0,-2,-56,0,0,-1,0,0,0,-32,86,128,-3,19,233,6,4,0,169,170,170,169,1,7982
89.219312191,0,-2,-56,0,0,-1,0,0,0,-32,86,128,-3,19,233,6,4,0,169,170,169,170,1,7983
89.23706007,0,-2,-56,0,0,-1,0,0,0,-62,117,182,-3,32,223,6,4,0,169,170,169,170,1,7984
89.251053095,0,-2,-56,3,1,0,0,0,0,-11,17,7,-1,39,212,6,4,0,169,170,169,170,1,7985
89.259272099,0,-2,-56,3,1,0,0,0,0,-11,17,7,-1,39,212,6,4,0,168,171,170,169,1,7986
89.269910097,0,-2,-56,0,1,0,0,0,0,-11,17,7,-1,39,212,6,4,0,168,171,170,169,1,7987
89.288941145,0,-2,-56,-1,0,-1,0,0,0,-61,13,54,0,41,200,6,4,0,171,168,169,170,1,7988
89.299936056,0,-2,-56,-1,-1,-1,0,0,0,-113,40,231,2,41,190,6,4,0,171,168,169,170,1,7989
89.310950041,0,-2,-56,-1,-1,-1,0,0,0,-113,40,231,2,41,190,6,4,0,170,169,168,171,1,7990
89.322110176,0,-1,-56,0,-1,1,0,0,0,-113,40,231,2,41,190,6,4,0,170,169,168,171,1,7991
89.339932204,0,-1,-56,0,-1,1,0,0,0,-34,1,179,1,40,184,6,4,0,169,170,169,170,1,7992
89.350978136,0,-1,-56,0,0,0,0,0,0,-96,-56,253,-4,39,185,6,4,0,169,170,169,170,1,7993
89.362028122,0,-1,-56,-1,0,-1,0,0,0,-96,-56,253,-4,39,185,6,4,0,169,170,169,170,1,7994
89.37292409,0,-1,-56,-1,0,-1,0,0,0,-96,-56,253,-4,39,185,6,4,0,170,169,170,169,1,7995
89.392089129,0,-1,-56,1,0,1,0,0,0,-151,-4,232,-14,38,191,6,4,0,168,171,170,169,1,7996
89.407169104,0,-1,-56,0,0,-2,0,0,0,-74,-38,154,-27,36,203,6,4,0,168,171,170,169,1,7997
89.413981199,0,-1,-56,0,0,-2,0,0,0,-74,-38,154,-27,36,203,6,4,0,170,169,169,170,1,7998
89.425024033,0,-1,-56,0,0,-1,0,0,0,-74,-38,154,-27,36,203,6,4,0,169,170,169,170,1,7999
89.443947077,0,-1,-56,0,-1,-2,0,0,0,-69,-73,196,-43,31,215,6,4,0,170,169,169,170,1,8000
89.454077006,0,-2,-56,-1,0,0,0,0,0,-54,83,172,-60,23,227,6,4,0,170,169,169,170,1,8001
89.465145111,0,-2,-56,0,0,-1,0,0,0,-54,83,172,-60,23,227,6,4,0,170,169,170,169,1,8002
89.476112128,0,-2,-56,0,0,-1,0,0,0,-54,83,172,-60,23,227,6,4,0,170,169,169,170,1,8003
89.49496913,0,-2,-56,-2,1,0,0,0,0,12,38,41,-76,13,234,6,4,0,171,168,170,169,1,8004
89.505935192,0,-2,-56,0,0,1,0,0,0,-48,-160,120,-88,1,235,6,4,0,171,168,170,169,1,8005
89.51692915,0,-2,-56,0,0,1,0,0,0,-48,-160,120,-88,1,235,6,4,0,169,170,170,169,1,8006
89.527962208,0,-2,-56,1,0,-1,0,0,-1,-48,-160,120,-88,1,235,6,4,0,169,170,170,169,1,8007
89.546028137,0,-2,-56,1,0,-1,0,0,-1,-9,0,211,-94,-9,232,6,4,0,168,171,169,170,1,8008
89.55935216,0,-3,-56,0,0,-2,0,0,-1,57,8,239,-93,-18,227,6,4,0,168,171,169,170,1,8009
89.567960978,0,-3,-56,1,0,0,0,0,-1,57,8,239,-93,-18,227,6,4,0,170,169,170,169,1,8010
89.578998089,0,-3,-56,1,0,0,0,0,-1,57,8,239,-93,-18,227,6,4,0,168,171,170,169,1,8011
89.598460198,0,-3,-56,-2,0,-3,0,0,-1,-30,-73,76,-85,-23,224,6,4,0,171,168,169,170,1,8012
89.608982086,0,-3,-56,-1,0,0,0,0,0,-30,50,58,-71,-26,225,6,4,0,171,168,169,170,1,8013
89.619893074,0,-3,-56,-1,0,0,0,0,0,-30,50,58,-71,-26,225,6,4,0,171,168,169,170,1,8014
89.630977154,0,-3,-56,1,0,1,0,0,0,-30,50,58,-71,-26,225,6,4,0,169,170,169,170,1,8015
89.649002075,0,-3,-56,1,0,1,0,0,0,-1,11,194,-52,-28,231,6,4,0,169,170,169,170,1,8016
89.660056114,0,-4,-56,1,0,1,0,0,0,-118,-43,179,-33,-27,239,6,4,0,169,170,169,170,1,8017
89.671137095,0,-4,-56,-1,0,0,0,0,0,-118,-43,179,-33,-27,239,6,4,0,168,171,170,169,1,8018
89.681913138,0,-4,-56,-1,0,0,0,0,0,-118,-43,179,-33,-27,239,6,4,0,170,169,170,169,1,8019
89.700977087,0,-4,-56,-1,0,-1,0,0,0,14,52,192,-15,-25,244,6,4,0,171,168,170,169,1,8020
89.711963177,0,-4,-56,-1,-1,-2,0,0,0,-84,66,10,-3,-21,245,6,4,0,171,168,170,169,1,8021
89.723005057,0,-4,-56,-1,-1,-2,0,0,0,-84,66,10,-3,-21,245,6,4,0,170,169,169,170,1,8022
89.734053135,0,-4,-56,3,0,1,0,0,0,-84,66,10,-3,-21,245,6,4,0,168,171,169,170,1,8023
89.751954079,0,-4,-56,3,0,1,0,0,0,-104,57,67,1,-16,240,6,4,0,168,171,169,170,1,8024
89.763104201,0,-4,-56,0,0,0,0,0,0,1,-3,73,-1,-9,230,6,4,0,168,171,169,170,1,8025
89.774069071,0,-4,-56,0,0,0,0,0,0,1,-3,73,-1,-9,230,6,4,0,169,170,170,169,1,8026
89.785620213,0,-4,-56,-1,0,-2,0,0,0,1,-3,73,-1,-9,230,6,4,0,169,170,170,169,1,8027
89.803972006,0,-4,-56,0,0,0,0,0,0,22,-51,22,-10,0,220,6,4,0,169,170,170,169,1,8028
89.815071106,0,-4,-56,0,0,1,0,0,0,-8,0,208,-23,8,213,6,4,0,169,170,170,169,1,8029
89.825942993,0,-4,-56,0,0,1,0,0,0,-8,0,208,-23,8,213,6,4,0,169,170,170,169,1,8030
89.837000132,0,-4,-56,0,0,0,0,0,0,-8,0,208,-23,8,213,6,4,0,169,170,169,170,1,8031
89.854990006,0,-4,-56,0,0,0,0,0,0,75,-22,227,-36,17,213,6,4,0,169,170,169,170,1,8032
89.866072178,0,-4,-56,0,0,0,0,0,0,-27,-26,46,-46,23,221,6,4,0,169,170,169,170,1,8033
89.877006054,0,-4,-56,0,0,0,0,0,0,-27,-26,46,-46,23,221,6,4,0,170,169,170,169,1,8034
89.887970209,0,-4,-56,0,0,0,0,0,0,-27,-26,46,-46,23,221,6,4,0,170,169,169,170,1,8035
89.907106161,0,-4,-56,0,0,0,0,0,0,17,-22,50,-49,25,235,6,4,0,170,169,169,170,1,8036
89.918200016,0,-4,-56,1,0,2,0,0,0,0,-64,28,-45,22,250,6,4,0,170,169,169,170,1,8037
89.929038048,0,-4,-56,1,0,2,0,0,0,0,-64,28,-45,22,250,6,4,0,169,170,170,169,1,8038
89.940085173,0,-4,-56,1,0,0,0,0,0,0,-64,28,-45,22,250,6,4,0,168,171,169,170,1,8039
89.958912134,0,-4,-56,1,0,0,0,0,0,72,-48,187,-34,14,8,6,4,0,168,171,169,170,1,8040
89.969955206,0,-4,-56,0,0,-1,0,0,0,36,5,200,-18,2,19,6,4,0,168,171,169,170,1,8041
89.981024981,0,-4,-56,0,0,1,0,0,0,36,5,200,-18,2,19,6,4,0,169,170,170,169,1,8042
89.992053986,0,-4,-56,0,0,1,0,0,0,72,128,181,-2,-10,25,6,4,0,169,170,170,169,1,8043
90.009932995,0,-4,-56,0,0,-1,0,0,0,72,128,181,-2,-10,25,6,4,0,170,169,169,170,1,8044
90.020953179,0,-4,-56,-2,-1,-1,0,0,0,149,3,63,13,-21,26,6,4,0,170,169,169,170,1,8045
90.031933069,0,-4,-56,-2,-1,-1,0,0,0,149,3,63,13,-21,26,6,4,0,171,168,169,170,1,8046
90.042978049,0,-4,-56,0,0,0,0,0,0,149,3,63,13,-21,26,6,4,0,171,168,169,170,1,8047
90.062210083,0,-4,-56,0,0,0,0,0,0,103,-42,85,27,-30,20,6,4,0,170,169,170,169,1,8048
90.072908163,0,-4,-56,0,0,1,0,0,0,-18,12,154,39,-32,10,6,4,0,170,169,170,169,1,8049
90.084022045,0,-4,-56,0,0,0,0,0,0,-18,12,154,39,-32,10,6,4,0,169,170,170,169,1,8050
90.09493804,0,-4,-56,0,0,0,0,0,0,-18,12,154,39,-32,10,6,4,0,170,169,169,170,1,8051
90.113044977,0,-3,-56,1,0,-1,0,0,0,82,-24,4,50,-27,254,6,4,0,169,170,170,169,1,8052
90.12400198,0,-3,-56,2,0,-1,0,0,0,45,-11,187,59,-18,244,6,4,0,169,170,170,169,1,8053
90.135051012,0,-3,-56,2,0,-1,0,0,0,45,-11,187,59,-18,244,6,4,0,168,171,170,169,1,8054
90.145929098,0,-3,-56,0,1,1,0,0,0,45,-11,187,59,-18,244,6,4,0,169,170,170,169,1,8055
90.165024042,0,-3,-56,0,1,1,0,0,0,92,115,211,67,-6,237,6,4,0,169,170,170,169,1,8056
90.17596817,0,-3,-56,-3,-1,-1,0,0,0,-10,14,246,73,3,233,6,4,0,169,170,170,169,1,8057
90.186994076,0,-3,-56,0,0,-2,0,0,0,-10,14,246,73,3,233,6,4,0,171,168,169,170,1,8058
90.198671103,0,-3,-56,0,0,-2,0,0,0,-10,14,246,73,3,233,6,4,0,170,169,169,170,1,8059
90.216917038,0,-2,-56,0,0,0,0,0,0,-161,-42,222,75,11,232,6,4,0,169,170,170,169,1,8060
90.235182047,0,-2,-56,0,0,0,0,0,0,-56,42,154,73,17,232,6,4,0,169,170,170,169,1,8061
90.239609003,0,-2,-56,0,0,0,0,0,0,-56,42,154,73,17,232,6,4,0,169,170,170,169,1,8062
90.248921156,0,-2,-56,-2,0,-1,0,0,0,-56,42,154,73,17,232,6,4,0,171,168,169,170,1,8063
90.268139124,0,-2,-56,-2,0,-1,0,0,0,-94,-65,227,65,20,231,6,4,0,171,168,169,170,1,8064
90.279253006,0,-1,-56,-1,0,-1,0,0,0,-31,-47,131,51,20,229,6,4,0,171,168,169,170,1,8065
90.289915085,0,-1,-56,-1,0,-1,0,0,0,-31,-47,131,51,20,229,6,4,0,170,169,169,170,1,8066
90.301002979,0,-1,-56,1,0,1,0,0,0,-31,-47,131,51,20,229,6,4,0,170,169,169,170,1,8067
90.319012165,0,-1,-56,1,0,1,0,0,0,-8,38,211,31,19,225,6,4,0,169,170,170,169,1,8068
90.330928087,0,-1,-56,1,1,1,0,0,0,146,-31,58,5,15,220,6,4,0,169,170,170,169,1,8069
90.34141016,0,-1,-56,1,1,1,0,0,0,146,-31,58,5,15,220,6,4,0,169,170,170,169,1,8070
90.352240086,0,-1,-56,0,0,-1,0,0,0,146,-31,58,5,15,220,6,4,0,169,170,170,169,1,8071
90.369935036,0,-1,-56,0,0,-1,0,0,0,-7,11,246,-20,8,213,6,4,0,169,170,170,169,1,8072
90.381016016,0,-1,-56,1,0,-1,0,0,0,-46,66,124,-41,1,206,6,4,0,169,170,170,169,1,8073
90.391951084,0,-1,-56,1,0,-1,0,0,0,-46,66,124,-41,1,206,6,4,0,169,170,169,170,1,8074
90.403103113,0,-1,-56,0,0,0,0,0,0,-46,66,124,-41,1,206,6,4,0,169,170,169,170,1,8075
90.420994997,0,-1,-56,0,0,0,0,0,0,-129,-48,32,-52,-6,202,6,4,0,170,169,169,170,1,8076
90.431940079,0,-1,-56,-3,0,0,0,0,0,-79,25,2,-53,-11,205,6,4,0,170,169,169,170,1,8077
90.44303298,0,-1,-56,-3,0,0,0,0,0,-79,25,2,-53,-11,205,6,4,0,172,167,170,169,1,8078
90.45402503,0,-1,-56,0,0,0,0,0,0,-79,25,2,-53,-11,205,6,4,0,170,169,170,169,1,8079
90.473108053,0,-1,-56,0,0,0,0,0,0,-33,13,21,-45,-12,214,6,4,0,170,169,170,169,1,8080
90.483936072,0,-1,-56,2,0,1,0,0,0,-23,-75,186,-34,-11,230,6,4,0,170,169,170,169,1,8081
90.495037079,0,-1,-56,0,0,0,0,0,0,-23,-75,186,-34,-11,230,6,4,0,168,171,169,170,1,8082
90.506998062,0,-1,-56,0,0,0,0,0,0,-23,-75,186,-34,-11,230,6,4,0,170,169,169,170,1,8083
90.524928093,0,-1,-56,0,0,-1,0,0,0,133,-4,211,-25,-7,249,6,4,0,169,170,169,170,1,8084
90.536019087,0,-1,-56,1,0,0,0,0,0,57,82,185,-20,-2,12,6,4,0,169,170,169,170,1,8085
90.546953202,0,-1,-56,1,0,0,0,0,0,57,82,185,-20,-2,12,6,4,0,169,170,170,169,1,8086
90.558135033,0,-1,-56,2,1,1,0,0,0,57,82,185,-20,-2,12,6,4,0,169,170,170,169,1,8087
90.576081991,0,-1,-56,2,1,1,0,0,0,92,11,81,-18,0,25,6,4,0,168,171,170,169,1,8088
90.587266207,0,-1,-56,-5,0,0,0,0,0,25,12,83,-17,3,30,6,4,0,168,171,170,169,1,8089
90.598316193,0,-1,-56,-2,-1,-2,0,0,0,25,12,83,-17,3,30,6,4,0,173,166,169,170,1,8090
90.612555027,0,-1,-56,-2,-1,-2,0,0,0,25,12,83,-17,3,30,6,4,0,171,168,169,170,1,8091
90.631107092,0,-1,-56,0,0,0,0,0,0,-27,-40,234,-13,4,26,6,4,0,170,169,169,170,1,8092
90.639228106,0,-1,-56,2,0,0,0,0,0,-42,-105,21,-5,5,17,6,4,0,170,169,169,170,1,8093
90.649983168,0,-1,-56,2,0,0,0,0,0,-42,-105,21,-5,5,17,6,4,0,168,171,170,169,1,8094
90.661070109,0,-1,-56,-1,0,0,0,0,0,-42,-105,21,-5,5,17,6,4,0,168,171,170,169,1,8095
90.679018021,0,-1,-56,-1,0,0,0,0,0,-176,-30,144,6,5,6,6,4,0,170,169,170,169,1,8096
90.689978123,0,-1,-56,0,0,0,0,0,0,-93,-47,135,19,4,254,6,4,0,170,169,170,169,1,8097
90.701029062,0,-1,-56,0,0,0,0,0,0,-93,-47,135,19,4,254,6,4,0,169,170,169,170,1,8098
90.713165999,0,-1,-56,3,1,1,0,0,0,-93,-47,135,19,4,254,6,4,0,169,170,169,170,1,8099
90.731059075,0,-1,-56,-1,0,1,0,0,0,-36,-47,198,26,0,248,6,4,0,170,169,170,169,1,8100
90.741969109,0,-1,-56,2,0,0,0,0,0,-15,41,171,24,-5,244,6,4,0,170,169,170,169,1,8101
90.753029108,0,-1,-56,2,0,0,0,0,0,-15,41,171,24,-5,244,6,4,0,168,171,170,169,1,8102
90.763890028,0,-1,-56,-1,-1,-1,0,0,0,-15,41,171,24,-5,244,6,4,0,170,169,169,170,1,8103
90.783087015,0,-1,-56,-1,-1,-1,0,0,0,-79,-115,20,12,-15,239,6,4,0,170,169,169,170,1,8104
90.794053078,0,-1,-56,0,0,-2,0,0,0,-66,-56,58,-7,-25,232,6,4,0,170,169,169,170,1,8105
90.803973198,0,-1,-56,0,0,-2,0,0,0,-66,-56,58,-7,-25,232,6,4,0,170,169,169,170,1,8106
90.817131996,0,-1,-56,-2,0,0,0,0,0,-66,-56,58,-7,-25,232,6,4,0,171,168,169,170,1,8107
90.834372044,0,-1,-56,-2,0,0,0,0,0,-57,-44,182,-31,-35,222,6,4,0,171,168,169,170,1,8108
90.844888211,0,-1,-56,-1,0,0,0,0,0,-3,-61,253,-53,-42,214,6,4,0,171,168,169,170,1,8109
90.855977059,0,-1,-56,-1,0,-1,0,0,0,-3,-61,253,-53,-42,214,6,4,0,170,169,170,169,1,8110
90.867003203,0,-1,-56,-1,0,-1,0,0,0,-3,-61,253,-53,-42,214,6,4,0,170,169,170,169,1,8111
90.885079146,0,-1,-56,-3,0,0,0,0,0,41,36,181,-71,-48,208,6,4,0,172,167,170,169,1,8112
90.895943165,0,-1,-56,2,0,0,0,0,0,45,-16,133,-80,-51,206,6,4,0,172,167,170,169,1,8113
90.906974077,0,-1,-56,2,0,0,0,0,0,45,-16,133,-80,-51,206,6,4,0,168,171,169,170,1,8114
90.918168068,0,-1,-56,0,-1,0,0,0,0,45,-16,133,-80,-51,206,6,4,0,170,169,169,170,1,8115
90.939280987,0,-2,-56,0,-1,0,0,0,0,-6,-62,211,-80,-52,208,6,4,0,170,169,169,170,1,8116
90.947935105,-1,-2,-56,0,0,0,-1,0,0,44,-87,17,-71,-50,213,6,4,0,170,169,169,170,1,8117
90.958957195,-1,-2,-56,0,0,0,-1,0,0,44,-87,17,-71,-50,213,6,4,0,170,169,169,170,1,8118
90.969926119,0,-2,-56,2,0,0,-1,0,0,44,-87,17,-71,-50,213,6,4,0,168,171,170,169,1,8119
90.988046169,-1,-2,-56,2,0,0,-1,0,0,5,-13,251,-54,-46,216,6,4,0,168,171,170,169,1,8120
90.999389172,-1,-2,-56,-2,0,0,-1,0,0,-38,-35,232,-32,-41,218,6,4,0,168,171,170,169,1,8121
91.009922981,-1,-2,-56,0,-1,-1,-1,0,0,-38,-35,232,-32,-41,218,6,4,0,171,168,170,169,1,8122
91.020934105,-1,-2,-56,0,-1,-1,-1,0,0,-38,-35,232,-32,-41,218,6,4,0,170,169,169,170,1,8123
91.040039063,-1,-2,-56,2,0,0,-1,0,0,-3,62,34,-10,-36,219,6,4,0,168,171,169,170,1,8124
91.051151991,-1,-3,-56,1,0,0,0,0,0,-78,-46,141,9,-33,219,6,4,0,168,171,169,170,1,8125
91.062118054,-1,-3,-56,1,0,0,0,0,0,-78,-46,141,9,-33,219,6,4,0,168,171,169,170,1,8126
91.072925091,-1,-2,-56,-3,0,0,0,0,0,-78,-46,141,9,-33,219,6,4,0,168,171,169,170,1,8127
91.091021061,-1,-3,-56,-3,0,0,0,0,0,-7,-15,233,22,-30,220,6,4,0,171,168,170,169,1,8128
91.101989985,-2,-2,-56,0,0,0,0,0,0,-32,10,1,27,-28,222,6,4,0,171,168,170,169,1,8129
91.112987995,-2,-2,-56,4,0,1,0,0,0,-32,10,1,27,-28,222,6,4,0,169,170,169,170,1,8130
91.124003172,-2,-2,-56,4,0,1,0,0,0,-32,10,1,27,-28,222,6,4,0,167,172,170,169,1,8131
91.142957211,-2,-2,-56,0,0,1,0,0,0,-79,54,209,24,-26,225,6,4,0,170,169,170,169,1,8132
91.153997183,-2,-2,-56,2,0,0,0,0,0,-54,27,227,13,-22,228,6,4,0,170,169,170,169,1,8133
91.164929152,-2,-2,-56,2,0,0,0,0,0,-54,27,227,13,-22,228,6,4,0,168,171,170,169,1,8134
91.175986052,-2,-2,-56,-2,0,0,0,0,0,-54,27,227,13,-22,228,6,4,0,168,171,170,169,1,8135
91.194004059,-2,-2,-56,-2,0,0,0,0,0,-93,48,52,-1,-17,230,6,4,0,171,168,169,170,1,8136
91.205031157,-2,-2,-56,-1,-1,-1,0,0,0,-6,10,247,-18,-10,231,6,4,0,171,168,169,170,1,8137
91.215946198,-2,-2,-56,2,0,0,0,0,0,-6,10,247,-18,-10,231,6,4,0,171,168,168,171,1,8138
91.226935148,-2,-2,-56,2,0,0,0,0,0,-6,10,247,-18,-10,231,6,4,0,168,171,169,170,1,8139
91.245988131,-2,-2,-56,-1,-1,0,0,0,0,-20,-8,217,-35,-2,232,6,4,0,170,169,169,170,1,8140
91.256980181,-2,-2,-56,-1,0,0,0,0,0,-51,26,238,-49,6,234,6,4,0,170,169,169,170,1,8141
91.268046141,-2,-2,-56,-1,0,0,0,0,0,-51,26,238,-49,6,234,6,4,0,170,169,170,169,1,8142
91.279191017,-2,-2,-56,3,1,0,0,0,0,-51,26,238,-49,6,234,6,4,0,168,171,171,168,1,8143
91.297069073,-2,-2,-56,3,1,0,0,0,0,-165,15,169,-58,15,236,6,4,0,168,171,171,168,1,8144
91.307874203,-2,-2,-56,3,0,0,0,0,0,-111,15,18,-63,23,238,6,4,0,168,171,171,168,1,8145
91.319018126,-2,-2,-56,3,0,0,0,0,0,-111,15,18,-63,23,238,6,4,0,168,171,170,169,1,8146
91.329915047,-2,-2,-56,-1,-1,0,0,0,0,-111,15,18,-63,23,238,6,4,0,168,171,170,169,1,8147
91.349019051,-2,-3,-56,-1,-1,0,0,0,0,-135,104,3,-64,27,240,6,4,0,170,169,169,170,1,8148
91.359950066,-1,-3,-56,-2,-1,-1,0,0,0,5,52,228,-64,29,241,6,4,0,170,169,169,170,1,8149
91.371144057,-1,-3,-56,1,0,0,0,0,0,5,52,228,-64,29,241,6,4,0,171,168,169,170,1,8150
91.3819592,-1,-3,-56,1,0,0,0,0,0,5,52,228,-64,29,241,6,4,0,169,170,169,170,1,8151
91.400137186,-1,-3,-56,-1,-1,-1,0,0,0,-141,43,7,-65,29,240,6,4,0,170,169,168,171,1,8152
91.411085129,-1,-3,-56,-1,0,0,0,0,0,-108,93,237,-69,28,239,6,4,0,170,169,168,171,1,8153
91.421967983,-1,-3,-56,-1,0,0,0,0,0,-108,93,237,-69,28,239,6,4,0,170,169,170,169,1,8154
91.432895184,-1,-3,-56,-1,-1,0,0,0,0,-108,93,237,-69,28,239,6,4,0,170,169,169,170,1,8155
91.451961994,-1,-3,-56,-1,-1,0,0,0,0,-74,41,206,-75,30,238,6,4,0,170,169,169,170,1,8156
91.462952137,-1,-4,-56,3,1,0,0,0,0,-46,74,42,-82,33,237,6,4,0,170,169,169,170,1,8157
91.473971129,-1,-4,-56,1,1,0,0,0,0,-46,74,42,-82,33,237,6,4,0,167,172,170,169,1,8158
91.485158205,-1,-4,-56,1,1,0,0,0,0,-46,74,42,-82,33,237,6,4,0,168,171,171,168,1,8159
91.50613904,-1,-4,-56,-1,0,0,0,0,0,-10,-14,220,-89,38,237,6,4,0,170,169,169,170,1,8160
91.515079975,0,-4,-56,-2,-1,0,0,0,0,-40,47,200,-94,45,238,6,4,0,170,169,169,170,1,8161
91.52491498,0,-4,-56,-2,-1,0,0,0,0,-40,47,200,-94,45,238,6,4,0,171,168,169,170,1,8162
91.536010027,0,-4,-56,0,0,0,0,0,0,-40,47,200,-94,45,238,6,4,0,170,169,169,170,1,8163
91.554978132,0,-4,-56,0,0,0,0,0,0,-38,58,229,-96,52,240,6,4,0,170,169,169,170,1,8164
91.566080094,0,-5,-56,0,0,-1,0,0,0,-27,-74,232,-92,57,241,6,4,0,170,169,169,170,1,8165
91.577021122,0,-5,-56,0,0,-1,0,0,0,-27,-74,232,-92,57,241,6,4,0,169,170,170,169,1,8166
91.58812809,0,-5,-56,-2,0,0,0,0,0,-27,-74,232,-92,57,241,6,4,0,169,170,170,169,1,8167
91.606970072,0,-5,-56,2,0,0,0,0,0,-56,108,250,-84,58,241,6,4,0,168,171,170,169,1,8168
91.619297028,0,-5,-56,-1,0,0,0,0,0,57,138,240,-72,56,240,6,4,0,168,171,170,169,1,8169
91.629816056,0,-5,-56,-1,0,0,0,0,0,57,138,240,-72,56,240,6,4,0,171,168,169,170,1,8170
91.639914036,0,-5,-56,1,1,0,0,0,0,57,138,240,-72,56,240,6,4,0,168,171,170,169,1,8171
91.658228159,0,-5,-56,1,1,0,0,0,0,31,37,216,-58,50,238,6,4,0,168,171,170,169,1,8172
91.668990135,0,-6,-56,1,0,0,0,0,0,-62,49,20,-44,44,236,6,4,0,168,171,170,169,1,8173
91.679918051,0,-5,-56,-3,-1,-1,0,0,0,-62,49,20,-44,44,236,6,4,0,169,170,170,169,1,8174
91.690958023,0,-5,-56,-3,-1,-1,0,0,0,-62,49,20,-44,44,236,6,4,0,172,167,169,170,1,8175
91.709969998,0,-6,-56,0,0,0,0,0,0,4,-74,250,-31,39,234,6,4,0,169,170,169,170,1,8176
91.720903158,0,-6,-56,1,0,0,0,0,0,-18,-192,233,-19,37,232,6,4,0,169,170,169,170,1,8177
91.731914044,0,-6,-56,1,0,0,0,0,0,-18,-192,233,-19,37,232,6,4,0,169,170,170,169,1,8178
91.743053198,0,-6,-56,-4,0,-2,0,0,0,-18,-192,233,-19,37,232,6,4,0,172,167,170,169,1,8179
91.761020184,0,-6,-56,-4,0,-2,0,0,0,4,-88,9,-9,37,232,6,4,0,172,167,170,169,1,8180
91.771942139,1,-6,-56,-3,0,-1,0,0,0,145,58,193,-3,35,234,6,4,0,172,167,170,169,1,8181
91.782968044,1,-6,-56,3,0,0,0,0,0,145,58,193,-3,35,234,6,4,0,171,168,169,170,1,8182
91.794295073,1,-6,-56,3,0,0,0,0,0,145,58,193,-3,35,234,6,4,0,167,172,169,170,1,8183
91.812915087,1,-6,-56,-1,0,-1,0,0,0,73,26,199,0,28,237,6,4,0,171,168,169,170,1,8184
91.823926211,1,-6,-56,2,0,1,0,0,0,33,24,254,3,14,240,6,4,0,171,168,169,170,1,8185
91.835026026,1,-6,-56,2,0,1,0,0,0,33,24,254,3,14,240,6,4,0,168,171,170,169,1,8186
91.846080065,1,-5,-56,-4,0,0,0,0,0,33,24,254,3,14,240,6,4,0,168,171,170,169,1,8187
91.863978148,1,-5,-56,-4,0,0,0,0,0,133,74,35,7,-2,242,6,4,0,172,167,169,170,1,8188
91.87501812,1,-5,-56,0,0,0,0,0,0,71,-72,171,13,-19,243,6,4,0,172,167,169,170,1,8189
91.886066199,1,-5,-56,0,0,0,0,0,0,71,-72,171,13,-19,243,6,4,0,170,169,169,170,1,8190
91.897064209,1,-5,-56,0,0,0,0,0,0,71,-72,171,13,-19,243,6,4,0,170,169,169,170,1,8191
91.916012049,1,-5,-56,-4,-1,-2,0,0,0,17,-70,2,24,-31,242,6,4,0,172,167,169,170,1,8192
91.926988125,1,-5,-56,-1,0,-2,0,0,0,50,0,244,37,-35,239,6,4,0,172,167,169,170,1,8193
91.938441992,1,-5,-56,-1,0,-2,0,0,0,50,0,244,37,-35,239,6,4,0,171,168,169,170,1,8194
91.949023009,1,-5,-56,1,0,0,0,0,0,50,0,244,37,-35,239,6,4,0,168,171,170,169,1,8195
91.967049122,1,-5,-56,1,0,0,0,0,0,113,3,9,52,-32,237,6,4,0,168,171,170,169,1,8196
91.977964163,0,-4,-56,2,1,0,0,0,0,34,5,24,65,-25,234,6,4,0,168,171,170,169,1,8197
91.988923073,0,-4,-56,-1,0,-1,-1,0,0,34,5,24,65,-25,234,6,4,0,168,171,170,169,1,8198
91.999912024,0,-4,-56,-1,0,-1,-1,0,0,34,5,24,65,-25,234,6,4,0,170,169,169,170,1,8199
92.019037009,0,-4,-56,0,0,1,-1,0,0,99,-19,36,74,-16,234,6,4,0,169,170,169,170,1,8200
92.029952049,0,-4,-56,-1,-1,1,-1,0,0,25,-48,144,80,-9,235,6,4,0,169,170,169,170,1,8201
92.041073084,0,-4,-56,-1,-1,1,-1,0,0,25,-48,144,80,-9,235,6,4,0,170,169,169,170,1,8202
92.051971197,0,-4,-56,0,0,1,0,0,0,25,-48,144,80,-9,235,6,4,0,170,169,170,169,1,8203
92.070101023,0,-3,-56,0,0,1,0,0,0,-2,-54,168,81,-4,238,6,4,0,170,169,170,169,1,8204
92.081025124,0,-3,-56,0,0,0,0,0,0,56,-111,210,78,-2,242,6,4,0,170,169,170,169,1,8205
92.091921091,0,-3,-56,0,0,0,0,0,0,56,-111,210,78,-2,242,6,4,0,169,170,170,169,1,8206
92.102965117,0,-3,-56,0,0,0,0,0,0,56,-111,210,78,-2,242,6,4,0,169,170,170,169,1,8207
92.120972157,0,-2,-56,0,0,0,0,0,0,-2,-25,176,72,-4,245,6,4,0,169,170,169,170,1,8208
92.132004976,0,-2,-56,1,0,0,0,0,0,-10,19,91,65,-10,245,6,4,0,169,170,169,170,1,8209
92.142996073,0,-2,-56,1,1,1,0,0,0,-10,19,91,65,-10,245,6,4,0,168,171,169,170,1,8210
92.154043198,0,-2,-56,1,1,1,0,0,0,-10,19,91,65,-10,245,6,4,0,169,170,171,168,1,8211
92.173073054,0,-2,-56,0,1,2,0,0,0,-22,-64,29,55,-19,241,6,4,0,169,170,170,169,1,8212
92.183982134,0,-1,-56,-1,0,-2,0,0,0,-49,39,197,45,-29,234,6,4,0,169,170,170,169,1,8213
92.199530125,0,-1,-56,-1,0,-2,0,0,0,-49,39,197,45,-29,234,6,4,0,170,169,169,170,1,8214
92.205989123,0,-1,-56,1,0,1,0,0,1,-49,39,197,45,-29,234,6,4,0,169,170,169,170,1,8215
92.224919081,0,-1,-56,1,0,1,0,0,1,7,52,36,34,-39,227,6,4,0,169,170,169,170,1,8216
92.236049175,0,-1,-56,1,1,0,0,0,1,45,-83,212,22,-44,223,6,4,0,169,170,169,170,1,8217
92.247138024,0,-1,-56,-2,0,-3,0,0,1,45,-83,212,22,-44,223,6,4,0,169,170,170,169,1,8218
92.258146048,0,-1,-56,-2,0,-3,0,0,1,45,-83,212,22,-44,223,6,4,0,171,168,170,169,1,8219
92.276993036,0,-1,-56,0,0,0,0,0,0,-41,2,163,10,-45,223,6,4,0,169,170,170,169,1,8220
92.288036108,0,0,-56,0,0,-1,0,0,0,-13,31,243,0,-40,226,6,4,0,169,170,170,169,1,8221
92.29798913,0,0,-56,0,0,-1,0,0,0,-13,31,243,0,-40,226,6,4,0,170,169,169,170,1,8222
92.308947087,0,0,-56,1,0,-4,0,0,0,-13,31,243,0,-40,226,6,4,0,169,170,169,170,1,8223
92.328088045,0,0,-56,1,0,-4,0,0,0,-7,25,120,-7,-32,232,6,4,0,169,170,169,170,1,8224
92.339176178,0,0,-56,-1,0,-2,0,0,0,10,23,35,-13,-21,238,6,4,0,169,170,169,170,1,8225
92.349932194,0,0,-56,-1,0,-2,0,0,0,10,23,35,-13,-21,238,6,4,0,170,169,170,169,1,8226
92.361088991,0,0,-56,0,0,0,0,0,0,10,23,35,-13,-21,238,6,4,0,170,169,170,169,1,8227
92.379003048,0,0,-56,0,0,0,0,0,0,50,-7,43,-15,-9,243,6,4,0,169,170,170,169,1,8228
92.390066147,0,0,-56,1,0,1,0,0,0,0,-41,196,-15,0,248,6,4,0,169,170,170,169,1,8229
92.400957108,0,0,-56,-1,0,-1,0,0,-1,0,-41,196,-15,0,248,6,4,0,168,171,169,170,1,8230
92.411881209,0,0,-56,-1,0,-1,0,0,-1,0,-41,196,-15,0,248,6,4,0,171,168,169,170,1,8231
92.43108201,0,0,-56,0,0,0,0,0,-1,-90,81,187,-12,8,253,6,4,0,170,169,169,170,1,8232
92.442006111,0,0,-56,0,0,-1,0,0,-1,-10,-7,211,-8,14,3,6,4,0,170,169,169,170,1,8233
92.453092098,0,0,-56,0,0,-1,0,0,-1,-10,-7,211,-8,14,3,6,4,0,170,169,170,169,1,8234
92.463966131,0,0,-56,0,0,1,0,0,-1,-10,-7,211,-8,14,3,6,4,0,169,170,169,170,1,8235
92.482043028,0,0,-56,0,0,1,0,0,-1,100,-17,207,-3,16,8,6,4,0,169,170,169,170,1,8236
92.493082047,0,0,-56,1,0,-3,0,0,-1,-32,75,37,0,16,10,6,4,0,169,170,169,170,1,8237
92.503964186,0,0,-56,2,1,0,0,0,0,-32,75,37,0,16,10,6,4,0,168,171,170,169,1,8238
92.515096188,0,0,-56,2,1,0,0,0,0,-32,75,37,0,16,10,6,4,0,168,171,170,169,1,8239
92.533962012,0,0,-56,1,0,2,0,0,0,84,-39,73,2,15,7,6,4,0,169,170,170,169,1,8240
92.544909001,0,0,-56,0,0,0,0,0,0,33,-24,251,3,13,1,6,4,0,169,170,170,169,1,8241
92.555940151,0,0,-56,0,0,0,0,0,0,33,-24,251,3,13,1,6,4,0,169,170,170,169,1,8242
92.571170092,0,0,-56,-3,0,-1,0,0,0,33,-24,251,3,13,1,6,4,0,172,167,169,170,1,8243
92.585113049,0,0,-56,-3,0,-1,0,0,0,78,88,222,4,11,249,6,4,0,172,167,169,170,1,8244
92.595971108,0,0,-56,-3,0,-1,0,0,0,-37,-29,205,7,9,242,6,4,0,172,167,169,170,1,8245
92.60720706,0,0,-56,-3,0,-1,0,0,0,-37,-29,205,7,9,242,6,4,0,171,168,169,170,1,8246
92.618115187,0,0,-56,0,0,1,0,0,0,-37,-29,205,7,9,242,6,4,0,171,168,169,170,1,8247
92.636882067,0,0,-56,0,0,1,0,0,0,29,20,92,11,8,239,6,4,0,169,170,169,170,1,8248
92.647931099,0,0,-56,1,0,1,0,0,0,-51,42,229,18,8,238,6,4,0,169,170,169,170,1,8249
92.658989191,0,0,-56,0,0,-2,0,0,0,-51,42,229,18,8,238,6,4,0,169,170,169,170,1,8250
92.670055151,0,0,-56,0,0,-2,0,0,0,-51,42,229,18,8,238,6,4,0,170,169,170,169,1,8251
92.689131975,0,0,-56,2,0,1,0,0,0,-63,0,187,24,8,238,6,4,0,168,171,170,169,1,8252
92.69908309,0,0,-56,1,0,-1,0,0,0,-56,3,235,29,10,237,6,4,0,168,171,170,169,1,8253
92.710138083,0,0,-56,1,0,-1,0,0,0,-56,3,235,29,10,237,6,4,0,169,170,170,169,1,8254
92.720947027,0,0,-56,-2,0,-1,0,0,0,-56,3,235,29,10,237,6,4,0,171,168,169,170,1,8255
92.740019083,0,0,-56,-2,0,-1,0,0,0,8,20,49,29,11,231,6,4,0,171,168,169,170,1,8256
92.751042128,0,0,-56,-3,0,-1,0,0,0,-57,2,186,23,13,223,6,4,0,171,168,169,170,1,8257
92.761941195,0,0,-56,0,-1,-1,0,0,0,-57,2,186,23,13,223,6,4,0,172,167,169,170,1,8258
92.772910118,0,0,-56,0,-1,-1,0,0,0,-57,2,186,23,13,223,6,4,0,170,169,169,170,1,8259
92.795245171,0,0,-56,0,0,2,0,0,0,67,46,183,12,15,215,6,4,0,170,169,169,170,1,8260
92.802839995,0,0,-56,1,0,3,0,0,0,-18,-6,253,-1,16,208,6,4,0,170,169,169,170,1,8261
92.813871145,0,0,-56,1,0,3,0,0,0,-18,-6,253,-1,16,208,6,4,0,169,170,170,169,1,8262
92.825010061,0,0,-56,0,0,-1,0,0,0,-18,-6,253,-1,16,208,6,4,0,170,169,170,169,1,8263
92.843364001,0,0,-56,0,0,-1,0,0,0,-5,69,245,-15,16,205,6,4,0,170,169,170,169,1,8264
92.85393405,0,0,-56,0,0,-1,0,0,0,18,87,254,-26,16,205,6,4,0,170,169,170,169,1,8265
92.86495018,0,0,-56,0,0,-1,0,0,0,18,87,254,-26,16,205,6,4,0,169,170,169,170,1,8266
92.876078129,0,0,-56,0,0,1,0,0,0,18,87,254,-26,16,205,6,4,0,169,170,169,170,1,8267
92.895074129,0,0,-56,-1,0,-1,0,0,0,85,-135,18,-31,17,208,6,4,0,170,169,169,170,1,8268
92.90595603,0,0,-56,-1,0,-1,0,0,0,-40,23,233,-31,18,215,6,4,0,170,169,169,170,1,8269
92.916885138,0,0,-56,-1,0,-1,0,0,0,-40,23,233,-31,18,215,6,4,0,170,169,169,170,1,8270
92.928059101,0,0,-56,1,0,-1,0,0,0,-40,23,233,-31,18,215,6,4,0,169,170,169,170,1,8271
92.946062088,0,0,-56,1,0,-1,0,0,0,-116,32,0,-24,19,223,6,4,0,169,170,169,170,1,8272
92.956928015,0,0,-56,1,0,2,0,0,0,-6,-57,56,-14,20,231,6,4,0,169,170,169,170,1,8273
92.967979193,0,0,-56,-1,0,0,0,0,0,-6,-57,56,-14,20,231,6,4,0,169,170,169,170,1,8274
92.979120016,0,0,-56,-1,0,0,0,0,0,-6,-57,56,-14,20,231,6,4,0,170,169,169,170,1,8275
92.997978211,0,0,-56,1,0,-1,0,0,0,-72,74,26,-3,19,240,6,4,0,169,170,169,170,1,8276
93.008919001,0,0,-56,-1,0,-1,0,0,0,-52,51,4,4,16,248,6,4,0,169,170,169,170,1,8277
93.019911051,0,0,-56,-1,0,-1,0,0,0,-52,51,4,4,16,248,6,4,0,170,169,169,170,1,8278
93.03096509,0,0,-56,-1,0,0,0,0,0,-52,51,4,4,16,248,6,4,0,170,169,169,170,1,8279
93.049936056,0,0,-56,-2,-1,-1,0,0,0,-82,-54,129,6,12,0,6,4,0,171,168,169,170,1,8280
93.060973168,0,0,-56,0,0,0,0,0,0,35,84,18,1,8,6,6,4,0,171,168,169,170,1,8281
93.074928045,0,0,-56,0,0,0,0,0,0,35,84,18,1,8,6,6,4,0,170,169,169,170,1,8282
93.083062172,0,0,-56,0,0,-1,0,0,0,35,84,18,1,8,6,6,4,0,169,170,170,169,1,8283
93.10096407,0,0,-56,0,0,-1,0,0,0,-118,90,231,-9,5,10,6,4,0,169,170,170,169,1,8284
93.112097979,0,0,-56,2,0,0,0,0,0,-24,42,163,-23,5,10,6,4,0,169,170,170,169,1,8285
93.123190165,0,0,-56,2,0,0,0,0,0,-24,42,163,-23,5,10,6,4,0,168,171,170,169,1,8286
93.133923054,0,0,-56,0,0,0,0,0,0,-24,42,163,-23,5,10,6,4,0,170,169,170,169,1,8287
93.151972056,0,0,-56,0,0,0,0,0,0,-24,101,250,-38,7,7,6,4,0,170,169,170,169,1,8288
93.163379193,0,0,-56,-2,0,0,0,0,0,-109,97,224,-50,14,255,6,4,0,170,169,170,169,1,8289
93.173953057,0,0,-56,-2,0,0,0,0,0,-109,97,224,-50,14,255,6,4,0,171,168,169,170,1,8290
93.187231064,0,0,-56,0,0,0,0,0,0,-109,97,224,-50,14,255,6,4,0,169,170,169,170,1,8291
93.203293085,0,0,-56,0,0,0,0,0,0,-72,-21,181,-59,24,245,6,4,0,169,170,169,170,1,8292
93.214195013,0,-1,-56,0,0,0,0,0,0,-19,-29,17,-63,36,234,6,4,0,169,170,169,170,1,8293
93.224979162,0,-1,-56,-2,0,-1,0,0,0,-19,-29,17,-63,36,234,6,4,0,170,169,170,169,1,8294
93.23606205,0,-1,-56,-2,0,-1,0,0,0,-19,-29,17,-63,36,234,6,4,0,171,168,169,170,1,8295
93.255162001,1,-1,-56,0,0,-2,0,0,0,-101,-8,168,-63,49,224,6,4,0,169,170,170,169,1,8296
93.265969038,1,-1,-56,2,0,-1,0,0,0,-10,43,143,-62,58,215,6,4,0,169,170,170,169,1,8297
93.276965142,1,-1,-56,2,0,-1,0,0,0,-10,43,143,-62,58,215,6,4,0,168,171,170,169,1,8298
93.288042069,1,-1,-56,3,0,1,0,0,0,-10,43,143,-62,58,215,6,4,0,168,171,170,169,1,8299
93.306918144,1,-1,-56,3,0,1,0,0,0,-12,43,48,-60,62,210,6,4,0,168,171,170,169,1,8300
93.318129063,1,-1,-56,-1,0,1,0,0,0,-50,0,52,-57,59,207,6,4,0,168,171,170,169,1,8301
93.328908205,1,-1,-56,-1,0,-1,0,0,0,-50,0,52,-57,59,207,6,4,0,170,169,169,170,1,8302
93.339883089,1,-1,-56,-1,0,-1,0,0,0,-50,0,52,-57,59,207,6,4,0,170,169,169,170,1,8303
93.358949185,1,-2,-56,1,0,0,0,0,0,-25,0,189,-55,51,206,6,4,0,169,170,170,169,1,8304
93.369919062,2,-2,-56,0,0,0,0,0,0,10,-43,26,-52,39,208,6,4,0,169,170,170,169,1,8305
93.380932093,2,-2,-56,0,0,0,0,0,0,10,-43,26,-52,39,208,6,4,0,169,170,169,170,1,8306
93.391960144,2,-2,-56,-2,-1,0,0,0,0,10,-43,26,-52,39,208,6,4,0,171,168,169,170,1,8307
93.409943104,2,-2,-56,-2,-1,0,0,0,0,-34,-43,176,-48,26,213,6,4,0,171,168,169,170,1,8308
93.420925141,2,-2,-56,-1,0,0,0,0,0,-52,133,205,-44,14,219,6,4,0,171,168,169,170,1,8309
93.431990147,2,-2,-56,3,0,0,0,0,0,-52,133,205,-44,14,219,6,4,0,170,169,169,170,1,8310
93.44337821,2,-2,-56,3,0,0,0,0,0,-52,133,205,-44,14,219,6,4,0,167,172,170,169,1,8311
93.461944103,2,-2,-56,0,0,1,0,0,0,41,57,17,-39,4,227,6,4,0,170,169,170,169,1,8312
93.472985983,2,-3,-56,3,1,0,0,0,0,-104,45,248,-33,-2,234,6,4,0,170,169,170,169,1,8313
93.483988047,2,-3,-56,3,1,0,0,0,0,-104,45,248,-33,-2,234,6,4,0,168,171,170,169,1,8314
93.495139122,2,-3,-56,0,0,0,0,0,0,-104,45,248,-33,-2,234,6,4,0,170,169,169,170,1,8315
93.51299119,2,-3,-56,0,0,0,0,0,0,-122,55,234,-27,-4,239,6,4,0,170,169,169,170,1,8316
93.524011135,2,-3,-56,0,0,-1,0,0,0,-2,-25,244,-24,0,241,6,4,0,170,169,169,170,1,8317
93.535058022,2,-3,-56,0,0,0,0,0,0,-2,-25,244,-24,0,241,6,4,0,170,169,169,170,1,8318
93.545883179,2,-3,-56,0,0,0,0,0,0,-2,-25,244,-24,0,241,6,4,0,169,170,170,169,1,8319
93.564901114,2,-3,-56,-2,0,-1,0,0,0,-103,-22,184,-22,7,242,6,4,0,171,168,169,170,1,8320
93.575989008,2,-3,-56,-3,0,0,0,0,0,23,-77,201,-25,18,240,6,4,0,171,168,169,170,1,8321
93.587213993,2,-3,-56,-3,0,0,0,0,0,23,-77,201,-25,18,240,6,4,0,171,168,169,170,1,8322
93.597984076,2,-3,-56,3,0,0,0,0,0,23,-77,201,-25,18,240,6,4,0,168,171,170,169,1,8323
93.616753102,2,-3,-56,3,0,0,0,0,0,-5,-117,6,-31,28,238,6,4,0,168,171,170,169,1,8324
93.627116204,2,-3,-56,3,1,0,0,0,0,-27,-54,36,-38,33,235,6,4,0,168,171,170,169,1,8325
93.637925148,2,-3,-56,3,1,0,0,0,0,-27,-54,36,-38,33,235,6,4,0,167,172,170,169,1,8326
93.649085045,2,-3,-56,-1,1,0,0,0,0,-27,-54,36,-38,33,235,6,4,0,167,172,170,169,1,8327
93.667297125,2,-3,-56,-1,1,0,0,0,0,-70,-48,42,-45,31,232,6,4,0,170,169,170,169,1,8328
93.678357125,2,-3,-56,0,-1,0,0,0,0,-24,-8,21,-50,20,230,6,4,0,170,169,170,169,1,8329
93.691160202,2,-3,-56,1,0,0,0,0,0,-24,-8,21,-50,20,230,6,4,0,169,170,169,170,1,8330
93.699931145,2,-3,-56,1,0,0,0,0,0,-24,-8,21,-50,20,230,6,4,0,169,170,169,170,1,8331
93.718955994,2,-3,-56,-2,0,-1,0,0,0,102,-3,14,-51,2,230,6,4,0,171,168,169,170,1,8332
93.729979992,2,-4,-56,-3,0,0,0,0,0,-55,-47,193,-48,-20,233,6,4,0,171,168,169,170,1,8333
93.740898133,2,-4,-56,-3,0,0,0,0,0,-55,-47,193,-48,-20,233,6,4,0,171,168,170,169,1,8334
93.75396514,2,-3,-56,-2,0,0,0,0,0,-55,-47,193,-48,-20,233,6,4,0,171,168,169,170,1,8335
93.769950152,2,-4,-56,-2,0,0,0,0,0,11,-102,245,-41,-40,240,6,4,0,171,168,169,170,1,8336
93.781102181,2,-4,-56,4,0,0,0,0,0,80,-21,223,-32,-56,249,6,4,0,171,168,169,170,1,8337
93.79254818,2,-4,-56,0,0,0,0,0,0,80,-21,223,-32,-56,249,6,4,0,167,172,170,169,1,8338
93.803267002,2,-4,-56,0,0,0,0,0,0,80,-21,223,-32,-56,249,6,4,0,167,172,170,169,1,8339
93.821988106,2,-4,-56,0,0,0,0,0,0,73,53,223,-22,-65,1,6,4,0,170,169,170,169,1,8340
93.832961083,1,-4,-56,-1,0,0,0,0,0,112,-96,85,-10,-66,6,6,4,0,170,169,170,169,1,8341
93.844014168,1,-4,-56,-1,0,0,0,0,0,112,-96,85,-10,-66,6,6,4,0,170,169,169,170,1,8342
93.856688023,1,-4,-56,1,0,0,0,0,0,112,-96,85,-10,-66,6,6,4,0,169,170,170,169,1,8343
93.87292099,1,-4,-56,1,0,0,0,0,0,100,10,94,2,-62,8,6,4,0,169,170,170,169,1,8344
93.884442091,1,-4,-56,2,-1,0,0,0,0,75,25,203,15,-53,6,6,4,0,169,170,170,169,1,8345
93.895231009,1,-4,-56,2,-1,0,0,0,0,75,25,203,15,-53,6,6,4,0,168,171,169,170,1,8346
93.905982018,1,-4,-56,-2,-1,0,0,0,0,75,25,203,15,-53,6,6,4,0,168,171,169,170,1,8347
93.927148104,0,-4,-56,1,0,0,0,0,0,31,-93,65,30,-42,3,6,4,0,169,170,170,169,1,8348
93.935913086,0,-3,-56,-2,0,0,0,0,0,20,39,106,45,-32,1,6,4,0,169,170,170,169,1,8349
93.94711709,0,-3,-56,-2,0,0,0,0,0,20,39,106,45,-32,1,6,4,0,171,168,170,169,1,8350
93.958285094,0,-3,-56,1,0,-1,0,0,0,20,39,106,45,-32,1,6,4,0,169,170,170,169,1,8351
93.976027012,0,-3,-56,1,0,-1,0,0,0,-32,60,202,60,-22,2,6,4,0,169,170,170,169,1,8352
93.987542153,0,-3,-56,1,0,0,0,0,0,3,1,214,71,-15,3,6,4,0,169,170,170,169,1,8353
93.998193026,0,-3,-56,-1,-1,0,0,0,0,3,1,214,71,-15,3,6,4,0,169,170,169,170,1,8354
94.008960009,0,-3,-56,-1,-1,0,0,0,0,3,1,214,71,-15,3,6,4,0,170,169,169,170,1,8355
94.028072119,0,-3,-56,0,0,0,0,0,0,31,56,181,76,-10,4,6,4,0,169,170,170,169,1,8356
94.039004088,0,-2,-57,0,0,0,0,0,0,3,54,68,75,-5,1,6,4,0,169,170,170,169,1,8357
94.049983978,0,-2,-57,0,0,0,0,0,0,3,54,68,75,-5,1,6,4,0,170,169,170,169,1,8358
94.061247111,0,-2,-57,-3,-1,0,0,0,0,3,54,68,75,-5,1,6,4,0,172,167,169,170,1,8359
94.079927206,0,-2,-57,-3,-1,0,0,0,0,-94,-10,121,65,-1,250,6,4,0,172,167,169,170,1,8360
94.09001112,0,-2,-57,-1,-1,0,0,0,0,55,35,202,50,4,241,6,4,0,172,167,169,170,1,8361
94.100915194,0,-2,-57,2,1,0,0,0,0,55,35,202,50,4,241,6,4,0,170,169,169,170,1,8362
94.112150192,0,-2,-57,2,1,0,0,0,0,55,35,202,50,4,241,6,4,0,168,171,170,169,1,8363
94.130978108,0,-1,-57,-2,0,0,0,0,0,20,-73,235,32,11,232,6,4,0,171,168,170,169,1,8364
94.147078037,0,-1,-57,1,0,0,0,0,0,30,62,41,14,18,228,6,4,0,171,168,170,169,1,8365
94.152970076,0,-1,-57,1,0,0,0,0,0,30,62,41,14,18,228,6,4,0,169,170,170,169,1,8366
94.167057991,0,-1,-57,-3,0,0,0,0,0,30,62,41,14,18,228,6,4,0,169,170,170,169,1,8367
94.182932139,0,-1,-57,-3,0,0,0,0,0,13,135,195,0,24,229,6,4,0,172,167,169,170,1,8368
94.194013119,0,-1,-57,0,-1,0,0,0,0,9,13,196,-11,27,235,6,4,0,172,167,169,170,1,8369
94.205761194,0,-1,-57,0,0,0,0,0,0,9,13,196,-11,27,235,6,4,0,169,170,169,170,1,8370
94.215918064,0,-1,-57,0,0,0,0,0,0,9,13,196,-11,27,235,6,4,0,170,169,170,169,1,8371
94.235274077,0,-1,-57,-3,-1,-2,0,0,0,-91,4,45,-15,28,244,6,4,0,171,168,169,170,1,8372
94.245980978,0,-1,-57,-3,0,-1,0,0,0,0,81,32,-13,29,252,6,4,0,171,168,169,170,1,8373
94.256893158,0,-1,-57,-3,0,-1,0,0,0,0,81,32,-13,29,252,6,4,0,171,168,169,170,1,8374
94.267946005,0,-1,-57,2,0,0,0,0,0,0,81,32,-13,29,252,6,4,0,168,171,169,170,1,8375
94.285953045,0,-1,-57,2,0,0,0,0,0,-46,-56,242,-8,29,2,6,4,0,168,171,169,170,1,8376
94.296954155,0,-1,-57,1,0,0,0,0,0,-67,-14,223,-2,31,5,6,4,0,168,171,169,170,1,8377
94.308022022,0,-1,-57,1,0,0,0,0,0,-67,-14,223,-2,31,5,6,4,0,169,170,170,169,1,8378
94.319005013,0,-1,-57,-3,0,-1,0,0,0,-67,-14,223,-2,31,5,6,4,0,172,167,169,170,1,8379
94.337006092,0,-1,-57,-3,0,-1,0,0,0,-54,67,147,0,32,5,6,4,0,172,167,169,170,1,8380
94.347999096,0,-1,-57,-3,0,-1,0,0,0,57,-45,190,0,32,2,6,4,0,172,167,169,170,1,8381
94.359080076,0,-1,-57,0,0,0,0,0,0,57,-45,190,0,32,2,6,4,0,171,168,169,170,1,8382
94.370033026,0,-1,-57,0,0,0,0,0,0,57,-45,190,0,32,2,6,4,0,169,170,169,170,1,8383
94.389059067,0,-1,-57,0,0,0,0,0,0,4,-50,190,-5,31,253,6,4,0,170,169,169,170,1,8384
94.400053025,0,-1,-57,2,1,0,0,0,0,26,32,255,-13,27,246,6,4,0,170,169,169,170,1,8385
94.410955191,0,-1,-57,2,1,0,0,0,0,26,32,255,-13,27,246,6,4,0,168,171,170,169,1,8386
94.422068119,0,-1,-57,0,0,0,0,0,0,26,32,255,-13,27,246,6,4,0,168,171,170,169,1,8387
94.442768097,1,-1,-57,0,0,0,0,0,0,180,-86,81,-22,20,237,6,4,0,169,170,170,169,1,8388
94.450982094,1,-1,-57,-1,0,0,0,0,0,7,-32,72,-26,12,227,6,4,0,169,170,170,169,1,8389
94.462043047,1,-1,-57,0,0,0,0,0,0,7,-32,72,-26,12,227,6,4,0,170,169,169,170,1,8390
94.473059178,1,-1,-57,0,0,0,0,0,0,7,-32,72,-26,12,227,6,4,0,169,170,169,170,1,8391
94.491926193,1,-1,-57,0,-1,0,0,0,0,106,-22,0,-25,2,218,6,4,0,169,170,169,170,1,8392
94.505179167,1,-1,-57,0,0,-2,0,0,0,124,-60,230,-16,-7,215,6,4,0,169,170,169,170,1,8393
94.514028073,1,-1,-57,0,0,-2,0,0,0,124,-60,230,-16,-7,215,6,4,0,170,169,169,170,1,8394
94.524888993,1,-1,-57,0,1,0,0,0,0,124,-60,230,-16,-7,215,6,4,0,169,170,170,169,1,8395
94.543061018,1,-1,-57,0,1,0,0,0,0,68,-27,149,0,-17,218,6,4,0,169,170,170,169,1,8396
94.553945065,1,-1,-57,1,1,2,0,0,0,-40,-7,220,23,-26,228,6,4,0,169,170,170,169,1,8397
94.567294121,1,-1,-57,-1,0,-1,0,0,0,-40,-7,220,23,-26,228,6,4,0,169,170,170,169,1,8398
94.575956106,1,-1,-57,-1,0,-1,0,0,0,-40,-7,220,23,-26,228,6,4,0,170,169,169,170,1,8399
94.595105171,0,-1,-57,0,0,1,0,0,0,76,56,195,47,-33,240,6,4,0,169,170,170,169,1,8400
94.606006146,0,-1,-57,-1,0,0,0,0,0,-23,36,32,68,-38,251,6,4,0,169,170,170,169,1,8401
94.616998196,0,-1,-57,-1,0,0,0,0,0,-23,36,32,68,-38,251,6,4,0,170,169,169,170,1,8402
94.628067017,0,-1,-57,2,0,0,0,0,0,-23,36,32,68,-38,251,6,4,0,168,171,170,169,1,8403
94.645944119,0,0,-57,2,0,0,0,0,0,-22,-55,3,83,-39,1,6,4,0,168,171,170,169,1,8404
94.657014132,0,0,-57,-1,0,-3,0,0,0,-31,-82,119,88,-35,1,6,4,0,168,171,170,169,1,8405
94.667999029,0,0,-57,-1,0,-3,0,0,0,-31,-82,119,88,-35,1,6,4,0,170,169,169,170,1,8406
94.679022074,0,0,-57,0,0,0,0,0,0,-31,-82,119,88,-35,1,6,4,0,170,169,169,170,1,8407
94.698533058,0,0,-57,0,0,0,0,0,0,-33,19,235,83,-28,252,6,4,0,170,169,170,169,1,8408
94.711112976,0,0,-57,2,1,2,0,0,0,-74,-1,221,69,-20,246,6,4,0,170,169,170,169,1,8409
94.719943047,0,0,-57,2,1,2,0,0,0,-74,-1,221,69,-20,246,6,4,0,168,171,170,169,1,8410
94.730925083,0,0,-57,0,0,-1,0,0,0,-74,-1,221,69,-20,246,6,4,0,168,171,170,169,1,8411
94.75150013,0,0,-57,0,0,-1,0,0,0,-8,-24,197,47,-11,242,6,4,0,170,169,169,170,1,8412
94.760078192,0,0,-57,1,0,0,0,0,0,85,104,188,22,-6,242,6,4,0,170,169,169,170,1,8413
94.770981074,0,0,-57,1,0,0,0,0,0,85,104,188,22,-6,242,6,4,0,169,170,169,170,1,8414
94.781962157,0,0,-57,1,0,1,0,0,0,85,104,188,22,-6,242,6,4,0,169,170,169,170,1,8415
94.800016165,0,0,-57,1,0,1,0,0,0,126,25,85,-2,-3,244,6,4,0,169,170,170,169,1,8416
94.811181069,0,0,-57,0,0,1,0,0,0,92,-147,131,-22,-2,248,6,4,0,169,170,170,169,1,8417
94.821914196,0,0,-57,0,0,1,0,0,0,92,-147,131,-22,-2,248,6,4,0,169,170,169,170,1,8418
94.832959175,0,0,-57,-1,0,-1,0,0,0,92,-147,131,-22,-2,248,6,4,0,171,168,169,170,1,8419
94.851009131,0,0,-57,-1,0,-1,0,0,0,64,37,252,-33,-1,251,6,4,0,171,168,169,170,1,8420
94.861967087,0,0,-57,0,0,-1,0,0,0,90,-21,230,-31,-1,254,6,4,0,171,168,169,170,1,8421
94.873077154,0,0,-57,2,0,2,0,0,0,90,-21,230,-31,-1,254,6,4,0,169,170,169,170,1,8422
94.883930207,0,0,-57,2,0,2,0,0,0,90,-21,230,-31,-1,254,6,4,0,168,171,170,169,1,8423
94.903645992,0,0,-57,2,0,0,0,0,0,14,-52,8,-18,0,2,6,4,0,168,171,170,169,1,8424
94.913930178,0,0,-57,0,0,0,0,0,0,-29,52,192,4,-1,7,6,4,0,168,171,170,169,1,8425
94.925052166,0,0,-57,0,0,0,0,0,0,-29,52,192,4,-1,7,6,4,0,170,169,170,169,1,8426
94.935986996,0,0,-57,1,0,3,0,0,0,-29,52,192,4,-1,7,6,4,0,170,169,170,169,1,8427
94.955430031,0,0,-57,1,0,3,0,0,0,-67,-54,138,31,-3,12,6,4,0,168,171,170,169,1,8428
94.965165138,0,0,-57,0,0,2,0,0,0,-4,54,218,56,-6,16,6,4,0,168,171,170,169,1,8429
94.97597909,0,0,-57,-1,-1,-1,0,0,0,-4,54,218,56,-6,16,6,4,0,169,170,169,170,1,8430
94.987232208,0,0,-57,-1,-1,-1,0,0,0,-4,54,218,56,-6,16,6,4,0,171,168,169,170,1,8431
95.007169008,0,0,-57,0,0,1,0,0,0,-18,33,67,71,-10,15,6,4,0,169,170,170,169,1,8432
95.01792717,0,0,-57,0,0,-2,0,0,0,49,6,126,74,-12,9,6,4,0,169,170,170,169,1,8433
95.02910018,0,0,-57,0,0,-2,0,0,0,49,6,126,74,-12,9,6,4,0,169,170,169,170,1,8434
95.038991213,0,0,-57,0,0,2,0,0,0,49,6,126,74,-12,9,6,4,0,169,170,169,170,1,8435
95.059328079,0,1,-57,0,0,2,0,0,0,93,6,5,65,-12,254,6,4,0,169,170,170,169,1,8436
95.069019079,0,1,-57,0,0,0,0,0,0,-99,23,47,46,-10,241,6,4,0,169,170,170,169,1,8437
95.080037117,0,1,-57,0,0,0,0,0,0,-99,23,47,46,-10,241,6,4,0,170,169,169,170,1,8438
95.091423989,0,1,-57,0,0,0,0,0,0,-99,23,47,46,-10,241,6,4,0,170,169,169,170,1,8439
95.110032082,0,1,-57,0,0,3,0,0,0,-21,12,171,24,-5,228,6,4,0,169,170,170,169,1,8440
95.121023178,0,1,-57,0,0,2,0,0,0,-15,18,219,4,1,218,6,4,0,169,170,170,169,1,8441
95.131906033,0,1,-57,0,0,2,0,0,0,-15,18,219,4,1,218,6,4,0,170,169,169,170,1,8442
95.142984152,0,1,-57,-1,0,-1,0,0,0,-15,18,219,4,1,218,6,4,0,170,169,169,170,1,8443
95.160937071,0,1,-57,-1,0,-1,0,0,0,-27,-114,56,-10,8,212,6,4,0,170,169,169,170,1,8444
95.172161103,0,1,-56,0,0,-2,0,0,0,25,12,3,-19,14,212,6,4,0,170,169,169,170,1,8445
95.182987213,0,1,-56,0,0,-2,0,0,0,25,12,3,-19,14,212,6,4,0,170,169,170,169,1,8446
95.192984104,0,1,-56,0,0,0,0,0,0,25,12,3,-19,14,212,6,4,0,170,169,170,169,1,8447
95.211050034,0,1,-56,0,0,0,0,0,0,81,-5,253,-23,17,216,6,4,0,169,170,170,169,1,8448
95.221981049,0,1,-56,0,0,1,0,0,0,-24,-37,200,-22,16,223,6,4,0,169,170,170,169,1,8449
95.232967139,0,1,-56,0,1,0,0,0,0,-24,-37,200,-22,16,223,6,4,0,169,170,170,169,1,8450
95.244072199,0,1,-56,0,1,0,0,0,0,-24,-37,200,-22,16,223,6,4,0,170,169,170,169,1,8451
95.263122082,0,1,-56,1,0,3,0,0,0,53,-50,28,-18,11,232,6,4,0,169,170,170,169,1,8452
95.273916006,0,1,-56,0,0,0,0,0,0,36,-31,234,-11,3,242,6,4,0,169,170,170,169,1,8453
95.285083056,0,1,-56,0,0,0,0,0,0,36,-31,234,-11,3,242,6,4,0,170,169,170,169,1,8454
95.29610014,0,1,-56,0,0,1,0,0,0,36,-31,234,-11,3,242,6,4,0,170,169,170,169,1,8455
95.313941002,0,1,-56,0,0,1,0,0,0,113,11,210,-2,-6,250,6,4,0,170,169,170,169,1,8456
95.325129032,0,1,-56,-1,-1,0,0,0,0,-34,95,29,7,-17,255,6,4,0,170,169,170,169,1,8457
95.336077214,0,1,-56,-1,-1,0,0,0,0,-34,95,29,7,-17,255,6,4,0,170,169,169,170,1,8458
95.346949101,0,1,-56,2,0,0,0,0,0,-34,95,29,7,-17,255,6,4,0,168,171,170,169,1,8459
95.371294975,0,1,-56,2,0,0,0,0,0,20,109,221,17,-25,1,6,4,0,168,171,170,169,1,8460
95.3770082,0,1,-56,1,0,0,0,0,0,28,27,10,27,-29,0,6,4,0,168,171,170,169,1,8461
95.388185024,0,1,-56,-1,0,0,0,0,0,28,27,10,27,-29,0,6,4,0,168,171,170,169,1,8462
95.399221182,0,1,-56,-1,0,0,0,0,0,28,27,10,27,-29,0,6,4,0,170,169,170,169,1,8463
95.417103052,0,1,-56,1,0,0,0,0,0,104,-19,192,35,-26,253,6,4,0,169,170,169,170,1,8464
95.428193093,0,1,-56,-1,-1,-1,0,0,0,64,59,179,40,-17,249,6,4,0,169,170,169,170,1,8465
95.439116001,0,1,-56,-1,-1,-1,0,0,0,64,59,179,40,-17,249,6,4,0,170,169,169,170,1,8466
95.450388193,0,1,-56,1,0,0,0,0,0,64,59,179,40,-17,249,6,4,0,170,169,169,170,1,8467
95.469961167,0,1,-56,1,0,0,0,0,0,-17,-35,169,43,-2,244,6,4,0,169,170,169,170,1,8468
95.480026007,0,1,-56,0,0,1,0,0,0,-48,-38,173,43,15,239,6,4,0,169,170,169,170,1,8469
95.491085053,0,1,-56,-2,0,-1,0,0,0,-48,-38,173,43,15,239,6,4,0,170,169,170,169,1,8470
95.502484083,0,1,-56,-2,0,-1,0,0,0,-48,-38,173,43,15,239,6,4,0,171,168,170,169,1,8471
95.521707058,0,1,-56,3,0,0,0,0,0,8,114,204,43,30,233,6,4,0,168,171,169,170,1,8472
95.531107187,0,1,-56,3,0,0,0,0,0,-44,35,211,41,40,225,6,4,0,168,171,169,170,1,8473
95.542024136,0,1,-56,3,0,0,0,0,0,-44,35,211,41,40,225,6,4,0,167,172,170,169,1,8474
95.552981138,0,1,-56,0,0,0,0,0,0,-44,35,211,41,40,225,6,4,0,170,169,170,169,1,8475
95.571949005,0,2,-56,0,0,0,0,0,0,-39,-13,85,36,44,216,6,4,0,170,169,170,169,1,8476
95.582974196,0,2,-56,-1,0,0,0,0,0,-83,-62,36,29,42,207,6,4,0,170,169,170,169,1,8477
95.593903065,0,2,-56,2,0,0,0,0,0,-83,-62,36,29,42,207,6,4,0,171,168,169,170,1,8478
95.604902983,0,2,-56,2,0,0,0,0,0,-83,-62,36,29,42,207,6,4,0,168,171,170,169,1,8479
95.623994112,0,2,-56,-2,0,0,0,0,0,9,-79,167,19,36,200,6,4,0,171,168,169,170,1,8480
95.635035038,0,2,-56,-3,0,0,0,0,0,-23,15,206,6,28,198,6,4,0,171,168,169,170,1,8481
95.646049023,0,2,-56,-3,0,0,0,0,0,-23,15,206,6,28,198,6,4,0,171,168,169,170,1,8482
95.657025099,0,2,-56,-3,-1,-2,0,0,0,-23,15,206,6,28,198,6,4,0,171,168,169,170,1,8483
95.67496109,0,2,-56,-3,-1,-2,0,0,0,-90,-28,7,-7,17,202,6,4,0,171,168,169,170,1,8484
95.685887099,0,2,-56,-1,0,-1,0,0,0,-86,-73,12,-21,5,211,6,4,0,171,168,169,170,1,8485
95.697055102,0,2,-56,-1,0,-1,0,0,0,-86,-73,12,-21,5,211,6,4,0,171,168,169,170,1,8486
95.708147049,0,2,-56,0,1,1,0,0,0,-86,-73,12,-21,5,211,6,4,0,171,168,169,170,1,8487
95.72600317,0,2,-56,0,1,1,0,0,0,45,14,32,-33,-6,222,6,4,0,169,170,170,169,1,8488
95.737033129,0,2,-56,2,0,1,0,0,0,-50,56,205,-42,-17,234,6,4,0,169,170,170,169,1,8489
95.74832201,0,2,-56,2,0,1,0,0,0,-50,56,205,-42,-17,234,6,4,0,168,171,170,169,1,8490
95.759294987,0,2,-56,3,0,0,-1,0,0,-50,56,205,-42,-17,234,6,4,0,168,171,170,169,1,8491
95.777002096,0,1,-56,3,0,0,-1,0,0,-64,-10,28,-48,-26,244,6,4,0,168,171,170,169,1,8492
95.788247109,0,1,-56,0,0,0,-1,0,0,-38,-19,205,-51,-31,251,6,4,0,168,171,170,169,1,8493
95.799002171,0,1,-56,0,0,0,-1,0,0,-38,-19,205,-51,-31,251,6,4,0,170,169,170,169,1,8494
95.810110092,0,1,-56,-4,-1,-1,-1,0,0,-38,-19,205,-51,-31,251,6,4,0,172,167,169,170,1,8495
95.828997135,0,1,-56,-4,-1,-1,-1,0,0,86,19,202,-51,-32,0,6,4,0,172,167,169,170,1,8496
95.839903116,0,1,-56,-3,-1,-1,-1,0,0,62,-107,70,-47,-29,1,6,4,0,172,167,169,170,1,8497
95.851001978,0,1,-56,-3,-1,-1,-1,0,0,62,-107,70,-47,-29,1,6,4,0,172,167,169,170,1,8498
95.86195302,0,1,-56,0,0,0,0,0,0,62,-107,70,-47,-29,1,6,4,0,169,170,169,170,1,8499
95.879992008,0,1,-56,0,0,0,0,0,0,88,-4,208,-42,-22,0,6,4,0,169,170,169,170,1,8500
95.890964985,0,0,-56,2,0,1,0,0,0,64,42,244,-33,-14,253,6,4,0,169,170,169,170,1,8501
95.901941061,0,0,-56,-1,0,0,0,0,0,64,42,244,-33,-14,253,6,4,0,168,171,170,169,1,8502
95.913938046,0,0,-56,-1,0,0,0,0,0,64,42,244,-33,-14,253,6,4,0,171,168,169,170,1,8503
95.932056189,0,0,-56,2,1,1,0,0,0,23,-52,7,-21,-8,249,6,4,0,168,171,170,169,1,8504
95.943807125,0,0,-57,1,1,1,0,0,0,89,64,179,-5,-4,245,6,4,0,168,171,170,169,1,8505
95.953955174,0,0,-57,1,0,0,0,0,0,89,64,179,-5,-4,245,6,4,0,169,170,170,169,1,8506
95.965368986,0,0,-57,1,0,0,0,0,0,-58,9,215,12,-3,242,6,4,0,169,170,170,169,1,8507
95.983990193,0,0,-57,-2,-1,0,0,0,0,-58,9,215,12,-3,242,6,4,0,171,168,169,170,1,8508
95.994976998,0,0,-57,-3,-1,-1,0,0,0,-26,-132,78,31,-4,240,6,4,0,171,168,169,170,1,8509
96.005997181,0,0,-57,-3,-1,-1,0,0,0,-26,-132,78,31,-4,240,6,4,0,172,167,169,170,1,8510
96.017022133,0,0,-57,1,0,0,0,0,0,-26,-132,78,31,-4,240,6,4,0,172,167,169,170,1,8511
96.034960032,0,0,-57,1,0,0,0,0,0,-55,9,178,46,-6,238,6,4,0,168,171,169,170,1,8512
96.04598999,0,0,-57,2,0,0,0,0,0,-34,2,241,55,-8,237,6,4,0,168,171,169,170,1,8513
96.056946039,0,0,-57,2,0,0,0,0,0,-34,2,241,55,-8,237,6,4,0,168,171,170,169,1,8514
96.06806612,0,0,-57,-2,0,-1,0,0,0,-34,2,241,55,-8,237,6,4,0,171,168,169,170,1,8515
96.08604002,0,0,-57,-2,0,-1,0,0,0,-45,-80,18,55,-10,237,6,4,0,171,168,169,170,1,8516
96.09700203,0,0,-56,-2,0,0,0,0,0,-26,63,230,46,-12,236,6,4,0,171,168,169,170,1,8517
96.108292103,0,0,-56,-2,0,0,0,0,0,-26,63,230,46,-12,236,6,4,0,171,168,169,170,1,8518
96.118926048,0,0,-56,2,1,0,0,0,0,-26,63,230,46,-12,236,6,4,0,168,171,170,169,1,8519
96.137086153,0,1,-56,2,1,0,0,0,0,-95,-45,213,29,-15,237,6,4,0,168,171,170,169,1,8520
96.151570082,0,1,-56,2,0,2,0,0,0,29,-125,189,8,-18,238,6,4,0,168,171,170,169,1,8521
96.159011126,0,1,-56,-3,0,-1,0,0,0,29,-125,189,8,-18,238,6,4,0,168,171,170,169,1,8522
96.170084,0,1,-56,-3,0,-1,0,0,0,29,-125,189,8,-18,238,6,4,0,172,167,169,170,1,8523
96.189427138,0,1,-57,2,0,1,0,0,0,32,14,220,-14,-20,239,6,4,0,168,171,170,169,1,8524
96.2000072,0,1,-57,0,0,0,0,0,0,-2,24,201,-34,-23,239,6,4,0,168,171,170,169,1,8525
96.211031199,0,1,-57,2,1,0,0,0,0,-2,24,201,-34,-23,239,6,4,0,170,169,169,170,1,8526
96.223185063,0,1,-57,2,1,0,0,0,0,68,-40,25,-47,-25,237,6,4,0,168,171,170,169,1,8527
96.241038084,0,1,-57,0,0,-1,0,0,0,68,-40,25,-47,-25,237,6,4,0,169,170,169,170,1,8528
96.252132178,0,0,-57,-2,0,-1,0,0,0,-84,6,46,-52,-27,234,6,4,0,169,170,169,170,1,8529
96.263084173,0,0,-57,-2,0,-1,0,0,0,-84,6,46,-52,-27,234,6,4,0,171,168,169,170,1,8530
96.273928166,0,0,-57,2,0,1,0,0,0,-84,6,46,-52,-27,234,6,4,0,171,168,169,170,1,8531
96.292074204,0,0,-57,2,0,1,0,0,0,-120,90,215,-48,-28,230,6,4,0,168,171,170,169,1,8532
96.303171158,0,0,-57,3,0,2,0,0,0,-63,55,179,-38,-28,226,6,4,0,168,171,170,169,1,8533
96.315079212,0,0,-57,3,0,2,0,0,0,-63,55,179,-38,-28,226,6,4,0,168,171,170,169,1,8534
96.32497716,0,0,-57,0,0,0,0,0,0,-63,55,179,-38,-28,226,6,4,0,169,170,169,170,1,8535
96.34394908,0,0,-57,0,0,0,0,0,0,5,12,244,-24,-24,225,6,4,0,169,170,169,170,1,8536
96.354946137,-1,0,-57,-1,0,0,0,0,0,10,68,38,-14,-17,226,6,4,0,169,170,169,170,1,8537
96.365988016,-1,0,-57,1,0,1,0,0,0,10,68,38,-14,-17,226,6,4,0,170,169,169,170,1,8538
96.37947011,-1,0,-57,1,0,1,0,0,0,10,68,38,-14,-17,226,6,4,0,168,171,170,169,1,8539
96.395925999,-1,0,-57,-1,0,-1,0,0,0,45,-93,247,-8,-6,229,6,4,0,170,169,170,169,1,8540
96.407045126,-1,0,-57,0,0,-1,0,0,0,-29,-138,44,-9,6,233,6,4,0,170,169,170,169,1,8541
96.418055058,-1,0,-57,0,0,-1,0,0,0,-29,-138,44,-9,6,233,6,4,0,170,169,169,170,1,8542
96.428930998,-1,0,-57,-2,-1,0,0,0,0,-29,-138,44,-9,6,233,6,4,0,171,168,169,170,1,8543
96.446978092,-1,0,-57,1,0,0,0,0,0,-17,-32,8,-13,17,237,6,4,0,168,171,169,170,1,8544
96.458369017,0,0,-57,2,0,0,0,0,0,-1,0,226,-18,25,242,6,4,0,168,171,169,170,1,8545
96.469427109,0,0,-57,2,0,0,0,0,0,-1,0,226,-18,25,242,6,4,0,168,171,170,169,1,8546
96.479953051,0,0,-57,0,0,0,0,0,0,-1,0,226,-18,25,242,6,4,0,168,171,170,169,1,8547
96.499073982,0,0,-57,0,0,0,0,0,0,-34,114,164,-22,25,248,6,4,0,170,169,170,169,1,8548
96.510169983,0,0,-57,-3,-1,0,0,0,0,22,58,225,-22,17,253,6,4,0,170,169,170,169,1,8549
96.520907164,0,0,-57,-3,-1,0,0,0,0,22,58,225,-22,17,253,6,4,0,172,167,169,170,1,8550
96.532157183,0,0,-57,3,0,1,0,0,0,22,58,225,-22,17,253,6,4,0,168,171,169,170,1,8551
96.549945116,0,0,-57,3,0,1,0,0,0,-34,-51,8,-20,4,0,6,4,0,168,171,169,170,1,8552
96.561207056,0,0,-57,1,0,1,0,0,0,-8,28,243,-17,-8,1,6,4,0,168,171,169,170,1,8553
96.572058201,0,0,-57,1,0,1,0,0,0,-8,28,243,-17,-8,1,6,4,0,169,170,170,169,1,8554
96.585003138,0,0,-57,-3,0,0,0,0,0,-8,28,243,-17,-8,1,6,4,0,172,167,170,169,1,8555
96.601037026,0,0,-57,-3,0,0,0,0,0,-44,123,36,-12,-16,254,6,4,0,172,167,170,169,1,8556
96.611937046,0,0,-57,-1,0,-1,0,0,0,-19,-60,254,-9,-18,249,6,4,0,172,167,170,169,1,8557
96.62296319,0,0,-57,2,0,0,0,0,0,-19,-60,254,-9,-18,249,6,4,0,171,168,169,170,1,8558
96.633992195,0,0,-57,2,0,0,0,0,0,-19,-60,254,-9,-18,249,6,4,0,168,171,169,170,1,8559
96.65318203,0,0,-57,-1,0,-1,0,0,0,-89,-13,120,-7,-12,243,6,4,0,170,169,169,170,1,8560
96.663959027,0,0,-57,2,0,0,0,0,0,-44,88,238,-7,-2,238,6,4,0,170,169,169,170,1,8561
96.675176144,0,0,-57,2,0,0,0,0,0,-44,88,238,-7,-2,238,6,4,0,168,171,170,169,1,8562
96.687371016,0,0,-57,0,0,0,0,0,0,-44,88,238,-7,-2,238,6,4,0,170,169,170,169,1,8563
96.697160006,0,0,-57,0,0,0,0,0,0,-12,-118,177,-10,10,234,6,4,0,170,169,170,169,1,8564
96.708122015,0,0,-57,-5,-1,0,0,0,0,-12,-118,177,-10,10,234,6,4,0,173,166,169,170,1,8565
96.719200134,0,0,-57,-5,-1,0,0,0,0,-12,-118,177,-10,10,234,6,4,0,173,166,169,170,1,8566
96.729927063,0,0,-57,0,0,0,0,0,0,15,-30,155,-16,21,232,6,4,0,170,169,169,170,1,8567
96.740922213,0,0,-57,-2,-1,-2,0,0,0,15,-30,155,-16,21,232,6,4,0,170,169,169,170,1,8568
96.752113104,0,0,-57,-2,-1,-2,0,0,0,15,-30,155,-16,21,232,6,4,0,171,168,169,170,1,8569
96.762977123,0,0,-57,1,0,0,0,0,0,63,56,221,-23,28,229,6,4,0,168,171,170,169,1,8570
96.774135113,0,0,-57,0,0,-1,0,0,0,63,56,221,-23,28,229,6,4,0,168,171,169,170,1,8571
96.784980059,0,0,-57,0,0,-1,0,0,0,12,-37,36,-30,29,225,6,4,0,169,170,169,170,1,8572
96.802889109,0,0,-57,3,1,0,0,0,0,12,-37,36,-30,29,225,6,4,0,168,171,170,169,1,8573
96.814062119,0,0,-57,1,1,0,-1,0,0,-24,80,232,-34,24,219,6,4,0,168,171,170,169,1,8574
96.824971199,0,0,-57,1,1,0,-1,0,0,-24,80,232,-34,24,219,6,4,0,169,170,170,169,1,8575
96.835901976,0,0,-57,-3,0,-2,-1,0,0,-24,80,232,-34,24,219,6,4,0,171,168,169,170,1,8576
96.853931189,0,-1,-57,-3,0,-2,-1,0,0,53,-10,99,-33,14,213,6,4,0,171,168,169,170,1,8577
96.871165991,0,-1,-57,-2,-3,-3,-1,0,0,20,-18,198,-28,4,207,6,4,0,171,168,169,170,1,8578
96.876033068,0,-1,-57,-1,-2,0,0,0,0,20,-18,198,-28,4,207,6,4,0,171,168,167,172,1,8579
96.887088061,0,-1,-57,-1,-2,0,0,0,0,20,-18,198,-28,4,207,6,4,0,170,169,168,171,1,8580
96.905924082,0,-1,-57,-2,0,-2,0,0,0,-2,56,38,-17,-3,203,6,4,0,171,168,169,170,1,8581
96.917132139,0,-1,-57,1,1,0,0,0,0,51,52,229,-5,-8,202,6,4,0,171,168,169,170,1,8582
96.928167105,0,-1,-57,1,1,0,0,0,0,51,52,229,-5,-8,202,6,4,0,169,170,171,168,1,8583
96.938960076,0,-1,-57,0,1,0,0,0,0,51,52,229,-5,-8,202,6,4,0,169,170,171,168,1,8584
96.962553025,0,-1,-57,2,1,0,0,0,-1,-64,-11,29,7,-8,202,6,4,0,168,171,170,169,1,8585
96.968909025,0,-1,-57,0,0,0,0,0,-1,-153,87,234,18,-4,204,6,4,0,168,171,170,169,1,8586
96.979948044,0,-1,-57,1,0,0,0,0,-1,-153,87,234,18,-4,204,6,4,0,169,170,169,170,1,8587
96.990949154,0,-1,-57,1,0,0,0,0,-1,-153,87,234,18,-4,204,6,4,0,169,170,169,170,1,8588
97.008977175,0,-1,-57,-1,-1,0,0,0,0,-94,82,123,24,2,208,6,4,0,170,169,169,170,1,8589
97.020025015,0,-1,-57,-1,0,-2,0,0,0,-5,-88,169,24,12,214,6,4,0,170,169,169,170,1,8590
97.031036139,0,-1,-57,-1,0,-2,0,0,0,-5,-88,169,24,12,214,6,4,0,170,169,170,169,1,8591
97.042193175,0,-1,-57,-2,1,0,0,0,0,-5,-88,169,24,12,214,6,4,0,170,169,170,169,1,8592
97.060897112,0,-1,-57,-2,1,0,0,0,0,-22,-10,200,16,22,221,6,4,0,171,168,170,169,1,8593
97.072079182,0,-1,-57,1,0,2,0,0,0,-24,-38,26,1,31,227,6,4,0,171,168,170,169,1,8594
97.087207079,0,-1,-57,0,0,-2,0,0,0,-24,-38,26,1,31,227,6,4,0,168,171,170,169,1,8595
97.09397912,0,-1,-57,0,0,-2,0,0,0,-24,-38,26,1,31,227,6,4,0,169,170,169,170,1,8596
97.112940073,0,0,-57,0,0,0,0,0,0,-72,-28,5,-18,36,228,6,4,0,169,170,169,170,1,8597
97.123916149,0,-1,-57,0,0,-1,0,0,0,-9,94,17,-37,36,226,6,4,0,169,170,169,170,1,8598
97.134998083,0,-1,-57,0,0,-1,0,0,0,-9,94,17,-37,36,226,6,4,0,170,169,169,170,1,8599
97.146001101,0,0,-57,1,0,2,0,0,0,-9,94,17,-37,36,226,6,4,0,169,170,170,169,1,8600
97.163912058,0,-1,-57,1,0,2,0,0,0,-85,-29,213,-53,30,222,6,4,0,169,170,170,169,1,8601
97.175106049,0,-1,-57,-1,-1,0,0,0,0,68,9,79,-63,20,218,6,4,0,169,170,170,169,1,8602
97.185971976,0,-1,-57,-2,0,-1,0,0,0,68,9,79,-63,20,218,6,4,0,171,168,169,170,1,8603
97.196957112,0,-1,-57,-2,0,-1,0,0,0,169,53,201,-65,9,217,6,4,0,171,168,169,170,1,8604
97.215861082,0,-1,-57,0,0,2,0,0,0,169,53,201,-65,9,217,6,4,0,169,170,170,169,1,8605
97.226981163,0,-1,-57,1,0,1,0,0,0,20,60,19,-61,0,217,6,4,0,169,170,170,169,1,8606
97.238306999,0,-1,-57,1,0,1,0,0,0,20,60,19,-61,0,217,6,4,0,169,170,170,169,1,8607
97.248936177,0,-1,-57,0,0,-1,0,0,0,20,60,19,-61,0,217,6,4,0,169,170,169,170,1,8608
97.267180205,0,-1,-57,0,0,-1,0,0,0,49,-10,44,-50,-6,218,6,4,0,169,170,169,170,1,8609
97.278159142,0,-2,-57,1,0,-1,0,0,0,139,-20,222,-32,-7,218,6,4,0,169,170,169,170,1,8610
97.289060116,0,-2,-57,1,0,-1,0,0,0,139,-20,222,-32,-7,218,6,4,0,169,170,170,169,1,8611
97.299920082,0,-2,-57,1,0,1,0,0,0,139,-20,222,-32,-7,218,6,4,0,169,170,170,169,1,8612
97.317929983,0,-2,-57,1,0,1,0,0,0,-60,-30,205,-9,-3,217,6,4,0,169,170,170,169,1,8613
97.328999996,0,-2,-57,0,0,2,0,0,0,-8,-115,225,15,3,217,6,4,0,169,170,170,169,1,8614
97.340016127,0,-2,-57,-1,0,0,0,0,0,-8,-115,225,15,3,217,6,4,0,169,170,169,170,1,8615
97.351004124,0,-2,-57,-1,0,0,0,0,0,-8,-115,225,15,3,217,6,4,0,171,168,169,170,1,8616
97.369996071,0,-2,-57,0,0,2,0,0,0,1,68,168,38,10,219,6,4,0,170,169,169,170,1,8617
97.381084204,0,-2,-57,0,-1,-1,0,0,0,-6,30,197,56,14,221,6,4,0,170,169,169,170,1,8618
97.392050982,0,-2,-57,0,-1,-1,0,0,0,-6,30,197,56,14,221,6,4,0,169,170,169,170,1,8619
97.403057099,0,-2,-57,0,0,0,0,0,0,-6,30,197,56,14,221,6,4,0,169,170,170,169,1,8620
97.422075987,0,-1,-57,0,0,0,0,0,0,45,-44,94,65,14,224,6,4,0,169,170,170,169,1,8621
97.432915211,0,-1,-57,0,0,0,0,0,0,117,90,4,65,9,226,6,4,0,169,170,170,169,1,8622
97.444120169,0,-1,-57,0,0,-1,0,0,0,117,90,4,65,9,226,6,4,0,169,170,170,169,1,8623
97.455043078,0,-1,-57,0,0,-1,0,0,0,88,-56,200,56,2,227,6,4,0,170,169,169,170,1,8624
97.473923207,0,-1,-57,0,0,0,0,0,0,88,-56,200,56,2,227,6,4,0,170,169,169,170,1,8625
97.484045983,0,-1,-57,0,0,0,0,0,0,9,-67,43,43,-4,228,6,4,0,170,169,169,170,1,8626
97.494961977,0,-1,-57,0,0,0,0,0,0,9,-67,43,43,-4,228,6,4,0,170,169,169,170,1,8627
97.505933047,0,-1,-57,0,0,0,0,0,0,9,-67,43,43,-4,228,6,4,0,170,169,169,170,1,8628
97.525043011,0,0,-57,0,0,0,0,0,0,0,-46,2,30,-9,230,6,4,0,170,169,169,170,1,8629
97.535891056,0,0,-57,0,0,-1,0,0,0,3,17,139,22,-11,233,6,4,0,170,169,169,170,1,8630
97.547456026,0,0,-57,0,0,-1,0,0,0,3,17,139,22,-11,233,6,4,0,170,169,169,170,1,8631
97.558216095,0,0,-57,1,1,0,0,0,0,3,17,139,22,-11,233,6,4,0,170,169,169,170,1,8632
97.575996161,0,0,-57,1,1,0,0,0,0,44,-39,19,20,-12,238,6,4,0,169,170,170,169,1,8633
97.58715415,0,0,-57,0,0,0,0,0,0,-2,-13,64,23,-13,243,6,4,0,169,170,170,169,1,8634
97.598206043,0,0,-57,-1,0,-2,0,0,0,-2,-13,64,23,-13,243,6,4,0,170,169,169,170,1,8635
97.608971119,0,0,-57,-1,0,-2,0,0,0,-2,-13,64,23,-13,243,6,4,0,171,168,169,170,1,8636
97.627914191,0,0,-57,0,0,0,0,0,0,24,110,206,27,-14,247,6,4,0,169,170,170,169,1,8637
97.638935089,0,0,-57,1,0,-1,0,0,0,42,-59,186,31,-16,250,6,4,0,169,170,170,169,1,8638
97.649973154,0,0,-57,1,0,-1,0,0,0,42,-59,186,31,-16,250,6,4,0,169,170,169,170,1,8639
97.661022186,0,0,-57,0,0,1,0,0,0,42,-59,186,31,-16,250,6,4,0,169,170,169,170,1,8640
97.678974152,0,0,-57,0,0,1,0,0,0,3,-29,15,34,-17,250,6,4,0,169,170,169,170,1,8641
97.690000057,0,0,-57,0,0,-1,0,0,0,45,-86,8,34,-16,250,6,4,0,169,170,169,170,1,8642
97.700993061,0,0,-57,2,0,0,0,0,0,45,-86,8,34,-16,250,6,4,0,170,169,170,169,1,8643
97.711920977,0,0,-57,2,0,0,0,0,0,98,26,218,32,-14,247,6,4,0,168,171,170,169,1,8644
97.730975151,0,0,-57,0,0,3,0,0,0,98,26,218,32,-14,247,6,4,0,169,170,170,169,1,8645
97.741952181,0,0,-57,1,0,0,0,0,0,-12,-25,49,28,-12,245,6,4,0,169,170,170,169,1,8646
97.753025055,0,0,-57,1,0,0,0,0,0,-12,-25,49,28,-12,245,6,4,0,169,170,170,169,1,8647
97.763928175,0,0,-57,-1,0,-1,0,0,0,-12,-25,49,28,-12,245,6,4,0,170,169,169,170,1,8648
97.781934023,0,0,-57,-1,0,-1,0,0,0,57,-28,33,26,-10,242,6,4,0,170,169,169,170,1,8649
97.793015003,0,0,-57,-1,-1,-2,0,0,0,0,-10,228,25,-10,241,6,4,0,170,169,169,170,1,8650
97.803954125,0,0,-57,-1,-1,-2,0,0,0,0,-10,228,25,-10,241,6,4,0,170,169,168,171,1,8651
97.818124056,0,0,-57,0,0,0,0,0,0,0,-10,228,25,-10,241,6,4,0,170,169,168,171,1,8652
97.832915068,0,0,-57,0,0,0,0,0,0,11,102,186,26,-12,241,6,4,0,170,169,170,169,1,8653
97.847212076,0,0,-57,0,1,0,0,0,0,8,49,200,28,-14,244,6,4,0,170,169,170,169,1,8654
97.855195999,0,0,-57,0,1,0,0,0,0,8,49,200,28,-14,244,6,4,0,169,170,170,169,1,8655
97.866134167,0,0,-57,1,0,-1,0,0,0,8,49,200,28,-14,244,6,4,0,169,170,170,169,1,8656
97.884953976,0,1,-57,1,0,-1,0,0,0,-100,95,208,30,-16,248,6,4,0,168,171,170,169,1,8657
97.896033049,0,1,-57,1,0,0,0,0,0,25,64,18,31,-14,250,6,4,0,168,171,170,169,1,8658
97.906877995,0,1,-57,1,0,0,0,0,0,25,64,18,31,-14,250,6,4,0,169,170,170,169,1,8659
97.919051171,0,1,-57,0,0,1,0,0,0,25,64,18,31,-14,250,6,4,0,169,170,170,169,1,8660
97.936001063,0,1,-57,0,0,1,0,0,0,54,35,11,29,-7,250,6,4,0,169,170,170,169,1,8661
97.947080136,0,1,-57,-3,-1,0,0,0,0,-7,-132,7,24,3,247,6,4,0,169,170,170,169,1,8662
97.958013058,0,1,-57,-3,-1,0,0,0,0,-7,-132,7,24,3,247,6,4,0,172,167,169,170,1,8663
97.969174147,0,1,-57,-1,-1,-1,0,0,0,-7,-132,7,24,3,247,6,4,0,171,168,169,170,1,8664
97.987074137,0,1,-57,-1,-1,-1,0,0,0,53,-78,132,16,18,242,6,4,0,171,168,169,170,1,8665
97.99815917,0,1,-57,4,0,1,0,0,0,-21,2,199,8,32,237,6,4,0,171,168,169,170,1,8666
98.011073113,0,1,-57,0,0,0,0,0,0,-21,2,199,8,32,237,6,4,0,167,172,170,169,1,8667
98.019994021,0,1,-57,0,0,0,0,0,0,-21,2,199,8,32,237,6,4,0,169,170,170,169,1,8668
98.039026976,0,1,-57,2,0,0,0,0,0,1,-82,210,1,41,232,6,4,0,168,171,170,169,1,8669
98.050069094,0,1,-57,0,0,0,0,0,0,21,-9,55,-2,40,228,6,4,0,168,171,170,169,1,8670
98.063078165,0,1,-57,0,0,0,0,0,0,21,-9,55,-2,40,228,6,4,0,169,170,170,169,1,8671
98.07193017,0,1,-57,1,0,1,0,0,0,21,-9,55,-2,40,228,6,4,0,169,170,170,169,1,8672
98.090524197,0,1,-57,1,0,1,0,0,0,8,17,122,-3,30,225,6,4,0,168,171,170,169,1,8673
98.101019144,0,1,-57,0,0,0,0,0,0,-82,-147,14,0,13,222,6,4,0,168,171,170,169,1,8674
98.111992121,0,1,-57,-2,-1,-1,0,0,0,-82,-147,14,0,13,222,6,4,0,169,170,169,170,1,8675
98.123040199,0,1,-57,-2,-1,-1,0,0,0,-82,-147,14,0,13,222,6,4,0,171,168,169,170,1,8676
98.141906023,0,1,-57,1,0,0,0,0,0,13,-152,27,2,-7,223,6,4,0,169,170,169,170,1,8677
98.15505004,0,1,-57,-2,0,-2,1,0,0,-6,-58,144,5,-29,228,6,4,0,169,170,169,170,1,8678
98.163990021,0,1,-57,-2,0,-2,1,0,0,-6,-58,144,5,-29,228,6,4,0,171,168,170,169,1,8679
98.175163985,0,1,-57,0,0,0,1,0,0,-6,-58,144,5,-29,228,6,4,0,171,168,170,169,1,8680
98.192974091,0,1,-57,0,0,0,1,0,0,-48,-67,180,7,-48,238,6,4,0,169,170,170,169,1,8681
98.203989029,0,1,-57,0,0,1,1,0,0,64,-19,9,5,-63,249,6,4,0,169,170,170,169,1,8682
98.21530509,0,1,-57,0,0,-1,0,0,0,64,-19,9,5,-63,249,6,4,0,170,169,170,169,1,8683
98.225960016,0,1,-57,0,0,-1,0,0,0,64,-19,9,5,-63,249,6,4,0,169,170,169,170,1,8684
98.245002032,0,1,-57,0,0,2,0,0,0,-33,47,242,2,-75,4,6,4,0,170,169,169,170,1,8685
98.255909205,0,1,-57,2,0,0,0,0,0,-65,-105,253,-2,-82,10,6,4,0,170,169,169,170,1,8686
98.266974211,0,1,-57,2,0,0,0,0,0,-65,-105,253,-2,-82,10,6,4,0,168,171,170,169,1,8687
98.278146029,0,1,-57,-2,0,-1,0,0,0,-65,-105,253,-2,-82,10,6,4,0,171,168,169,170,1,8688
98.297058106,0,1,-57,-2,0,-1,0,0,0,22,-99,8,-8,-84,10,6,4,0,171,168,169,170,1,8689
98.307892084,0,1,-57,-1,-1,-2,0,0,0,-8,0,140,-12,-80,4,6,4,0,171,168,169,170,1,8690
98.31914115,0,1,-57,-1,-1,-2,0,0,0,-8,0,140,-12,-80,4,6,4,0,171,168,169,170,1,8691
98.329938174,0,1,-57,-1,0,0,0,0,0,-8,0,140,-12,-80,4,6,4,0,171,168,169,170,1,8692
98.347973109,-1,1,-57,-1,0,0,0,0,0,-85,13,231,-15,-71,251,6,4,0,170,169,169,170,1,8693
98.358916044,-1,1,-57,0,1,0,0,0,0,100,4,190,-16,-61,241,6,4,0,170,169,169,170,1,8694
98.369979143,-1,1,-57,0,0,-1,0,0,0,100,4,190,-16,-61,241,6,4,0,170,169,170,169,1,8695
98.380899191,-1,1,-57,0,0,-1,0,0,0,100,4,190,-16,-61,241,6,4,0,170,169,170,169,1,8696
98.399969101,-1,1,-57,4,1,0,0,0,0,-54,73,188,-17,-50,232,6,4,0,167,172,170,169,1,8697
98.410930157,-1,1,-57,2,0,0,0,0,0,0,58,96,-17,-40,223,6,4,0,167,172,170,169,1,8698
98.421876192,-1,1,-57,2,0,0,0,0,0,0,58,96,-17,-40,223,6,4,0,168,171,170,169,1,8699
98.432915211,-1,0,-57,0,0,1,0,0,0,0,58,96,-17,-40,223,6,4,0,170,169,170,169,1,8700
98.450958014,-2,0,-57,0,0,1,0,0,0,50,-89,4,-15,-29,217,6,4,0,170,169,170,169,1,8701
98.464304209,-2,0,-57,-2,-1,-1,0,0,0,-38,-33,115,-13,-18,213,6,4,0,170,169,170,169,1,8702
98.473002196,-2,0,-57,1,0,0,0,0,0,-38,-33,115,-13,-18,213,6,4,0,171,168,168,171,1,8703
98.483947039,-2,0,-57,1,0,0,0,0,0,-38,-33,115,-13,-18,213,6,4,0,169,170,169,170,1,8704
98.503336191,-2,0,-57,-2,0,0,0,0,0,-110,-31,205,-10,-7,212,6,4,0,171,168,169,170,1,8705
98.514003039,-2,0,-57,0,1,0,0,0,0,-62,-65,153,-7,1,214,6,4,0,171,168,169,170,1,8706
98.525021076,-2,0,-57,0,1,0,0,0,0,-62,-65,153,-7,1,214,6,4,0,169,170,170,169,1,8707
98.536200047,-2,0,-57,-1,0,-1,0,0,0,-62,-65,153,-7,1,214,6,4,0,170,169,169,170,1,8708
98.555204153,-2,0,-57,-1,0,-1,0,0,0,18,17,211,-5,7,218,6,4,0,170,169,169,170,1,8709
98.564971209,-2,0,-57,-1,0,-1,0,0,0,36,10,79,-5,8,221,6,4,0,170,169,169,170,1,8710
98.576112032,-2,0,-57,-1,0,-1,0,0,0,36,10,79,-5,8,221,6,4,0,170,169,169,170,1,8711
98.587514162,-2,0,-57,0,0,2,0,0,0,36,10,79,-5,8,221,6,4,0,170,169,169,170,1,8712
98.604948044,-2,0,-57,0,0,2,0,0,0,61,-116,102,-9,3,222,6,4,0,169,170,170,169,1,8713
98.616093159,-2,0,-57,1,1,0,0,0,0,40,39,201,-14,-4,220,6,4,0,169,170,170,169,1,8714
98.626963139,-2,0,-57,-3,0,-1,0,0,0,40,39,201,-14,-4,220,6,4,0,169,170,170,169,1,8715
98.638051033,-2,0,-57,-3,0,-1,0,0,0,40,39,201,-14,-4,220,6,4,0,169,170,170,169,1,8716
98.656959057,-2,0,-57,0,0,1,0,0,0,-55,-26,212,-18,-14,220,6,4,0,169,170,169,170,1,8717
98.668076039,-2,0,-57,0,0,-1,-1,0,0,35,-93,199,-20,-23,222,6,4,0,169,170,169,170,1,8718
98.6792202,-2,0,-57,0,0,-1,-1,0,0,35,-93,199,-20,-23,222,6,4,0,169,170,170,169,1,8719
98.68994999,-2,0,-57,-3,0,-2,0,0,0,35,-93,199,-20,-23,222,6,4,0,172,167,169,170,1,8720
98.708882094,-2,0,-57,-3,0,-2,0,0,0,0,16,179,-16,-30,227,6,4,0,172,167,169,170,1,8721
98.719077111,-2,0,-57,-1,0,0,0,0,0,4,70,250,-9,-35,234,6,4,0,172,167,169,170,1,8722
98.730074167,-2,0,-57,2,0,-1,0,0,0,4,70,250,-9,-35,234,6,4,0,171,168,169,170,1,8723
98.741014004,-2,0,-57,2,0,-1,0,0,0,4,70,250,-9,-35,234,6,4,0,168,171,170,169,1,8724
98.759891987,-2,0,-57,0,0,0,0,0,0,102,-17,230,-1,-36,240,6,4,0,170,169,169,170,1,8725
98.771038056,-2,0,-57,3,1,1,0,0,0,-94,4,72,7,-34,244,6,4,0,170,169,169,170,1,8726
98.78194809,-2,0,-57,3,1,1,0,0,0,-94,4,72,7,-34,244,6,4,0,168,171,170,169,1,8727
98.793084145,-2,0,-57,0,0,0,0,0,0,-94,4,72,7,-34,244,6,4,0,170,169,169,170,1,8728
98.811902046,-2,0,-57,0,0,0,0,0,0,-26,17,149,15,-29,243,6,4,0,170,169,169,170,1,8729
98.822957039,-2,0,-57,0,0,-1,0,0,0,15,3,167,19,-22,240,6,4,0,170,169,169,170,1,8730
98.83398509,-2,0,-57,0,0,-1,0,0,0,15,3,167,19,-22,240,6,4,0,170,169,169,170,1,8731
98.844918013,-2,0,-57,1,0,0,0,0,0,15,3,167,19,-22,240,6,4,0,170,169,169,170,1,8732
98.865221024,-2,0,-57,-3,0,-1,0,0,0,-36,37,236,21,-12,236,6,4,0,171,168,169,170,1,8733
98.87403512,-2,0,-57,-2,0,0,0,0,0,-25,103,195,18,-3,231,6,4,0,171,168,169,170,1,8734
98.885200978,-2,0,-57,-2,0,0,0,0,0,-25,103,195,18,-3,231,6,4,0,171,168,170,169,1,8735
98.896095038,-2,0,-57,0,0,-1,0,0,0,-25,103,195,18,-3,231,6,4,0,169,170,170,169,1,8736
98.915202141,-2,0,-57,0,0,-1,0,0,0,92,19,7,12,5,226,6,4,0,169,170,170,169,1,8737
98.926090002,-2,0,-57,3,0,1,0,0,0,13,36,120,4,14,221,6,4,0,169,170,170,169,1,8738
98.937029124,-2,0,-57,-1,0,1,0,0,0,13,36,120,4,14,221,6,4,0,168,171,170,169,1,8739
98.948362112,-2,0,-57,-1,0,1,0,0,0,13,36,120,4,14,221,6,4,0,171,168,170,169,1,8740
98.966972113,-2,0,-57,0,0,0,0,0,0,157,97,17,-3,21,217,6,4,0,170,169,169,170,1,8741
98.977927208,-2,0,-57,-2,-1,-1,0,0,0,35,-55,248,-8,28,216,6,4,0,170,169,169,170,1,8742
98.987968207,-2,0,-57,-2,-1,-1,0,0,0,35,-55,248,-8,28,216,6,4,0,171,168,169,170,1,8743
98.999054194,-2,0,-57,2,0,0,0,0,0,35,-55,248,-8,28,216,6,4,0,168,171,169,170,1,8744
99.018029213,-2,0,-57,2,0,0,0,0,0,6,-32,176,-7,35,220,6,4,0,168,171,169,170,1,8745
99.028947115,-2,0,-57,2,0,0,0,0,0,-62,61,186,0,40,229,6,4,0,168,171,169,170,1,8746
99.039952994,-2,0,-57,-2,0,0,0,0,0,-62,61,186,0,40,229,6,4,0,168,171,170,169,1,8747
99.051340103,-1,0,-57,-2,0,0,0,0,0,-44,-29,189,11,42,240,6,4,0,171,168,169,170,1,8748
99.070024014,-1,0,-57,3,0,0,0,0,0,-44,-29,189,11,42,240,6,4,0,168,171,170,169,1,8749
99.080991984,-1,0,-57,-1,0,0,0,0,0,8,-28,60,24,40,250,6,4,0,168,171,170,169,1,8750
99.095192194,-1,0,-57,-1,0,0,0,0,0,8,-28,60,24,40,250,6,4,0,170,169,169,170,1,8751
99.103096009,-1,0,-57,0,0,0,0,0,0,8,-28,60,24,40,250,6,4,0,170,169,170,169,1,8752
99.120930195,-1,0,-57,0,0,0,0,0,0,100,75,52,35,35,0,6,4,0,170,169,170,169,1,8753
99.131978035,-1,0,-57,0,0,0,0,0,0,-91,-31,184,40,27,1,6,4,0,170,169,170,169,1,8754
99.142969132,-1,0,-57,0,0,0,0,0,0,-91,-31,184,40,27,1,6,4,0,169,170,170,169,1,8755
99.153949023,-1,0,-57,1,0,0,0,0,0,-91,-31,184,40,27,1,6,4,0,168,171,170,169,1,8756
99.172032118,-1,0,-57,1,0,0,0,0,0,20,-28,99,37,18,254,6,4,0,168,171,170,169,1,8757
99.183021069,-1,0,-57,0,0,0,0,0,0,-32,26,181,30,8,248,6,4,0,168,171,170,169,1,8758
99.195766211,-1,0,-57,0,0,0,0,0,0,-32,26,181,30,8,248,6,4,0,169,170,169,170,1,8759
99.205151081,-1,0,-57,0,0,0,0,0,0,-32,26,181,30,8,248,6,4,0,169,170,170,169,1,8760
99.223949194,0,0,-57,1,0,0,0,0,0,-23,3,145,18,1,240,6,4,0,169,170,169,170,1,8761
99.235125065,0,0,-57,-4,0,0,0,0,0,-17,-23,238,6,-3,231,6,4,0,169,170,169,170,1,8762
99.246004105,0,0,-57,-4,0,0,0,0,0,-17,-23,238,6,-3,231,6,4,0,172,167,169,170,1,8763
99.256983996,0,0,-57,1,0,0,0,0,0,-17,-23,238,6,-3,231,6,4,0,169,170,170,169,1,8764
99.27594018,0,0,-57,-2,0,0,0,0,0,3,48,56,-4,-6,220,6,4,0,171,168,169,170,1,8765
99.287055016,0,0,-57,2,0,0,0,0,0,-46,42,33,-13,-6,209,6,4,0,171,168,169,170,1,8766
99.297964096,0,0,-57,2,0,0,0,0,0,-46,42,33,-13,-6,209,6,4,0,168,171,170,169,1,8767
99.308948994,0,0,-57,-2,0,0,0,0,0,-46,42,33,-13,-6,209,6,4,0,171,168,169,170,1,8768
99.327048063,0,0,-57,-2,0,0,0,0,0,7,16,2,-19,-4,199,6,4,0,171,168,169,170,1,8769
99.338366032,0,0,-57,0,0,0,0,0,0,66,20,16,-22,-1,194,6,4,0,171,168,169,170,1,8770
99.348928213,0,0,-57,0,0,0,0,0,0,66,20,16,-22,-1,194,6,4,0,169,170,170,169,1,8771
99.367233992,0,0,-57,1,0,0,0,0,0,66,20,16,-22,-1,194,6,4,0,169,170,170,169,1,8772
99.379257202,0,0,-57,1,0,0,0,0,0,32,23,221,-23,3,196,6,4,0,168,171,170,169,1,8773
99.388957978,0,0,-57,-3,0,-1,0,0,0,62,-100,255,-20,9,205,6,4,0,168,171,170,169,1,8774
99.400073052,0,0,-57,0,0,0,0,0,0,62,-100,255,-20,9,205,6,4,0,172,167,169,170,1,8775
99.411077023,0,0,-57,0,0,0,0,0,0,62,-100,255,-20,9,205,6,4,0,169,170,169,170,1,8776
99.430227995,0,0,-57,1,0,0,0,0,0,17,70,35,-15,14,220,6,4,0,168,171,170,169,1,8777
99.441047192,0,0,-57,3,0,0,0,0,0,-61,3,248,-6,18,237,6,4,0,168,171,170,169,1,8778
99.453176022,0,0,-57,3,0,0,0,0,0,-61,3,248,-6,18,237,6,4,0,168,171,170,169,1,8779
99.463157177,0,0,-57,-2,0,-2,0,0,0,-61,3,248,-6,18,237,6,4,0,171,168,169,170,1,8780
99.483111143,0,0,-57,-2,0,-2,0,0,0,0,-24,46,3,20,253,6,4,0,171,168,169,170,1,8781
99.492999077,0,0,-57,-3,0,-1,0,0,0,-19,92,187,13,18,10,6,4,0,171,168,169,170,1,8782
99.504175186,0,0,-57,2,0,1,0,0,0,-19,92,187,13,18,10,6,4,0,172,167,169,170,1,8783
99.515026093,0,0,-57,2,0,1,0,0,0,-19,92,187,13,18,10,6,4,0,168,171,170,169,1,8784
99.533962012,0,0,-57,-3,0,-2,0,0,0,13,20,243,21,15,18,6,4,0,172,167,169,170,1,8785
99.547365189,0,0,-57,1,0,0,0,0,0,0,14,237,25,11,20,6,4,0,172,167,169,170,1,8786
99.555958986,0,0,-57,1,0,0,0,0,0,0,14,237,25,11,20,6,4,0,169,170,170,169,1,8787
99.567032099,0,0,-57,0,0,0,0,0,0,0,14,237,25,11,20,6,4,0,170,169,169,170,1,8788
99.584993124,0,0,-57,0,0,0,0,0,0,3,42,77,23,8,18,6,4,0,170,169,169,170,1,8789
99.595899105,0,0,-57,0,0,-1,0,0,0,68,-18,141,18,7,13,6,4,0,170,169,169,170,1,8790
99.607053995,0,0,-57,0,0,-1,0,0,0,68,-18,141,18,7,13,6,4,0,170,169,169,170,1,8791
99.618093014,0,0,-57,-1,0,0,0,0,0,68,-18,141,18,7,13,6,4,0,170,169,169,170,1,8792
99.635929108,0,0,-57,-1,0,0,0,0,0,-45,34,12,10,9,5,6,4,0,170,169,169,170,1,8793
99.647082091,0,0,-57,0,0,-1,0,0,0,12,49,253,3,14,253,6,4,0,170,169,169,170,1,8794
99.657951117,0,0,-57,-1,0,0,0,0,0,12,49,253,3,14,253,6,4,0,170,169,169,170,1,8795
99.66908598,0,0,-57,-1,0,0,0,0,0,12,49,253,3,14,253,6,4,0,171,168,169,170,1,8796
99.68810606,0,0,-57,0,0,0,0,0,0,-5,26,153,-1,18,246,6,4,0,170,169,170,169,1,8797
99.699006081,0,0,-57,1,0,0,0,0,0,49,-17,255,-4,23,241,6,4,0,170,169,170,169,1,8798
99.709989071,0,0,-57,1,0,0,0,0,0,49,-17,255,-4,23,241,6,4,0,168,171,170,169,1,8799
99.720972061,0,0,-57,0,0,0,0,0,0,49,-17,255,-4,23,241,6,4,0,170,169,169,170,1,8800
99.738989115,0,0,-57,0,0,0,0,0,0,-21,44,31,-3,26,236,6,4,0,170,169,169,170,1,8801
99.750077009,0,0,-57,-3,0,0,0,0,0,-26,41,221,-1,28,233,6,4,0,170,169,169,170,1,8802
99.761031151,0,0,-57,-3,0,0,0,0,0,-26,41,221,-1,28,233,6,4,0,172,167,169,170,1,8803
99.771939039,0,0,-57,1,0,0,0,0,0,-26,41,221,-1,28,233,6,4,0,169,170,170,169,1,8804
99.790971995,0,0,-57,1,0,0,0,0,0,24,-85,236,1,28,231,6,4,0,169,170,170,169,1,8805
99.80191207,0,0,-57,1,0,0,0,0,0,4,-53,1,5,27,230,6,4,0,169,170,170,169,1,8806
99.812939167,0,0,-57,-2,0,0,0,0,0,4,-53,1,5,27,230,6,4,0,168,171,170,169,1,8807
99.823975086,0,0,-57,-2,0,0,0,0,0,4,-53,1,5,27,230,6,4,0,171,168,169,170,1,8808
99.842020989,0,0,-57,2,0,0,0,0,0,-64,40,143,7,24,231,6,4,0,168,171,170,169,1,8809
99.852955103,0,0,-57,2,0,0,0,0,0,112,-42,201,8,19,232,6,4,0,168,171,170,169,1,8810
99.863985062,0,0,-57,2,0,0,0,0,0,112,-42,201,8,19,232,6,4,0,168,171,170,169,1,8811
99.875081063,0,0,-57,0,0,0,0,0,0,112,-42,201,8,19,232,6,4,0,168,171,170,169,1,8812
99.893952131,0,0,-57,0,0,0,0,0,0,-28,-27,237,7,12,234,6,4,0,169,170,170,169,1,8813
99.904975176,0,0,-57,0,0,-1,0,0,0,83,67,17,5,3,234,6,4,0,169,170,170,169,1,8814
99.91596508,0,0,-57,1,0,0,0,0,0,83,67,17,5,3,234,6,4,0,169,170,169,170,1,8815
99.927026987,0,0,-57,1,0,0,0,0,0,83,67,17,5,3,234,6,4,0,168,171,169,170,1,8816
99.946016073,0,0,-57,1,0,0,0,0,0,37,-111,190,3,-5,232,6,4,0,169,170,170,169,1,8817
99.956943989,0,0,-57,1,1,0,0,0,0,50,-95,11,3,-12,228,6,4,0,169,170,170,169,1,8818
99.96855712,0,0,-57,1,1,0,0,0,0,50,-95,11,3,-12,228,6,4,0,169,170,170,169,1,8819
99.979562998,0,0,-57,-3,0,0,1,0,0,50,-95,11,3,-12,228,6,4,0,172,167,170,169,1,8820
99.996927977,0,0,-57,-3,0,0,1,0,0,-80,-9,215,6,-18,225,6,4,0,172,167,170,169,1,8821
100.00805521,0,0,-57,-2,0,0,1,0,0,-79,-24,130,11,-23,221,6,4,0,172,167,170,169,1,8822
100.01919508,0,0,-57,-2,0,0,1,0,0,-79,-24,130,11,-23,221,6,4,0,171,168,169,170,1,8823
100.029988051,0,0,-57,2,0,0,1,0,0,-79,-24,130,11,-23,221,6,4,0,168,171,170,169,1,8824
100.049120188,0,0,-57,0,0,0,1,0,0,-51,-52,204,17,-27,220,6,4,0,170,169,169,170,1,8825
100.060022116,0,0,-57,1,0,0,0,0,0,-106,82,248,21,-31,219,6,4,0,170,169,169,170,1,8826
100.071101189,0,0,-57,1,0,0,0,0,0,-106,82,248,21,-31,219,6,4,0,168,171,170,169,1,8827
100.082312107,0,0,-57,0,0,0,0,0,0,-106,82,248,21,-31,219,6,4,0,170,169,170,169,1,8828
100.099900007,0,0,-57,0,0,0,0,0,0,-20,30,177,20,-34,218,6,4,0,170,169,170,169,1,8829
100.111060143,0,0,-57,0,0,0,0,0,0,28,-62,5,12,-36,216,6,4,0,170,169,170,169,1,8830
100.122055054,0,0,-57,0,0,0,0,0,0,28,-62,5,12,-36,216,6,4,0,170,169,169,170,1,8831
100.133097172,0,0,-57,-2,-1,-2,0,0,0,28,-62,5,12,-36,216,6,4,0,170,169,169,170,1,8832
100.151844025,0,0,-57,-2,-1,-2,0,0,0,-98,-1,253,0,-34,214,6,4,0,171,168,169,170,1,8833
100.161987066,0,0,-57,-1,0,-1,0,0,0,-71,23,150,-17,-30,211,6,4,0,171,168,169,170,1,8834
100.172953129,0,0,-57,0,0,1,0,0,0,-71,23,150,-17,-30,211,6,4,0,170,169,169,170,1,8835
100.184019089,0,0,-57,0,0,1,0,0,0,-71,23,150,-17,-30,211,6,4,0,169,170,170,169,1,8836
100.202998162,0,0,-57,2,1,0,0,0,0,-1,-36,247,-34,-22,210,6,4,0,168,171,171,168,1,8837
100.215172053,0,0,-57,2,1,1,0,0,0,-58,84,243,-49,-14,209,6,4,0,168,171,171,168,1,8838
100.225244999,0,0,-57,2,1,1,0,0,0,-58,84,243,-49,-14,209,6,4,0,168,171,170,169,1,8839
100.235946179,0,0,-57,0,0,-3,0,0,0,-58,84,243,-49,-14,209,6,4,0,170,169,169,170,1,8840
100.257170201,0,0,-57,0,0,-3,0,0,0,-12,-41,124,-58,-5,211,6,4,0,170,169,169,170,1,8841
100.26604414,0,0,-57,-2,-1,-1,0,0,0,55,-71,19,-62,0,214,6,4,0,170,169,169,170,1,8842
100.276964188,0,0,-57,-2,-1,-1,0,0,0,55,-71,19,-62,0,214,6,4,0,171,168,169,170,1,8843
100.288134098,0,0,-57,0,0,1,0,0,0,55,-71,19,-62,0,214,6,4,0,169,170,170,169,1,8844
100.30599308,0,0,-57,0,0,1,0,0,0,-63,-10,234,-61,5,219,6,4,0,169,170,170,169,1,8845
100.316960097,0,0,-57,0,0,0,0,0,0,-55,-133,27,-55,7,227,6,4,0,169,170,170,169,1,8846
100.328126192,0,0,-57,0,0,0,0,0,0,-55,-133,27,-55,7,227,6,4,0,169,170,170,169,1,8847
100.339003086,0,0,-57,0,0,0,0,0,0,30,14,145,-45,6,239,6,4,0,170,169,169,170,1,8848
100.357952118,0,0,-57,3,0,2,0,0,0,30,14,145,-45,6,239,6,4,0,168,171,170,169,1,8849
100.36898017,0,0,-57,1,0,2,0,0,0,-83,82,13,-35,0,251,6,4,0,168,171,170,169,1,8850
100.380259991,0,0,-57,1,0,2,0,0,0,-83,82,13,-35,0,251,6,4,0,169,170,170,169,1,8851
100.390953064,0,0,-57,0,0,0,0,0,0,-83,82,13,-35,0,251,6,4,0,169,170,170,169,1,8852
100.408966065,0,0,-57,0,0,0,0,0,0,-25,-110,85,-24,-8,6,6,4,0,169,170,170,169,1,8853
100.419937134,0,0,-57,0,0,-1,0,0,0,1,15,23,-17,-18,13,6,4,0,169,170,170,169,1,8854
100.431081057,0,0,-57,0,0,-1,0,0,0,1,15,23,-17,-18,13,6,4,0,170,169,169,170,1,8855
100.441934109,0,0,-57,1,0,0,0,0,0,1,15,23,-17,-18,13,6,4,0,169,170,169,170,1,8856
100.460047007,0,-1,-57,1,0,0,0,0,0,-14,19,218,-13,-27,16,6,4,0,169,170,169,170,1,8857
100.47540021,0,-1,-57,0,0,1,0,0,0,-64,-157,209,-13,-33,15,6,4,0,169,170,169,170,1,8858
100.481899977,0,-1,-57,0,0,-1,0,0,0,-64,-157,209,-13,-33,15,6,4,0,169,170,170,169,1,8859
100.492974997,0,-1,-57,0,0,-1,0,0,0,-64,-157,209,-13,-33,15,6,4,0,170,169,170,169,1,8860
100.511946202,0,-1,-57,1,0,1,0,0,0,-37,-19,187,-16,-35,12,6,4,0,169,170,170,169,1,8861
100.522981167,0,-1,-57,-1,0,-1,0,0,0,-79,66,206,-20,-34,8,6,4,0,169,170,170,169,1,8862
100.534043074,0,-1,-57,-1,0,-1,0,0,0,-79,66,206,-20,-34,8,6,4,0,170,169,169,170,1,8863
100.546720028,0,-1,-57,1,0,0,0,0,0,-79,66,206,-20,-34,8,6,4,0,169,170,170,169,1,8864
100.562971115,0,-1,-57,1,0,0,0,0,0,-67,-82,24,-25,-32,2,6,4,0,169,170,170,169,1,8865
100.574016094,-1,-1,-57,0,0,0,0,0,0,-38,-4,62,-30,-29,251,6,4,0,169,170,170,169,1,8866
100.584961176,0,-1,-57,-2,0,-1,0,0,0,-38,-4,62,-30,-29,251,6,4,0,169,170,170,169,1,8867
100.596049071,-1,-1,-57,-2,0,-1,0,0,0,-12,-16,219,-35,-27,243,6,4,0,171,168,169,170,1,8868
100.615952015,-1,-1,-57,0,0,0,0,0,0,-12,-16,219,-35,-27,243,6,4,0,169,170,170,169,1,8869
100.627058029,-1,-1,-57,0,0,0,0,0,0,-41,-116,228,-41,-26,236,6,4,0,169,170,170,169,1,8870
100.6380651,-1,-1,-57,0,0,0,0,0,0,-41,-116,228,-41,-26,236,6,4,0,169,170,169,170,1,8871
100.648972988,-1,-1,-57,1,0,0,0,0,0,-41,-116,228,-41,-26,236,6,4,0,169,170,169,170,1,8872
100.666992188,-1,-1,-57,1,0,0,0,0,0,23,44,217,-45,-25,232,6,4,0,169,170,169,170,1,8873
100.677978039,-1,-1,-57,-2,0,-2,0,0,0,-11,69,134,-49,-25,231,6,4,0,169,170,169,170,1,8874
100.688990116,-1,-1,-57,-2,0,-2,0,0,0,-11,69,134,-49,-25,231,6,4,0,171,168,170,169,1,8875
100.699920178,-1,-1,-57,0,0,0,0,0,0,-11,69,134,-49,-25,231,6,4,0,169,170,170,169,1,8876
100.719152212,-1,-1,-57,0,0,0,0,0,0,-113,-62,203,-49,-25,232,6,4,0,169,170,170,169,1,8877
100.72902298,-1,-2,-57,2,0,0,0,0,0,-59,-48,104,-47,-25,234,6,4,0,169,170,170,169,1,8878
100.740051985,-1,-2,-57,-1,0,-2,0,0,0,-59,-48,104,-47,-25,234,6,4,0,168,171,170,169,1,8879
100.751059056,-1,-2,-57,-1,0,-2,0,0,0,-59,-48,104,-47,-25,234,6,4,0,170,169,169,170,1,8880
100.770003081,-1,-2,-57,0,0,1,0,0,0,18,53,11,-42,-24,235,6,4,0,169,170,169,170,1,8881
100.781051159,-1,-2,-57,0,0,1,0,0,0,27,77,242,-36,-22,233,6,4,0,169,170,169,170,1,8882
100.791963101,-1,-2,-57,0,0,1,0,0,0,27,77,242,-36,-22,233,6,4,0,170,169,169,170,1,8883
100.803009033,-1,-2,-57,0,0,0,0,0,0,27,77,242,-36,-22,233,6,4,0,170,169,169,170,1,8884
100.821904183,-1,-2,-57,-1,0,-2,0,0,0,41,-21,1,-32,-18,232,6,4,0,170,169,170,169,1,8885
100.832982064,-1,-2,-57,-1,0,-1,0,0,0,87,52,177,-28,-12,231,6,4,0,170,169,170,169,1,8886
100.843965054,-1,-2,-57,-1,0,-1,0,0,0,87,52,177,-28,-12,231,6,4,0,170,169,169,170,1,8887
100.85504818,-1,-2,-57,0,0,0,0,0,0,87,52,177,-28,-12,231,6,4,0,169,170,169,170,1,8888
100.873077154,-1,-2,-57,0,0,0,0,0,0,130,50,216,-24,-6,233,6,4,0,169,170,169,170,1,8889
100.884732008,-1,-2,-57,0,0,0,0,0,0,20,-57,108,-18,2,237,6,4,0,169,170,169,170,1,8890
100.894009114,-1,-2,-57,0,0,0,0,0,0,20,-57,108,-18,2,237,6,4,0,170,169,169,170,1,8891
100.904994011,-1,-2,-57,-1,0,-2,0,0,0,20,-57,108,-18,2,237,6,4,0,170,169,169,170,1,8892
100.923160076,-1,-2,-57,-1,0,-2,0,0,0,23,54,16,-8,10,241,6,4,0,170,169,169,170,1,8893
100.934027195,-1,-2,-57,0,0,-1,0,0,0,74,56,200,6,18,245,6,4,0,170,169,169,170,1,8894
100.945022106,-1,-2,-57,0,0,0,0,0,0,74,56,200,6,18,245,6,4,0,170,169,170,169,1,8895
100.955991984,-1,-2,-57,0,0,0,0,0,0,74,56,200,6,18,245,6,4,0,169,170,169,170,1,8896
100.974987984,-1,-2,-57,0,0,-1,0,0,0,5,-4,207,23,24,249,6,4,0,170,169,169,170,1,8897
100.985918045,-1,-2,-57,0,0,1,0,0,0,96,106,186,40,28,252,6,4,0,170,169,169,170,1,8898
100.996972084,-1,-2,-57,0,0,1,0,0,0,96,106,186,40,28,252,6,4,0,169,170,170,169,1,8899
101.010016203,-1,-2,-57,-1,0,0,0,0,0,96,106,186,40,28,252,6,4,0,170,169,170,169,1,8900
101.027166128,-1,-2,-57,-1,0,0,0,0,0,105,18,200,54,30,254,6,4,0,170,169,170,169,1,8901
101.037156105,-1,-2,-57,0,0,0,0,0,0,17,-10,45,64,30,254,6,4,0,170,169,170,169,1,8902
101.049005985,-1,-2,-57,0,0,0,0,0,0,17,-10,45,64,30,254,6,4,0,170,169,169,170,1,8903
101.059017182,-1,-2,-57,0,0,-2,0,0,0,17,-10,45,64,30,254,6,4,0,170,169,170,169,1,8904
101.077894211,-1,-2,-57,0,0,-2,0,0,0,45,-27,53,69,31,250,6,4,0,170,169,170,169,1,8905
101.089027167,-1,-1,-57,0,0,-1,0,0,0,19,-15,195,70,31,244,6,4,0,170,169,170,169,1,8906
101.099989176,-1,-1,-57,0,0,-1,0,0,0,19,-15,195,70,31,244,6,4,0,170,169,170,169,1,8907
101.115281105,-1,-1,-57,0,0,-1,0,0,0,19,-15,195,70,31,244,6,4,0,169,170,170,169,1,8908
101.129933119,0,-1,-57,0,0,2,0,0,0,11,34,173,68,30,238,6,4,0,169,170,170,169,1,8909
101.143370152,0,-1,-57,0,-1,2,0,0,0,92,-13,221,63,28,233,6,4,0,169,170,170,169,1,8910
101.15191412,0,-1,-57,0,-1,2,0,0,0,92,-13,221,63,28,233,6,4,0,169,170,169,170,1,8911
101.16320014,0,-1,-57,0,-1,0,0,0,0,92,-13,221,63,28,233,6,4,0,169,170,169,170,1,8912
101.181055069,0,0,-57,0,-1,0,0,0,0,28,20,164,57,24,230,6,4,0,170,169,169,170,1,8913
101.192032099,0,0,-57,-1,0,-2,0,0,0,87,21,20,51,18,228,6,4,0,170,169,169,170,1,8914
101.203044176,0,0,-57,0,0,1,0,0,0,87,21,20,51,18,228,6,4,0,170,169,169,170,1,8915
101.213986159,0,0,-57,0,0,1,0,0,0,87,21,20,51,18,228,6,4,0,169,170,170,169,1,8916
101.232984066,0,0,-57,0,0,0,0,0,0,26,-7,26,45,12,227,6,4,0,170,169,170,169,1,8917
101.244122029,0,0,-57,0,0,0,0,0,0,-4,18,105,41,6,225,6,4,0,170,169,170,169,1,8918
101.255053044,0,0,-57,0,0,0,0,0,0,-4,18,105,41,6,225,6,4,0,169,170,170,169,1,8919
101.270513058,0,0,-57,0,0,-2,0,0,0,-4,18,105,41,6,225,6,4,0,169,170,170,169,1,8920
101.283957005,0,0,-57,0,0,-2,0,0,0,29,6,114,39,2,224,6,4,0,169,170,169,170,1,8921
101.295143128,0,0,-57,0,0,-1,0,0,0,-23,70,187,38,0,225,6,4,0,169,170,169,170,1,8922
101.307137013,0,0,-57,0,0,0,0,0,0,-23,70,187,38,0,225,6,4,0,169,170,169,170,1,8923
101.316969156,0,0,-57,0,0,0,0,0,0,-23,70,187,38,0,225,6,4,0,169,170,170,169,1,8924
101.336066008,0,0,-57,0,0,-2,0,0,0,-29,53,242,39,0,228,6,4,0,170,169,170,169,1,8925
101.347101212,0,0,-57,0,0,0,0,0,0,73,-64,214,38,3,232,6,4,0,170,169,170,169,1,8926
101.358159065,0,0,-57,0,0,0,0,0,0,73,-64,214,38,3,232,6,4,0,170,169,169,170,1,8927
101.369033098,0,0,-57,0,0,0,0,0,0,73,-64,214,38,3,232,6,4,0,170,169,169,170,1,8928
101.387020111,0,0,-57,0,0,0,0,0,0,45,-4,46,35,7,236,6,4,0,170,169,169,170,1,8929
101.398458004,0,1,-57,0,0,0,0,0,-1,5,-72,129,30,13,238,6,4,0,170,169,169,170,1,8930
101.409087181,0,1,-57,0,0,0,0,0,-1,5,-72,129,30,13,238,6,4,0,169,170,170,169,1,8931
101.419970036,0,1,-57,0,0,-1,0,0,-1,5,-72,129,30,13,238,6,4,0,169,170,170,169,1,8932
101.438184977,0,1,-57,0,0,-1,0,0,-1,67,-108,165,24,17,238,6,4,0,169,170,170,169,1,8933
101.449014187,0,1,-57,0,0,0,0,0,-1,5,2,213,18,18,238,6,4,0,169,170,170,169,1,8934
101.460165978,0,1,-57,0,0,1,0,0,-1,5,2,213,18,18,238,6,4,0,170,169,169,170,1,8935
101.471023083,0,1,-57,0,0,1,0,0,-1,5,2,213,18,18,238,6,4,0,169,170,170,169,1,8936
101.490126133,0,1,-57,-1,0,0,0,0,0,-112,-31,225,15,14,240,6,4,0,170,169,169,170,1,8937
101.501043081,0,1,-57,0,0,1,0,0,0,-135,21,219,14,5,244,6,4,0,170,169,169,170,1,8938
101.519062996,0,1,-57,0,0,1,0,0,0,-135,21,219,14,5,244,6,4,0,170,169,169,170,1,8939
101.52345419,0,1,-57,0,0,0,0,0,0,-135,21,219,14,5,244,6,4,0,169,170,169,170,1,8940
101.542070151,0,1,-57,0,0,0,0,0,0,-50,58,251,13,-7,247,6,4,0,169,170,169,170,1,8941
101.553057194,0,1,-57,0,0,-1,0,0,0,-13,26,34,11,-21,249,6,4,0,169,170,169,170,1,8942
101.564031124,0,1,-57,0,0,-1,0,0,0,-13,26,34,11,-21,249,6,4,0,170,169,170,169,1,8943
101.574979067,0,1,-57,0,0,0,0,0,0,-13,26,34,11,-21,249,6,4,0,169,170,170,169,1,8944
101.592970133,0,1,-57,0,0,0,0,0,0,-11,99,20,5,-31,250,6,4,0,169,170,170,169,1,8945
101.604012013,0,1,-57,0,0,-1,0,0,0,-11,39,225,-6,-35,248,6,4,0,169,170,170,169,1,8946
101.615043164,0,1,-57,1,0,0,0,0,0,-11,39,225,-6,-35,248,6,4,0,169,170,169,170,1,8947
101.626281977,0,1,-57,1,0,0,0,0,0,-11,39,225,-6,-35,248,6,4,0,168,171,170,169,1,8948
101.645143986,0,1,-57,0,0,2,0,0,0,35,-69,164,-20,-31,246,6,4,0,170,169,170,169,1,8949
101.656020165,0,1,-57,0,0,2,0,0,0,-67,-197,238,-34,-18,244,6,4,0,170,169,170,169,1,8950
101.675177098,0,1,-57,0,0,2,0,0,0,-67,-197,238,-34,-18,244,6,4,0,170,169,170,169,1,8951
101.67853117,0,1,-57,0,-1,-1,0,0,0,-67,-197,238,-34,-18,244,6,4,0,170,169,170,169,1,8952
101.69917202,0,1,-57,0,-1,-1,0,0,0,71,-38,194,-44,-2,243,6,4,0,170,169,169,170,1,8953
101.706988096,0,1,-57,2,0,-1,0,0,0,11,20,18,-48,12,242,6,4,0,170,169,169,170,1,8954
101.717959166,0,1,-57,0,0,1,0,0,0,11,20,18,-48,12,242,6,4,0,168,171,170,169,1,8955
101.728919983,0,1,-57,0,0,1,0,0,0,11,20,18,-48,12,242,6,4,0,170,169,170,169,1,8956
101.748172999,0,1,-57,-2,0,-2,0,0,0,-28,-139,15,-45,19,239,6,4,0,171,168,170,169,1,8957
101.758988142,0,0,-57,0,0,0,0,0,0,67,3,50,-36,17,236,6,4,0,171,168,170,169,1,8958
101.770105124,0,0,-57,0,0,0,0,0,0,67,3,50,-36,17,236,6,4,0,170,169,170,169,1,8959
101.780936003,0,0,-57,1,0,-1,0,0,0,67,3,50,-36,17,236,6,4,0,169,170,169,170,1,8960
101.799416065,0,0,-57,1,0,-1,0,0,0,55,77,239,-23,5,233,6,4,0,169,170,169,170,1,8961
101.810001135,0,0,-57,1,0,0,0,0,0,39,-51,168,-8,-13,231,6,4,0,169,170,169,170,1,8962
101.821007014,0,0,-57,0,0,2,0,0,0,39,-51,168,-8,-13,231,6,4,0,169,170,170,169,1,8963
101.831984043,0,0,-57,0,0,2,0,0,0,39,-51,168,-8,-13,231,6,4,0,169,170,170,169,1,8964
101.850998163,0,0,-57,1,0,0,0,0,0,-22,21,39,6,-32,233,6,4,0,169,170,170,169,1,8965
101.862035036,0,0,-57,-2,0,0,0,0,0,-34,98,238,19,-47,237,6,4,0,169,170,170,169,1,8966
101.872981072,0,0,-57,-2,0,0,0,0,0,-34,98,238,19,-47,237,6,4,0,171,168,169,170,1,8967
101.884069205,0,0,-57,0,0,1,0,0,0,-34,98,238,19,-47,237,6,4,0,170,169,170,169,1,8968
101.895517111,0,0,-57,0,0,1,0,0,0,2,-7,11,28,-53,242,1,4,0,170,169,170,169,1,8969
101.906027079,0,0,-57,1,0,-1,0,0,0,2,-7,11,28,-53,242,1,4,0,170,169,170,169,1,8970
101.916931153,0,0,-57,1,0,-1,0,0,0,-45,-37,75,34,-50,246,1,4,0,169,170,169,170,1,8971
101.92898798,0,0,-57,0,-1,-1,0,0,0,-45,-37,75,34,-50,246,1,4,0,170,169,168,171,1,8972
101.946081162,0,0,-57,0,-1,-1,0,0,0,34,48,33,33,-38,251,1,4,0,170,169,168,171,1,8973
101.957152128,0,0,-57,-1,0,-1,0,0,0,14,61,212,28,-20,254,1,4,0,170,169,168,171,1,8974
101.968024016,0,0,-57,-1,0,-1,0,0,0,14,61,212,28,-20,254,1,4,0,170,169,169,170,1,8975
101.97895217,0,0,-57,1,1,2,0,0,0,14,61,212,28,-20,254,1,4,0,170,169,169,170,1,8976
101.997932196,-1,0,-57,1,1,2,0,0,0,12,-29,248,19,0,2,1,4,0,168,171,170,169,1,8977
