TiempoEjecucion,AnguloPitch,AnguloRoll,AnguloYaw,G_Pitch,G_Roll,G_Yaw,G_Pitch_filtrada,G_Roll_filtrada,G_Yaw_filtrada,Ax,Ay,Az,Ax_filtrada,Ay_filtrada,Az_filtrada,posZ,posZ_filtrada,velZ,motorDelantero,motorTrasero,motorDerecho,motorIzquierdo,EstadoEncendido,MensajesRecibidos
6.873167991,0,-1,0,0,0,0,0,0,0,-7,2,234,-8,2,234,0,0,0,0,0,0,0,0,625
6.888313055,0,-1,0,0,0,0,0,0,0,-7,2,233,-8,2,234,0,0,0,0,0,0,0,0,626
6.894925117,0,-1,0,0,0,0,0,0,0,-7,2,233,-8,2,234,0,0,0,0,0,0,0,0,627
6.905981064,0,-1,0,0,0,0,0,0,0,-8,2,234,-8,2,234,0,0,0,0,0,0,0,0,628
6.917040109,0,-1,0,0,0,0,0,0,0,-8,2,234,-8,2,234,0,0,0,0,0,0,0,0,629
6.928056001,0,-1,0,0,0,0,0,0,0,-8,2,234,-8,2,234,0,0,0,0,0,0,0,0,630
6.939370155,0,-1,0,0,0,0,0,0,0,-8,3,234,-8,2,234,0,0,0,0,0,0,0,0,631
6.949874162,0,-1,0,0,0,0,0,0,0,-8,3,234,-8,2,234,0,0,0,0,0,0,0,0,632
6.960909128,0,-1,0,0,0,0,0,0,0,-8,3,234,-8,2,234,0,0,0,0,0,0,0,0,633
6.972127199,0,-1,0,0,0,0,0,0,0,-8,2,234,-7,2,234,0,0,0,0,0,0,0,0,634
6.98299098,0,-1,0,0,0,0,0,0,0,-8,2,234,-7,2,234,0,0,0,0,0,0,0,0,635
6.99408102,0,-1,0,0,0,0,0,0,0,-8,1,233,-7,2,234,0,0,0,0,0,0,0,0,636
7.004980087,0,-1,0,0,0,0,0,0,0,-8,1,233,-7,2,234,0,0,0,0,0,0,0,0,637
7.016008138,0,-1,0,0,0,0,0,0,0,-8,2,234,-7,2,234,0,0,0,0,0,0,0,0,638
7.027043104,0,-1,0,0,0,0,0,0,0,-8,2,234,-7,2,234,0,0,0,0,0,0,0,0,639
7.037883997,0,-1,0,0,0,0,0,0,0,-8,2,234,-7,2,234,0,0,0,0,0,0,0,0,640
7.048928976,0,-1,0,0,0,0,0,0,0,-8,2,234,-7,2,234,0,0,0,0,0,0,0,0,641
7.060065984,0,-1,0,0,0,0,0,0,0,-8,2,234,-7,2,234,0,0,0,0,0,0,0,0,642
7.071008205,0,-1,0,0,0,0,0,0,0,-8,2,234,-7,2,234,0,0,0,0,0,0,0,0,643
7.082210064,0,-1,0,0,0,0,0,0,0,-8,2,234,-7,2,234,0,0,0,0,0,0,0,0,644
7.09288001,0,-1,0,0,0,0,0,0,0,-8,2,234,-7,2,234,0,0,0,0,0,0,0,0,645
7.10428214,0,-1,0,0,0,0,0,0,0,-8,1,235,-8,2,234,0,0,0,0,0,0,0,0,646
7.115065098,0,-1,0,0,0,0,0,0,0,-8,1,235,-8,2,234,0,0,0,0,0,0,0,0,647
7.128115177,0,-1,0,0,0,0,0,0,0,-8,2,234,-8,2,234,0,0,0,0,0,0,0,0,648
7.137242079,0,-1,0,0,0,0,0,0,0,-8,2,234,-8,2,234,0,0,0,0,0,0,0,0,649
7.147924185,0,-1,0,0,0,0,0,0,0,-9,2,234,-8,2,234,0,0,0,0,0,0,0,0,650
7.160224199,0,-1,0,0,0,0,0,0,0,-9,2,234,-8,2,234,0,0,0,0,0,0,0,0,651
7.16989398,0,-1,0,0,0,0,0,0,0,-9,2,235,-8,2,234,0,0,0,0,0,0,0,0,652
7.180864095,0,-1,0,0,0,0,0,0,0,-9,2,235,-8,2,234,0,0,0,0,0,0,0,0,653
7.192020178,0,-1,0,0,0,0,0,0,0,-9,2,235,-8,2,234,0,0,0,0,0,0,0,0,654
7.203082084,0,-1,0,0,0,0,0,0,0,-9,3,234,-8,2,234,0,0,0,0,0,0,0,0,655
7.213934183,0,-1,0,0,0,0,0,0,0,-9,3,234,-8,2,234,0,0,0,0,0,0,0,0,656
7.225993156,0,-1,0,0,0,0,0,0,0,-9,3,234,-8,2,234,0,0,0,0,0,0,0,0,657
7.235859155,0,-1,0,0,0,0,0,0,0,-8,2,235,-8,2,234,0,0,0,0,0,0,0,0,658
7.246973037,0,-1,0,0,0,0,0,0,0,-8,2,235,-8,2,234,0,0,0,0,0,0,0,0,659
7.260307073,0,-1,0,0,0,0,0,0,0,-8,2,233,-8,2,234,0,0,0,0,0,0,0,0,660
7.268917083,0,-1,0,0,0,0,0,0,0,-8,2,233,-8,2,234,0,0,0,0,0,0,0,0,661
7.279881,0,-1,0,0,0,0,0,0,0,-8,2,233,-8,2,234,0,0,0,0,0,0,0,0,662
7.291000128,0,-1,0,0,0,0,0,0,0,-8,3,234,-8,2,234,0,0,0,0,0,0,0,0,663
7.301954984,0,-1,0,0,0,0,0,0,0,-8,3,234,-8,2,234,0,0,0,0,0,0,0,0,664
7.3129282,0,-1,0,0,0,0,0,0,0,-8,3,234,-8,2,234,0,0,0,0,0,0,0,0,665
7.323952198,0,-1,0,0,0,0,0,0,0,-7,3,236,-8,2,234,0,0,0,0,0,0,0,0,666
7.335050106,0,-1,0,0,0,0,0,0,0,-7,3,236,-8,2,234,0,0,0,0,0,0,0,0,667
7.345831156,0,-1,0,0,0,0,0,0,0,-8,2,235,-8,2,234,0,0,0,0,0,0,0,0,668
7.356892109,0,-1,0,0,0,0,0,0,0,-8,2,235,-8,2,234,0,0,0,0,0,0,0,0,669
7.367879152,0,-1,0,0,0,0,0,0,0,-8,3,235,-8,2,234,0,0,0,0,0,0,0,0,670
7.379096031,0,-1,0,0,0,0,0,0,0,-8,3,235,-8,2,234,0,0,0,0,0,0,0,0,671
7.389067173,0,-1,0,0,0,0,0,0,0,-8,3,234,-8,2,235,0,0,0,0,0,0,0,0,672
7.400123119,0,-1,0,0,0,0,0,0,0,-8,3,234,-8,2,235,0,0,0,0,0,0,0,0,673
7.410995006,0,-1,0,0,0,0,0,0,0,-8,3,234,-8,2,235,0,0,0,0,0,0,0,0,674
7.421936989,0,-1,0,0,0,0,0,0,0,-9,2,235,-8,2,235,0,0,0,0,0,0,0,0,675
7.433418989,0,-1,0,0,0,0,0,0,0,-9,2,235,-8,2,235,0,0,0,0,0,0,0,0,676
7.444221973,0,-1,0,0,0,0,0,0,0,-9,2,235,-8,2,235,0,0,0,0,0,0,0,0,677
7.454840183,0,-1,0,0,0,0,0,0,0,-9,2,234,-8,2,235,0,0,0,0,0,0,0,0,678
7.46600604,0,-1,0,0,0,0,0,0,0,-9,2,234,-8,2,235,0,0,0,0,0,0,0,0,679
7.477053165,0,-1,0,0,0,0,0,0,0,-8,1,234,-8,3,235,0,0,0,0,0,0,0,0,680
7.488001108,0,-1,0,0,0,0,0,0,0,-8,1,234,-8,3,235,0,0,0,0,0,0,0,0,681
7.504935026,0,-1,0,0,0,0,0,0,0,-8,1,234,-8,3,235,0,0,0,0,0,0,0,0,682
7.509922027,0,-1,0,0,0,0,0,0,0,-8,1,234,-8,3,235,0,0,0,0,0,0,0,0,683
7.520973205,0,-1,0,0,0,0,0,0,0,-8,2,234,-8,3,235,0,0,0,0,0,0,0,0,684
7.532083988,0,-1,0,0,0,0,0,0,0,-8,2,234,-8,3,235,0,0,0,0,0,0,0,0,685
7.543022156,0,-1,0,0,0,0,0,0,0,-8,2,234,-8,3,235,0,0,0,0,0,0,0,0,686
7.554009199,0,-1,0,0,0,0,0,0,0,-8,2,234,-8,3,235,0,0,0,0,0,0,0,0,687
7.565021038,0,-1,0,0,0,0,0,0,0,-8,2,234,-8,3,235,0,0,0,0,0,0,0,0,688
7.576029062,0,-1,0,0,0,0,0,0,0,-8,2,234,-8,3,235,0,0,0,0,0,0,0,0,689
7.587027073,0,-1,0,0,0,0,0,0,0,-7,1,235,-8,2,235,0,0,0,0,0,0,0,0,690
7.598127126,0,-1,0,0,0,0,0,0,0,-7,1,235,-8,2,235,0,0,0,0,0,0,0,0,691
7.608931064,0,-1,0,0,0,0,0,0,0,-8,1,236,-8,2,234,0,0,0,0,0,0,0,0,692
7.621949196,0,-1,0,0,0,0,0,0,0,-8,1,236,-8,2,234,0,0,0,0,0,0,0,0,693
7.630997181,0,-1,0,0,0,0,0,0,0,-8,2,236,-8,2,234,0,0,0,0,0,0,0,0,694
7.642301082,0,-1,0,0,0,0,0,0,0,-8,2,236,-8,2,234,0,0,0,0,0,0,0,0,695
7.656155109,0,-1,0,0,0,0,0,0,0,-8,3,235,-8,2,234,0,0,0,0,0,0,0,0,696
7.664061069,0,-1,0,0,0,0,0,0,0,-8,3,235,-8,2,234,0,0,0,0,0,0,0,0,697
7.675005197,0,-1,0,0,0,0,0,0,0,-8,3,235,-8,2,234,0,0,0,0,0,0,0,0,698
7.686009168,0,-1,0,0,0,0,0,0,0,-8,3,236,-8,2,234,0,0,0,0,0,0,0,0,699
7.696954012,0,-1,0,0,0,0,0,0,0,-8,3,236,-8,2,234,0,0,0,0,0,0,0,0,700
7.708208084,0,-1,0,0,0,0,0,0,0,-8,3,236,-8,2,234,0,0,0,0,0,0,0,0,701
7.718917131,0,-1,0,0,0,0,0,0,0,-7,2,236,-8,2,234,0,0,0,0,0,0,0,0,702
7.729907036,0,-1,0,0,0,0,0,0,0,-7,2,236,-8,2,234,0,0,0,0,0,0,0,0,703
7.740993976,0,-1,0,0,0,0,0,0,0,-7,1,235,-8,1,235,0,0,0,0,0,0,0,0,704
7.751973152,0,-1,0,0,0,0,0,0,0,-7,1,235,-8,1,235,0,0,0,0,0,0,0,0,705
7.763038158,0,-1,0,0,0,0,0,0,0,-8,1,235,-8,2,235,0,0,0,0,0,0,0,0,706
7.77398014,0,-1,0,0,0,0,0,0,0,-8,1,235,-8,2,235,0,0,0,0,0,0,0,0,707
7.784981012,0,-1,0,0,0,0,0,0,0,-7,3,235,-8,2,235,0,0,0,0,0,0,0,0,708
7.79608798,0,-1,0,0,0,0,0,0,0,-7,3,235,-8,2,235,0,0,0,0,0,0,0,0,709
7.806931019,0,-1,0,0,0,0,0,0,0,-7,3,235,-8,2,235,0,0,0,0,0,0,0,0,710
7.818040132,0,-1,0,0,0,0,0,0,0,-8,2,234,-8,2,235,0,0,0,0,0,0,0,0,711
7.829143047,0,-1,0,0,0,0,0,0,0,-8,2,234,-8,2,235,0,0,0,0,0,0,0,0,712
7.839852094,0,-1,0,0,0,0,0,0,0,-8,2,234,-8,2,235,0,0,0,0,0,0,0,0,713
7.850929975,0,-1,0,0,0,0,0,0,0,-7,2,235,-7,2,236,0,0,0,0,0,0,0,0,714
7.861850023,0,-1,0,0,0,0,0,0,0,-7,2,235,-7,2,236,0,0,0,0,0,0,0,0,715
7.873915195,0,-1,0,0,0,0,0,0,0,-8,2,235,-7,2,236,0,0,0,0,0,0,0,0,716
7.883975029,0,-1,0,0,0,0,0,0,0,-8,2,235,-7,2,236,0,0,0,0,0,0,0,0,717
7.89498806,0,-1,0,0,0,0,0,0,0,-7,1,235,-7,2,236,0,0,0,0,0,0,0,0,718
7.906443119,0,-1,0,0,0,0,0,0,0,-7,1,235,-7,2,236,0,0,0,0,0,0,0,0,719
7.917038202,0,-1,0,0,0,0,0,0,0,-8,3,234,-7,2,235,0,0,0,0,0,0,0,0,720
7.929885149,0,-1,0,0,0,0,0,0,0,-8,3,234,-7,2,235,0,0,0,0,0,0,0,0,721
7.938960075,0,-1,0,0,0,0,0,0,0,-8,2,235,-7,2,235,0,0,0,0,0,0,0,0,722
7.950746059,0,-1,0,0,0,0,0,0,0,-8,2,235,-7,2,235,0,0,0,0,0,0,0,0,723
7.964264154,0,-1,0,0,0,0,0,0,0,-7,3,235,-7,2,235,0,0,0,0,0,0,0,0,724
7.972338199,0,-1,0,0,0,0,0,0,0,-7,3,235,-7,2,235,0,0,0,0,0,0,0,0,725
7.982945204,0,-1,0,0,0,0,0,0,0,-6,3,236,-7,2,235,0,0,0,0,0,0,0,0,726
7.9938941,0,-1,0,0,0,0,0,0,0,-6,3,236,-7,2,235,0,0,0,0,0,0,0,0,727
8.004939079,0,-1,0,0,0,0,0,0,0,-7,2,237,-7,2,235,0,0,0,0,0,0,0,0,728
8.015990972,0,-1,0,0,0,0,0,0,0,-7,2,237,-7,2,235,0,0,0,0,0,0,0,0,729
8.027032137,0,-1,0,0,0,0,0,0,0,-8,2,236,-7,2,235,0,0,0,0,0,0,0,0,730
8.037865162,0,-1,0,0,0,0,0,0,0,-8,2,236,-7,2,235,0,0,0,0,0,0,0,0,731
8.048943996,0,-1,0,0,0,0,0,0,0,-8,2,236,-7,2,235,0,0,0,0,0,0,0,0,732
8.06035304,0,-1,0,0,0,0,0,0,0,-8,2,236,-7,2,235,0,0,0,0,0,0,0,0,733
8.071024179,0,-1,0,0,0,0,0,0,0,-7,3,235,-7,2,235,0,0,0,0,0,0,0,0,734
8.082040071,0,-1,0,0,0,0,0,0,0,-7,3,235,-7,2,235,0,0,0,0,0,0,0,0,735
8.092899084,0,-1,0,0,0,0,0,0,0,-8,3,234,-7,2,235,0,0,0,0,0,0,0,0,736
8.104170084,0,-1,0,0,0,0,0,0,0,-8,3,234,-7,2,235,0,0,0,0,0,0,0,0,737
8.114929199,0,-1,0,0,0,0,0,0,0,-8,3,234,-7,2,235,0,0,0,0,0,0,0,0,738
8.125855207,0,-1,0,0,0,0,0,0,0,-8,3,234,-7,2,235,0,0,0,0,0,0,0,0,739
8.136945009,0,-1,0,0,0,0,0,0,0,-8,2,235,-7,2,236,0,0,0,0,0,0,0,0,740
8.147962093,0,-1,0,0,0,0,0,0,0,-8,2,235,-7,2,236,0,0,0,0,0,0,0,0,741
8.158910036,0,-1,0,0,0,0,0,0,0,-8,2,235,-7,2,236,0,0,0,0,0,0,0,0,742
8.16990304,0,-1,0,0,0,0,0,0,0,-8,2,234,-7,2,236,0,0,0,0,0,0,0,0,743
8.180908203,0,-1,0,0,0,0,0,0,0,-8,2,234,-7,2,236,0,0,0,0,0,0,0,0,744
8.192003011,0,-1,0,0,0,0,0,0,0,-8,2,233,-7,3,236,0,0,0,0,0,0,0,0,745
8.203004122,0,-1,0,0,0,0,0,0,0,-8,2,233,-7,3,236,0,0,0,0,0,0,0,0,746
8.214837074,0,-1,0,0,0,0,0,0,0,-8,2,234,-7,3,236,0,0,0,0,0,0,0,0,747
8.224905014,0,-1,0,0,0,0,0,0,0,-8,2,234,-7,3,236,0,0,0,0,0,0,0,0,748
8.240288019,0,-1,0,0,0,0,0,0,0,-8,2,234,-7,3,236,0,0,0,0,0,0,0,0,749
8.246895075,0,-1,0,0,0,0,0,0,0,-8,1,233,-7,3,235,0,0,0,0,0,0,0,0,750
8.258012056,0,-1,0,0,0,0,0,0,0,-8,1,233,-7,3,235,0,0,0,0,0,0,0,0,751
8.268951177,0,-1,0,0,0,0,0,0,0,-7,2,234,-8,3,235,0,0,0,0,0,0,0,0,752
8.280017137,0,-1,0,0,0,0,0,0,0,-7,2,234,-8,3,235,0,0,0,0,0,0,0,0,753
8.290902138,0,-1,0,0,0,0,0,0,0,-7,2,234,-8,3,235,0,0,0,0,0,0,0,0,754
8.301987171,0,-1,0,0,0,0,0,0,0,-7,2,234,-8,3,235,0,0,0,0,0,0,0,0,755
8.312944174,0,-1,0,0,0,0,0,0,0,-7,2,234,-8,3,235,0,0,0,0,0,0,0,0,756
8.324065208,0,-1,0,0,0,0,0,0,0,-8,3,234,-8,2,234,0,0,0,0,0,0,0,0,757
8.335040092,0,-1,0,0,0,0,0,0,0,-8,3,234,-8,2,234,0,0,0,0,0,0,0,0,758
8.347841024,0,-1,0,0,0,0,0,0,0,-8,2,236,-8,2,234,0,0,0,0,0,0,0,0,759
8.356935024,0,-1,0,0,0,0,0,0,0,-8,2,236,-8,2,234,0,0,0,0,0,0,0,0,760
8.366972208,0,-1,0,0,0,0,0,0,0,-8,2,236,-8,2,234,0,0,0,0,0,0,0,0,761
8.378000974,0,-1,0,0,0,0,0,0,0,-8,2,235,-8,2,233,0,0,0,0,0,0,0,0,762
8.389020204,0,-1,0,0,0,0,0,0,0,-8,2,235,-8,2,233,0,0,0,0,0,0,0,0,763
8.400066137,0,-1,0,0,0,0,0,0,0,-9,2,235,-8,2,233,0,0,0,0,0,0,0,0,764
8.411054134,0,-1,0,0,0,0,0,0,0,-9,2,235,-8,2,233,0,0,0,0,0,0,0,0,765
8.421976089,0,-1,0,0,0,0,0,0,0,-9,2,235,-8,2,233,0,0,0,0,0,0,0,0,766
8.432837009,0,-1,0,0,0,0,0,0,0,-7,3,235,-8,2,233,0,0,0,0,0,0,0,0,767
8.444025993,0,-1,0,0,0,0,0,0,0,-7,3,235,-8,2,233,0,0,0,0,0,0,0,0,768
8.454962015,0,-1,0,0,0,0,0,0,0,-8,3,236,-8,2,234,0,0,0,0,0,0,0,0,769
8.465944051,0,-1,0,0,0,0,0,0,0,-8,3,236,-8,2,234,0,0,0,0,0,0,0,0,770
8.477040052,0,-1,0,0,0,0,0,0,0,-7,3,235,-8,2,234,0,0,0,0,0,0,0,0,771
8.488131046,0,-1,0,0,0,0,0,0,0,-7,3,235,-8,2,234,0,0,0,0,0,0,0,0,772
8.498885154,0,-1,0,0,0,0,0,0,0,-7,3,235,-8,2,234,0,0,0,0,0,0,0,0,773
8.509971142,0,-1,0,0,0,0,0,0,0,-8,2,235,-8,2,234,0,0,0,0,0,0,0,0,774
8.521036148,0,-1,0,0,0,0,0,0,0,-8,2,235,-8,2,234,0,0,0,0,0,0,0,0,775
8.532104015,0,-1,0,0,0,0,0,0,0,-9,2,235,-8,2,235,0,0,0,0,0,0,0,0,776
8.542942047,0,-1,0,0,0,0,0,0,0,-9,2,235,-8,2,235,0,0,0,0,0,0,0,0,777
8.553902149,0,-1,0,0,0,0,0,0,0,-9,2,235,-8,2,235,0,0,0,0,0,0,0,0,778
8.565138101,0,-1,0,0,0,0,0,0,0,-7,2,236,-8,2,235,0,0,0,0,0,0,0,0,779
8.575998068,0,-1,0,0,0,0,0,0,0,-7,2,236,-8,2,235,0,0,0,0,0,0,0,0,780
8.587306022,0,-1,0,0,0,0,0,0,0,-8,3,235,-8,2,235,0,0,0,0,0,0,0,0,781
8.597985983,0,-1,0,0,0,0,0,0,0,-8,3,235,-8,2,235,0,0,0,0,0,0,0,0,782
8.608971119,0,-1,0,0,0,0,0,0,0,-8,3,234,-8,3,235,0,0,0,0,0,0,0,0,783
8.619881153,0,-1,0,0,0,0,0,0,0,-8,3,234,-8,3,235,0,0,0,0,0,0,0,0,784
8.631002187,0,-1,0,0,0,0,0,0,0,-8,3,234,-8,3,235,0,0,0,0,0,0,0,0,785
8.641993999,0,-1,0,0,0,0,0,0,0,-8,3,235,-8,3,235,0,0,0,0,0,0,0,0,786
8.652883053,0,-1,0,0,0,0,0,0,0,-8,3,235,-8,3,235,0,0,0,0,0,0,0,0,787
8.663958072,0,-1,0,0,0,0,0,0,0,-7,3,235,-8,3,235,0,0,0,0,0,0,0,0,788
8.675079107,0,-1,0,0,0,0,0,0,0,-7,3,235,-8,3,235,0,0,0,0,0,0,0,0,789
8.686074972,0,-1,0,0,0,0,0,0,0,-7,2,234,-8,3,235,0,0,0,0,0,0,0,0,790
8.697005987,0,-1,0,0,0,0,0,0,0,-7,2,234,-8,3,235,0,0,0,0,0,0,0,0,791
8.707975149,0,-1,0,0,0,0,0,0,0,-8,2,234,-8,3,235,0,0,0,0,0,0,0,0,792
8.718922138,0,-1,0,0,0,0,0,0,0,-8,2,234,-8,3,235,0,0,0,0,0,0,0,0,793
8.730005979,0,-1,0,0,0,0,0,0,0,-8,2,234,-8,3,235,0,0,0,0,0,0,0,0,794
8.740956068,0,-1,0,0,0,0,0,0,0,-8,3,234,-8,2,235,0,0,0,0,0,0,0,0,795
8.752132177,0,-1,0,0,0,0,0,0,0,-8,3,234,-8,2,235,0,0,0,0,0,0,0,0,796
8.763336181,0,-1,0,0,0,0,0,0,0,-8,3,234,-8,2,235,0,0,0,0,0,0,0,0,797
8.773888111,0,-1,0,0,0,0,0,0,0,-9,3,237,-8,2,235,0,0,0,0,0,0,0,0,798
8.784000158,0,-1,0,0,0,0,0,0,0,-9,3,237,-8,2,235,0,0,0,0,0,0,0,0,799
8.795096159,0,-1,0,0,0,0,0,0,0,-8,1,237,-8,2,235,0,0,0,0,0,0,0,0,800
8.80599308,0,-1,0,0,0,0,0,0,0,-8,1,237,-8,2,235,0,0,0,0,0,0,0,0,801
8.816980123,0,-1,0,0,0,0,0,0,0,-7,1,236,-8,2,235,0,0,0,0,0,0,0,0,802
8.828068018,0,-1,0,0,0,0,0,0,0,-7,1,236,-8,2,235,0,0,0,0,0,0,0,0,803
8.838915109,0,-1,0,0,0,0,0,0,0,-7,1,236,-8,2,235,0,0,0,0,0,0,0,0,804
8.850007057,0,-1,0,0,0,0,0,0,0,-9,3,236,-8,2,234,0,0,0,0,0,0,0,0,805
8.860980034,0,-1,0,0,0,0,0,0,0,-9,3,236,-8,2,234,0,0,0,0,0,0,0,0,806
8.872009039,0,-1,0,0,0,0,0,0,0,-8,3,235,-8,2,235,0,0,0,0,0,0,0,0,807
8.882943153,0,-1,0,0,0,0,0,0,0,-8,3,235,-8,2,235,0,0,0,0,0,0,0,0,808
8.894021034,0,-1,0,0,0,0,0,0,0,-9,3,235,-8,2,235,0,0,0,0,0,0,0,0,809
8.906164169,0,-1,0,0,0,0,0,0,0,-9,3,235,-8,2,235,0,0,0,0,0,0,0,0,810
8.915947199,0,-1,0,0,0,0,0,0,0,-9,3,235,-8,2,235,0,0,0,0,0,0,0,0,811
8.926899194,0,-1,0,0,0,0,0,0,0,-8,2,234,-8,2,235,0,0,0,0,0,0,0,0,812
8.938099146,0,-1,0,0,0,0,0,0,0,-8,2,234,-8,2,235,0,0,0,0,0,0,0,0,813
8.94887805,0,-1,0,0,0,0,0,0,0,-8,0,234,-8,2,235,0,0,0,0,0,0,0,0,814
8.959866047,0,-1,0,0,0,0,0,0,0,-8,0,234,-8,2,235,0,0,0,0,0,0,0,0,815
8.97097516,0,-1,0,0,0,0,0,0,0,-8,0,234,-8,2,235,0,0,0,0,0,0,0,0,816
8.982010126,0,-1,0,0,0,0,0,0,0,-7,1,233,-8,2,236,0,0,0,0,0,0,0,0,817
8.992909193,0,-1,0,0,0,0,0,0,0,-7,1,233,-8,2,236,0,0,0,0,0,0,0,0,818
9.004103183,0,-1,0,0,0,0,0,0,0,-8,1,234,-8,2,236,0,0,0,0,0,0,0,0,819
9.014964103,0,-1,0,0,0,0,0,0,0,-8,1,234,-8,2,236,0,0,0,0,0,0,0,0,820
9.025881052,0,-1,0,0,0,0,0,0,0,-8,1,234,-8,2,236,0,0,0,0,0,0,0,0,821
9.036866188,0,-1,0,0,0,0,0,0,0,-8,3,234,-8,2,236,0,0,0,0,0,0,0,0,822
9.048001051,0,-1,0,0,0,0,0,0,0,-8,3,234,-8,2,236,0,0,0,0,0,0,0,0,823
9.058878183,0,-1,0,0,0,0,0,0,0,-8,2,234,-8,2,235,0,0,0,0,0,0,0,0,824
9.06994009,0,-1,0,0,0,0,0,0,0,-8,2,234,-8,2,235,0,0,0,0,0,0,0,0,825
9.080983162,0,-1,0,0,0,0,0,0,0,-6,3,234,-8,2,235,0,0,0,0,0,0,0,0,826
9.092015981,0,-1,0,0,0,0,0,0,0,-6,3,234,-8,2,235,0,0,0,0,0,0,0,0,827
9.103099107,0,-1,0,0,0,0,0,0,0,-6,1,235,-8,2,234,0,0,0,0,0,0,0,0,828
9.113907099,0,-1,0,0,0,0,0,0,0,-6,1,235,-8,2,234,0,0,0,0,0,0,0,0,829
9.124981165,0,-1,0,0,0,0,0,0,0,-7,2,236,-8,2,234,0,0,0,0,0,0,0,0,830
9.13597703,0,-1,0,0,0,0,0,0,0,-7,2,236,-8,2,234,0,0,0,0,0,0,0,0,831
9.147039175,0,-1,0,0,0,0,0,0,0,-7,2,235,-8,2,234,0,0,0,0,0,0,0,0,832
9.158022165,0,-1,0,0,0,0,0,0,0,-7,2,235,-8,2,234,0,0,0,0,0,0,0,0,833
9.16883707,0,-1,0,0,0,0,0,0,0,-8,3,235,-8,2,234,0,0,0,0,0,0,0,0,834
9.179857015,0,-1,0,0,0,0,0,0,0,-8,3,235,-8,2,234,0,0,0,0,0,0,0,0,835
9.190957069,0,-1,0,0,0,0,0,0,0,-8,3,235,-7,2,234,0,0,0,0,0,0,0,0,836
9.201953172,0,-1,0,0,0,0,0,0,0,-8,3,235,-7,2,234,0,0,0,0,0,0,0,0,837
9.213181019,0,-1,0,0,0,0,0,0,0,-8,3,235,-7,2,234,0,0,0,0,0,0,0,0,838
9.224268198,0,-1,0,0,0,0,0,0,0,-7,3,235,-7,2,234,0,0,0,0,0,0,0,0,839
9.234816074,0,-1,0,0,0,0,0,0,0,-7,3,235,-7,2,234,0,0,0,0,0,0,0,0,840
9.250921011,0,-1,0,0,0,0,0,0,0,-8,2,235,-7,2,234,0,0,0,0,0,0,0,0,841
9.260143995,0,-1,0,0,0,0,0,0,0,-8,2,235,-7,2,234,0,0,0,0,0,0,0,0,842
9.270905971,0,-1,0,0,0,0,0,0,0,-9,2,235,-7,2,235,0,0,0,0,0,0,0,0,843
9.281957149,0,-1,0,0,0,0,0,0,0,-9,2,235,-7,2,235,0,0,0,0,0,0,0,0,844
9.292930126,0,-1,0,0,0,0,0,0,0,-9,2,235,-7,2,235,0,0,0,0,0,0,0,0,845
9.304236173,0,-1,0,0,0,0,0,0,0,-9,2,236,-7,2,235,0,0,0,0,0,0,0,0,846
9.316255092,0,-1,0,0,0,0,0,0,0,-9,2,236,-7,2,235,0,0,0,0,0,0,0,0,847
9.32917118,0,-1,0,0,0,0,0,0,0,-8,2,235,-7,2,235,0,0,0,0,0,0,0,0,848
9.340487003,0,-1,0,0,0,0,0,0,0,-8,2,235,-7,2,235,0,0,0,0,0,0,0,0,849
9.351118088,0,-1,0,0,0,0,0,0,0,-8,2,235,-7,3,235,0,0,0,0,0,0,0,0,850
9.361862182,0,-1,0,0,0,0,0,0,0,-8,2,235,-7,3,235,0,0,0,0,0,0,0,0,851
9.372970104,0,-1,0,0,0,0,0,0,0,-9,2,234,-8,3,235,0,0,0,0,0,0,0,0,852
9.383949995,0,-1,0,0,0,0,0,0,0,-9,2,234,-8,3,235,0,0,0,0,0,0,0,0,853
9.394895076,0,-1,0,0,0,0,0,0,0,-8,2,235,-8,2,235,0,0,0,0,0,0,0,0,854
9.405987024,0,-1,0,0,0,0,0,0,0,-8,2,235,-8,2,235,0,0,0,0,0,0,0,0,855
9.416954994,0,-1,0,0,0,0,0,0,0,-8,2,235,-8,2,235,0,0,0,0,0,0,0,0,856
9.428210973,0,-1,0,0,0,0,0,0,0,-9,2,235,-8,2,235,0,0,0,0,0,0,0,0,857
9.43880701,0,-1,0,0,0,0,0,0,0,-9,2,235,-8,2,235,0,0,0,0,0,0,0,0,858
9.449880123,0,-1,0,0,0,0,0,0,0,-9,2,235,-8,2,235,0,0,0,0,0,0,0,0,859
9.460987091,0,-1,0,0,0,0,0,0,0,-9,3,235,-8,2,235,0,0,0,0,0,0,0,0,860
9.471594095,0,-1,0,0,0,0,0,0,0,-9,3,235,-8,2,235,0,0,0,0,0,0,0,0,861
9.48194313,0,-1,0,0,0,0,0,0,0,-9,2,235,-8,2,235,0,0,0,0,0,0,0,0,862
9.492949009,0,-1,0,0,0,0,0,0,0,-9,2,235,-8,2,235,0,0,0,0,0,0,0,0,863
9.504047155,0,-1,0,0,0,0,0,0,0,-9,2,235,-8,2,235,0,0,0,0,0,0,0,0,864
9.514964103,0,-1,0,0,0,0,0,0,0,-9,2,235,-8,2,235,0,0,0,0,0,0,0,0,865
9.525927067,0,-1,0,0,0,0,0,0,0,-8,2,235,-8,2,235,0,0,0,0,0,0,0,0,866
9.536903143,0,-1,0,0,0,0,0,0,0,-8,2,235,-8,2,235,0,0,0,0,0,0,0,0,867
9.548118114,0,-1,0,0,0,0,0,0,0,-8,2,235,-8,2,235,0,0,0,0,0,0,0,0,868
9.561748028,0,-1,0,0,0,0,0,0,0,-8,1,235,-8,2,235,0,0,0,0,0,0,0,0,869
9.57015419,0,-1,0,0,0,0,0,0,0,-8,1,235,-8,2,235,0,0,0,0,0,0,0,0,870
9.580970049,0,-1,0,0,0,0,0,0,0,-8,1,235,-8,2,235,0,0,0,0,0,0,0,0,871
9.5922122,0,-1,0,0,0,0,0,0,0,-8,3,235,-8,2,235,0,0,0,0,0,0,0,0,872
9.604210138,0,-1,0,0,0,0,0,0,0,-8,3,235,-8,2,235,0,0,0,0,0,0,0,0,873
9.613964081,0,-1,0,0,0,0,0,0,0,-8,3,235,-8,2,235,0,0,0,0,0,0,0,0,874
9.62494111,0,-1,0,0,0,0,0,0,0,-8,3,235,-8,2,235,0,0,0,0,0,0,0,0,875
9.635944128,0,-1,0,0,0,0,0,0,0,-8,3,234,-8,2,235,0,0,0,0,0,0,0,0,876
9.646911144,0,-1,0,0,0,0,0,0,0,-8,3,234,-8,2,235,0,0,0,0,0,0,0,0,877
9.657875061,0,-1,0,0,0,0,0,0,0,-8,2,234,-8,2,235,0,0,0,0,0,0,0,0,878
9.668950081,0,-1,0,0,0,0,0,0,0,-8,2,234,-8,2,235,0,0,0,0,0,0,0,0,879
9.679941177,0,-1,0,0,0,0,0,0,0,-8,2,234,-8,2,235,0,0,0,0,0,0,0,0,880
9.690955162,0,-1,0,0,0,0,0,0,0,-7,1,235,-8,2,235,0,0,0,0,0,0,0,0,881
9.701934099,0,-1,0,0,0,0,0,0,0,-7,1,235,-8,2,235,0,0,0,0,0,0,0,0,882
9.713074207,0,-1,0,0,0,0,0,0,0,-7,1,235,-8,2,235,0,0,0,0,0,0,0,0,883
9.724150181,0,-1,0,0,0,0,0,0,0,-7,1,234,-8,2,235,0,0,0,0,0,0,0,0,884
9.734906196,0,-1,0,0,0,0,0,0,0,-7,1,234,-8,2,235,0,0,0,0,0,0,0,0,885
9.748125076,0,-1,0,0,0,0,0,0,0,-9,3,234,-8,2,235,0,0,0,0,0,0,0,0,886
9.756949186,0,-1,0,0,0,0,0,0,0,-9,3,234,-8,2,235,0,0,0,0,0,0,0,0,887
9.76804018,0,-1,0,0,0,0,0,0,0,-8,2,234,-8,2,235,0,0,0,0,0,0,0,0,888
9.780107975,0,-1,0,0,0,0,0,0,0,-8,2,234,-8,2,235,0,0,0,0,0,0,0,0,889
9.789919138,0,-1,0,0,0,0,0,0,0,-8,2,235,-8,2,235,0,0,0,0,0,0,0,0,890
9.801117182,0,-1,0,0,0,0,0,0,0,-8,2,235,-8,2,235,0,0,0,0,0,0,0,0,891
9.811979055,0,-1,0,0,0,0,0,0,0,-8,2,234,-8,2,235,0,0,0,0,0,0,0,0,892
9.823114156,0,-1,0,0,0,0,0,0,0,-8,2,234,-8,2,235,0,0,0,0,0,0,0,0,893
9.834433079,0,-1,0,0,0,0,0,0,0,-8,0,234,-8,2,234,0,0,0,0,0,0,0,0,894
9.845056057,0,-1,0,0,0,0,0,0,0,-8,0,234,-8,2,234,0,0,0,0,0,0,0,0,895
9.855885982,0,-1,0,0,0,0,0,0,0,-8,1,234,-8,2,234,0,0,0,0,0,0,0,0,896
9.866944074,0,-1,0,0,0,0,0,0,0,-8,1,234,-8,2,234,0,0,0,0,0,0,0,0,897
9.880402088,0,-1,0,0,0,0,0,0,0,-8,1,236,-8,2,234,0,0,0,0,0,0,0,0,898
9.888930082,0,-1,0,0,0,0,0,0,0,-8,1,236,-8,2,234,0,0,0,0,0,0,0,0,899
9.9033041,0,-1,0,0,0,0,0,0,0,-8,1,236,-8,2,234,0,0,0,0,0,0,0,0,900
9.911031008,0,-1,0,0,0,0,0,0,0,-7,3,236,-8,2,234,0,0,0,0,0,0,0,0,901
9.922049999,0,-1,0,0,0,0,0,0,0,-7,3,236,-8,2,234,0,0,0,0,0,0,0,0,902
9.936336994,0,-1,0,0,0,0,0,0,0,-7,3,236,-8,2,234,0,0,0,0,0,0,0,0,903
9.943852186,0,-1,0,0,0,0,0,0,0,-7,2,234,-8,2,234,0,0,0,0,0,0,0,0,904
9.954907179,0,-1,0,0,0,1,0,0,0,-7,2,234,-8,2,234,0,0,0,0,0,0,0,0,905
9.965919971,0,-1,0,0,0,1,0,0,0,-7,1,234,-8,2,235,0,0,0,0,0,0,0,0,906
9.977046013,0,-1,0,0,0,0,0,0,0,-7,1,234,-8,2,235,0,0,0,0,0,0,0,0,907
9.987852096,0,-1,0,0,0,0,0,0,0,-8,1,235,-8,1,235,0,0,0,0,0,0,0,0,908
9.999068975,0,-1,0,0,0,0,0,0,0,-8,1,235,-8,1,235,0,0,0,0,0,0,0,0,909
10.009910106,0,-1,0,0,0,0,0,0,0,-7,2,236,-8,1,235,0,0,0,0,0,0,0,0,910
10.020862102,0,-1,0,0,0,0,0,0,0,-7,2,236,-8,1,235,0,0,0,0,0,0,0,0,911
10.03207612,0,-1,0,0,0,0,0,0,0,-7,2,236,-8,1,235,0,0,0,0,0,0,0,0,912
10.042847156,0,-1,0,0,0,0,0,0,0,-9,3,236,-8,1,235,0,0,0,0,0,0,0,0,913
10.053894996,0,-1,0,0,0,0,0,0,0,-9,3,236,-8,1,235,0,0,0,0,0,0,0,0,914
10.064901113,0,-1,0,0,0,0,0,0,0,-9,3,236,-8,1,235,0,0,0,0,0,0,0,0,915
10.075998068,0,-1,0,0,0,0,0,0,0,-10,2,235,-8,1,235,0,0,0,0,0,0,0,0,916
10.087022066,0,-1,0,0,0,0,0,0,0,-10,2,235,-8,1,235,0,0,0,0,0,0,0,0,917
10.097935199,0,-1,0,0,0,0,0,0,0,-8,2,234,-7,1,235,0,0,0,0,0,0,0,0,918
10.108960151,0,-1,0,0,0,0,0,0,0,-8,2,234,-7,1,235,0,0,0,0,0,0,0,0,919
10.120496988,0,-1,0,0,0,0,0,0,0,-7,2,235,-7,2,235,0,0,0,0,0,0,0,0,920
10.130912065,0,-1,0,0,0,0,0,0,0,-7,2,235,-7,2,235,0,0,0,0,0,0,0,0,921
10.141875982,0,-1,0,0,0,0,0,0,0,-7,2,235,-7,2,235,0,0,0,0,0,0,0,0,922
10.152988195,0,-1,0,0,0,0,0,0,0,-7,2,235,-7,2,235,0,0,0,0,0,0,0,0,923
10.164260149,0,-1,0,0,0,0,0,0,0,-7,2,235,-7,2,235,0,0,0,0,0,0,0,0,924
10.175031185,0,-1,0,0,0,0,0,0,0,-9,3,235,-7,2,235,0,0,0,0,0,0,0,0,925
10.185981035,0,-1,0,0,0,0,0,0,0,-9,3,235,-7,2,235,0,0,0,0,0,0,0,0,926
10.19692707,0,-1,0,0,0,0,0,0,0,-9,3,235,-7,2,235,0,0,0,0,0,0,0,0,927
10.208009004,0,-1,0,0,0,0,0,0,0,-9,3,236,-8,2,235,0,0,0,0,0,0,0,0,928
10.218995094,0,-1,0,0,0,0,0,0,0,-9,3,236,-8,2,235,0,0,0,0,0,0,0,0,929
10.229963064,0,-1,0,0,0,0,0,0,0,-8,2,236,-8,2,235,0,0,0,0,0,0,0,0,930
10.241430044,0,-1,0,0,0,0,0,0,0,-8,2,236,-8,2,235,0,0,0,0,0,0,0,0,931
10.251828193,0,-1,0,0,0,0,0,0,0,-9,1,236,-8,2,235,0,0,0,0,0,0,0,0,932
10.262898206,0,-1,0,0,0,0,0,0,0,-9,1,236,-8,2,235,0,0,0,0,0,0,0,0,933
10.273936033,0,-1,0,0,0,0,0,0,0,-9,2,235,-8,2,235,0,0,0,0,0,0,0,0,934
10.28513813,0,-1,0,0,0,0,0,0,0,-9,2,235,-8,2,235,0,0,0,0,0,0,0,0,935
10.296033144,0,-1,0,0,0,0,0,0,0,-8,2,234,-8,2,235,0,0,0,0,0,0,0,0,936
10.306926012,0,-1,0,0,0,0,0,0,0,-8,2,234,-8,2,235,0,0,0,0,0,0,0,0,937
10.317867994,0,-1,0,0,0,0,0,0,0,-8,3,235,-8,2,235,0,0,0,0,0,0,0,0,938
10.328863144,0,-1,0,0,0,0,0,0,0,-8,3,235,-8,2,235,0,0,0,0,0,0,0,0,939
10.34033513,0,-1,0,0,0,0,0,0,0,-8,3,234,-8,2,235,0,0,0,0,0,0,0,0,940
10.351130008,0,-1,0,0,0,0,0,0,0,-8,3,234,-8,2,235,0,0,0,0,0,0,0,0,941
10.361998081,0,-1,0,0,0,0,0,0,0,-7,3,235,-8,2,235,0,0,0,0,0,0,0,0,942
10.372996092,0,-1,0,0,0,0,0,0,0,-7,3,235,-8,2,235,0,0,0,0,0,0,0,0,943
10.383989095,0,-1,0,0,0,0,0,0,0,-7,3,235,-8,2,235,0,0,0,0,0,0,0,0,944
10.394886017,0,-1,0,0,0,0,0,0,0,-7,3,235,-8,2,235,0,0,0,0,0,0,0,0,945
10.40606308,0,-1,0,0,0,0,0,0,0,-7,3,235,-8,2,235,0,0,0,0,0,0,0,0,946
10.416906118,0,-1,0,0,0,0,0,0,0,-7,3,235,-8,2,235,0,0,0,0,0,0,0,0,947
10.428007126,0,-1,0,0,0,0,0,0,0,-7,2,235,-8,2,235,0,0,0,0,0,0,0,0,948
10.4389081,0,-1,0,0,0,0,0,0,0,-7,2,235,-8,2,235,0,0,0,0,0,0,0,0,949
10.449987173,0,-1,0,0,0,0,0,0,0,-9,2,234,-8,2,235,0,0,0,0,0,0,0,0,950
10.460266113,0,-1,0,0,0,0,0,0,0,-9,2,234,-8,2,235,0,0,0,0,0,0,0,0,951
10.470998049,0,-1,0,0,0,0,0,0,0,-9,3,234,-8,2,235,0,0,0,0,0,0,0,0,952
10.481950998,0,-1,0,0,0,0,0,0,0,-9,3,234,-8,2,235,0,0,0,0,0,0,0,0,953
10.493036985,0,-1,0,0,0,0,0,0,0,-8,3,234,-8,2,235,0,0,0,0,0,0,0,0,954
10.504111051,0,-1,0,0,0,0,0,0,0,-8,3,234,-8,2,235,0,0,0,0,0,0,0,0,955
10.514966011,0,-1,0,0,0,0,0,0,0,-7,2,234,-8,2,235,0,0,0,0,0,0,0,0,956
10.526030063,0,-1,0,0,0,0,0,0,0,-7,2,234,-8,2,235,0,0,0,0,0,0,0,0,957
10.537096977,0,-1,0,0,0,0,0,0,0,-8,2,235,-8,3,235,0,0,0,0,0,0,0,0,958
10.54829812,0,-1,0,0,0,0,0,0,0,-8,2,235,-8,3,235,0,0,0,0,0,0,0,0,959
10.558876991,0,-1,0,0,0,0,0,0,0,-8,2,235,-8,3,235,0,0,0,0,0,0,0,0,960
10.569948196,0,-1,0,0,0,0,0,0,0,-8,2,235,-8,3,235,0,0,0,0,0,0,0,0,961
10.580871105,0,-1,0,0,0,0,0,0,0,-7,2,236,-8,3,235,0,0,0,0,0,0,0,0,962
10.591945171,0,-1,0,0,0,0,0,0,0,-7,2,236,-8,3,235,0,0,0,0,0,0,0,0,963
10.603054046,0,-1,0,0,0,0,0,0,0,-8,2,236,-8,3,235,0,0,0,0,0,0,0,0,964
10.614214182,0,-1,0,0,0,0,0,0,0,-8,2,236,-8,3,235,0,0,0,0,0,0,0,0,965
10.624965191,0,-1,0,0,0,0,0,0,0,-9,2,234,-8,2,235,0,0,0,0,0,0,0,0,966
10.636005163,0,-1,0,0,0,0,0,0,0,-9,2,234,-8,2,235,0,0,0,0,0,0,0,0,967
10.647825002,0,-1,0,0,0,0,0,0,0,-9,2,234,-8,2,235,0,0,0,0,0,0,0,0,968
10.657902002,0,-1,0,0,0,0,0,0,0,-8,2,233,-8,2,235,0,0,0,0,0,0,0,0,969
10.668941021,0,-1,0,0,0,0,0,0,0,-8,2,233,-8,2,235,0,0,0,0,0,0,0,0,970
10.680085182,0,-1,0,0,0,0,0,0,0,-8,1,234,-8,2,235,0,0,0,0,0,0,0,0,971
10.691035032,0,-1,0,0,0,0,0,0,0,-8,1,234,-8,2,235,0,0,0,0,0,0,0,0,972
10.702074051,0,-1,0,0,0,0,0,0,0,-8,2,235,-8,2,235,0,0,0,0,0,0,0,0,973
10.71295309,0,-1,0,0,0,0,0,0,0,-8,2,235,-8,2,235,0,0,0,0,0,0,0,0,974
10.724083185,0,-1,0,0,0,0,0,0,0,-8,2,235,-8,2,235,0,0,0,0,0,0,0,0,975
10.73510313,0,-1,0,0,0,0,0,0,0,-8,3,234,-8,2,235,0,0,0,0,0,0,0,0,976
10.745925188,0,-1,0,0,0,0,0,0,0,-8,3,234,-8,2,235,0,0,0,0,0,0,0,0,977
10.756905079,0,-1,0,0,0,0,0,0,0,-8,2,234,-8,2,235,0,0,0,0,0,0,0,0,978
10.768270015,0,-1,0,0,0,0,0,0,0,-8,2,234,-8,2,235,0,0,0,0,0,0,0,0,979
10.778972149,0,-1,0,0,0,0,0,0,0,-8,2,234,-8,2,235,0,0,0,0,0,0,0,0,980
10.789929151,0,-1,0,0,0,0,0,0,0,-7,3,234,-8,2,235,0,0,0,0,0,0,0,0,981
10.801421165,0,-1,0,0,0,0,0,0,0,-7,3,234,-8,2,235,0,0,0,0,0,0,0,0,982
10.812057972,0,-1,0,0,0,0,0,0,0,-7,3,235,-8,2,235,0,0,0,0,0,0,0,0,983
10.822991132,0,-1,0,0,0,0,0,0,0,-7,3,235,-8,2,235,0,0,0,0,0,0,0,0,984
10.834103107,0,-1,0,0,0,0,0,0,0,-6,2,235,-8,2,235,0,0,0,0,0,0,0,0,985
10.845113039,0,-1,0,0,0,0,0,0,0,-6,2,235,-8,2,235,0,0,0,0,0,0,0,0,986
10.855869055,0,-1,0,0,0,0,0,0,0,-6,2,235,-8,2,235,0,0,0,0,0,0,0,0,987
10.866918087,0,-1,0,0,0,0,0,0,0,-6,2,235,-8,2,234,0,0,0,0,0,0,0,0,988
10.877976179,0,-1,0,0,0,0,0,0,0,-6,2,235,-8,2,234,0,0,0,0,0,0,0,0,989
10.889005184,0,-1,0,0,0,0,0,0,0,-7,3,235,-8,2,234,0,0,0,0,0,0,0,0,990
10.900288105,0,-1,0,0,0,0,0,0,0,-7,3,235,-8,2,234,0,0,0,0,0,0,0,0,991
10.911037206,0,-1,0,0,0,0,0,0,0,-7,3,235,-8,2,234,0,0,0,0,0,0,0,0,992
10.922074079,0,-1,0,0,0,0,0,0,0,-8,3,235,-7,2,234,0,0,0,0,0,0,0,0,993
10.932958126,0,-1,0,0,0,0,0,0,0,-8,3,235,-7,2,234,0,0,0,0,0,0,0,0,994
10.943955183,0,-1,0,0,0,0,0,0,0,-9,3,235,-7,2,234,0,0,0,0,0,0,0,0,995
10.955028057,0,-1,0,0,0,0,0,0,0,-9,3,235,-7,2,234,0,0,0,0,0,0,0,0,996
10.966063022,0,-1,0,0,0,0,0,0,0,-8,2,235,-7,3,234,0,0,0,0,0,0,0,0,997
10.976984024,0,-1,0,0,0,0,0,0,0,-8,2,235,-7,3,234,0,0,0,0,0,0,0,0,998
10.988103151,0,-1,0,0,0,0,0,0,0,-8,2,235,-7,3,234,0,0,0,0,0,0,0,0,999
10.999104976,0,-1,0,0,0,0,0,0,0,-7,2,235,-7,3,235,0,0,0,0,0,0,0,0,1000
11.012227058,0,-1,0,0,0,0,0,0,0,-7,2,235,-7,3,235,0,0,0,0,0,0,0,0,1001
11.021059036,0,-1,0,0,0,0,0,0,0,-8,2,234,-7,3,235,0,0,0,0,0,0,0,0,1002
11.031884193,0,-1,0,0,0,0,0,0,0,-8,2,234,-7,3,235,0,0,0,0,0,0,0,0,1003
11.042868137,0,-1,0,0,0,0,0,0,0,-8,2,234,-7,3,235,0,0,0,0,0,0,0,0,1004
11.053919077,0,-1,0,0,0,0,0,0,0,-8,2,234,-7,3,235,0,0,0,0,0,0,0,0,1005
11.064916134,0,-1,0,0,0,0,0,0,0,-8,2,234,-7,3,235,0,0,0,0,0,0,0,0,1006
11.076050043,0,-1,0,0,0,0,0,0,0,-8,2,232,-7,3,235,0,0,0,0,0,0,0,0,1007
11.086912155,0,-1,0,0,0,0,0,0,0,-8,2,232,-7,3,235,0,0,0,0,0,0,0,0,1008
11.09794116,0,-1,0,0,0,0,0,0,0,-8,2,234,-7,3,235,0,0,0,0,0,0,0,0,1009
11.110146045,0,-1,0,0,0,0,0,0,0,-8,2,234,-7,3,235,0,0,0,0,0,0,0,0,1010
11.119863033,0,-1,0,0,0,0,0,0,0,-8,2,234,-7,3,235,0,0,0,0,0,0,0,0,1011
11.130871057,0,-1,0,0,0,0,0,0,0,-8,2,235,-8,2,235,0,0,0,0,0,0,0,0,1012
11.141911983,0,-1,0,0,0,0,0,0,0,-8,2,235,-8,2,235,0,0,0,0,0,0,0,0,1013
11.152965069,0,-1,0,0,0,0,0,0,0,-7,2,234,-8,2,235,0,0,0,0,0,0,0,0,1014
11.164079189,0,-1,0,0,0,0,0,0,0,-7,2,234,-8,2,235,0,0,0,0,0,0,0,0,1015
11.175333023,0,-1,0,0,0,0,0,0,0,-7,2,234,-8,2,235,0,0,0,0,0,0,0,0,1016
11.185965061,0,-1,0,0,0,0,0,0,0,-8,3,234,-8,2,235,0,0,0,0,0,0,0,0,1017
11.196977138,0,-1,0,0,0,0,0,0,0,-8,3,234,-8,2,235,0,0,0,0,0,0,0,0,1018
11.207828045,0,-1,0,0,0,0,0,0,0,-8,3,234,-8,2,235,0,0,0,0,0,0,0,0,1019
11.218868971,0,-1,0,0,0,0,0,0,0,-8,3,235,-8,2,234,0,0,0,0,0,0,0,0,1020
11.229870081,0,-1,0,0,0,0,0,0,0,-8,3,235,-8,2,234,0,0,0,0,0,0,0,0,1021
11.240873098,0,-1,0,0,0,0,0,0,0,-8,2,235,-8,2,234,0,0,0,0,0,0,0,0,1022
11.251933098,0,-1,0,0,0,0,0,0,0,-8,2,235,-8,2,234,0,0,0,0,0,0,0,0,1023
11.262969017,0,-1,0,0,0,0,0,0,0,-8,2,235,-8,2,234,0,0,0,0,0,0,0,0,1024
11.274011135,0,-1,0,0,0,0,0,0,0,-7,3,234,-8,2,234,0,0,0,0,0,0,0,0,1025
11.288088083,0,-1,0,0,0,0,0,0,0,-7,3,234,-8,2,234,0,0,0,0,0,0,0,0,1026
11.296041012,0,-1,0,0,0,0,0,0,0,-7,3,234,-8,2,234,0,0,0,0,0,0,0,0,1027
11.307005167,0,-1,0,0,0,0,0,0,0,-7,3,234,-8,2,234,0,0,0,0,0,0,0,0,1028
11.319363117,0,-1,0,0,0,0,0,0,0,-7,3,234,-8,2,234,0,0,0,0,0,0,0,0,1029
11.328988075,0,-1,0,0,0,0,0,0,0,-8,2,234,-8,2,234,0,0,0,0,0,0,0,0,1030
11.340006113,0,-1,0,0,0,0,0,0,0,-8,2,234,-8,2,234,0,0,0,0,0,0,0,0,1031
11.350889206,0,-1,0,0,0,0,0,0,0,-8,2,234,-8,2,234,0,0,0,0,0,0,0,0,1032
11.361999035,0,-1,0,0,0,0,0,0,0,-8,2,234,-8,2,234,0,0,0,0,0,0,0,0,1033
11.37343502,0,-1,0,0,0,0,0,0,0,-8,3,234,-8,2,234,0,0,0,0,0,0,0,0,1034
11.384078979,0,-1,0,0,0,0,0,0,0,-8,3,234,-8,2,234,0,0,0,0,0,0,0,0,1035
11.395043134,0,-1,0,0,0,0,0,0,0,-8,3,235,-8,2,234,0,0,0,0,0,0,0,0,1036
11.41112709,0,-1,0,0,0,0,0,0,0,-8,3,235,-8,2,234,0,0,0,0,0,0,0,0,1037
11.41686511,0,-1,0,0,0,0,0,0,0,-8,2,234,-7,3,234,0,0,0,0,0,0,0,0,1038
11.427868128,0,-1,0,0,0,0,0,0,0,-8,2,234,-7,3,234,0,0,0,0,0,0,0,0,1039
11.438862085,0,-1,0,0,0,0,0,0,0,-8,3,235,-7,3,235,0,0,0,0,0,0,0,0,1040
11.452216148,0,-1,0,0,0,0,0,0,0,-8,3,235,-7,3,235,0,0,0,0,0,0,0,0,1041
11.459947109,0,-1,0,0,0,0,0,0,0,-8,2,235,-8,3,235,0,0,0,0,0,0,0,0,1042
11.470995188,0,-1,0,0,0,0,0,0,0,-8,2,235,-8,3,235,0,0,0,0,0,0,0,0,1043
11.482076168,0,-1,0,0,0,0,0,0,0,-8,2,235,-8,3,235,0,0,0,0,0,0,0,0,1044
11.493113041,0,-1,0,0,0,0,0,0,0,-8,3,239,-8,3,235,0,0,0,0,0,0,0,0,1045
11.509541988,0,-1,0,0,0,0,0,0,0,-8,3,239,-8,3,235,0,0,0,0,0,0,0,0,1046
11.516232013,0,-1,0,0,0,0,0,0,0,-8,2,236,-8,3,235,0,0,0,0,0,0,0,0,1047
11.525983095,0,-1,0,0,0,0,0,0,0,-8,2,236,-8,3,235,0,0,0,0,0,0,0,0,1048
11.536957979,0,-1,0,0,0,0,0,0,0,-8,2,236,-8,3,235,0,0,0,0,0,0,0,0,1049
11.548181057,0,-1,0,0,0,0,0,0,0,-7,2,236,-8,3,235,0,0,0,0,0,0,0,0,1050
11.559019088,0,-1,0,0,0,0,0,0,0,-7,2,236,-8,3,235,0,0,0,0,0,0,0,0,1051
11.570119142,0,-1,0,0,0,0,0,0,0,-8,1,235,-8,2,235,0,0,0,0,0,0,0,0,1052
11.580928087,0,-1,0,0,0,0,0,0,0,-8,1,235,-8,2,235,0,0,0,0,0,0,0,0,1053
11.59200716,0,-1,0,0,0,0,0,0,0,-8,2,236,-8,2,235,0,0,0,0,0,0,0,0,1054
11.602921009,0,-1,0,0,0,0,0,0,0,-8,2,236,-8,2,235,0,0,0,0,0,0,0,0,1055
11.614125013,0,-1,0,0,0,0,0,0,0,-8,2,236,-8,2,235,0,0,0,0,0,0,0,0,1056
11.624968052,0,-1,0,0,0,0,0,0,0,-7,2,235,-8,2,235,0,0,0,0,0,0,0,0,1057
11.635993004,0,-1,0,0,0,0,0,0,0,-7,2,235,-8,2,235,0,0,0,0,0,0,0,0,1058
11.646965027,0,-1,0,0,0,0,0,0,0,-7,2,235,-8,2,235,0,0,0,0,0,0,0,0,1059
11.658009052,0,-1,0,0,0,0,0,0,0,-8,2,236,-8,2,236,0,0,0,0,0,0,0,0,1060
11.66894412,0,-1,0,0,0,0,0,0,0,-8,2,236,-8,2,236,0,0,0,0,0,0,0,0,1061
11.680045128,0,-1,0,0,0,0,0,0,0,-7,3,235,-8,2,236,0,0,0,0,0,0,0,0,1062
11.690930128,0,-1,0,0,0,0,0,0,0,-7,3,235,-8,2,236,0,0,0,0,0,0,0,0,1063
11.702035188,0,-1,0,0,0,0,0,0,0,-8,2,235,-8,2,236,0,0,0,0,0,0,0,0,1064
11.713032007,0,-1,0,0,0,0,0,0,0,-8,2,235,-8,2,236,0,0,0,0,0,0,0,0,1065
11.724017143,0,-1,0,0,0,0,0,0,0,-8,2,234,-8,2,236,0,0,0,0,0,0,0,0,1066
11.735251188,0,-1,0,0,0,0,0,0,0,-8,2,234,-8,2,236,0,0,0,0,0,0,0,0,1067
11.745813131,0,-1,0,0,0,0,0,0,0,-8,2,235,-8,2,236,0,0,0,0,0,0,0,0,1068
11.756966114,0,-1,0,0,0,0,0,0,0,-8,2,235,-8,2,236,0,0,0,0,0,0,0,0,1069
11.768028974,0,-1,0,0,0,0,0,0,0,-8,3,235,-8,2,236,0,0,0,0,0,0,0,0,1070
11.779211044,0,-1,0,0,0,0,0,0,0,-8,3,235,-8,2,236,0,0,0,0,0,0,0,0,1071
11.790363073,0,-1,0,0,0,0,0,0,0,-8,2,235,-7,2,236,0,0,0,0,0,0,0,0,1072
11.801130056,0,-1,0,0,0,0,0,0,0,-8,2,235,-7,2,236,0,0,0,0,0,0,0,0,1073
11.812102079,0,-1,0,0,0,0,0,0,0,-8,3,235,-7,2,235,0,0,0,0,0,0,0,0,1074
11.823045015,0,-1,0,0,0,0,0,0,0,-8,3,235,-7,2,235,0,0,0,0,0,0,0,0,1075
11.834005117,0,-1,0,0,0,0,0,0,0,-7,3,235,-8,2,235,0,0,0,0,0,0,0,0,1076
11.844900131,0,-1,0,0,0,0,0,0,0,-7,3,235,-8,2,235,0,0,0,0,0,0,0,0,1077
11.855854034,0,-1,0,0,0,0,0,0,0,-7,2,235,-8,2,235,0,0,0,0,0,0,0,0,1078
11.866959095,0,-1,0,0,0,0,0,0,0,-7,2,235,-8,2,235,0,0,0,0,0,0,0,0,1079
11.877902031,0,-1,0,0,0,0,0,0,0,-7,2,234,-8,2,235,0,0,0,0,0,0,0,0,1080
11.889029979,0,-1,0,0,0,0,0,0,0,-7,2,234,-8,2,235,0,0,0,0,0,0,0,0,1081
11.900079012,0,-1,0,0,0,0,0,0,0,-8,2,234,-8,2,235,0,0,0,0,0,0,0,0,1082
11.910964012,0,-1,0,0,0,0,0,0,0,-8,2,234,-8,2,235,0,0,0,0,0,0,0,0,1083
11.92218399,0,-1,0,0,0,0,0,0,0,-9,3,234,-8,2,235,0,0,0,0,0,0,0,0,1084
11.933004141,0,-1,0,0,0,0,0,0,0,-9,3,234,-8,2,235,0,0,0,0,0,0,0,0,1085
11.944022178,0,-1,0,0,0,0,0,0,0,-8,3,234,-8,2,235,0,0,0,0,0,0,0,0,1086
11.954936027,0,-1,0,0,0,0,0,0,0,-8,3,234,-8,2,235,0,0,0,0,0,0,0,0,1087
11.96609497,0,-1,0,0,0,0,0,0,0,-8,2,235,-8,2,235,0,0,0,0,0,0,0,0,1088
11.976861,0,-1,0,0,0,0,0,0,0,-8,2,235,-8,2,235,0,0,0,0,0,0,0,0,1089
11.988093137,0,-1,0,0,0,0,0,0,0,-7,2,234,-8,2,235,0,0,0,0,0,0,0,0,1090
11.99896717,0,-1,0,0,0,0,0,0,0,-7,2,234,-8,2,235,0,0,0,0,0,0,0,0,1091
12.010052204,0,-1,0,0,0,0,0,0,0,-8,2,236,-8,2,235,0,0,0,0,0,0,0,0,1092
12.020930052,0,-1,0,0,0,0,0,0,0,-8,2,236,-8,2,235,0,0,0,0,0,0,0,0,1093
12.032086134,0,-1,0,0,0,0,0,0,0,-8,2,235,-8,2,235,0,0,0,0,0,0,0,0,1094
12.042864084,0,-1,0,0,0,0,0,0,0,-8,2,235,-8,2,235,0,0,0,0,0,0,0,0,1095
12.053848982,0,-1,0,0,0,0,0,0,0,-8,2,235,-8,2,235,0,0,0,0,0,0,0,0,1096
12.064895153,0,-1,0,0,0,0,0,0,0,-9,3,234,-8,2,235,0,0,0,0,0,0,0,0,1097
12.07626009,0,-1,0,0,0,0,0,0,0,-9,3,234,-8,2,235,0,0,0,0,0,0,0,0,1098
12.087011099,0,-1,0,0,0,0,0,0,0,-9,3,234,-8,2,235,0,0,0,0,0,0,0,0,1099
12.097936153,0,-1,0,0,0,0,0,0,0,-9,3,234,-8,2,234,0,0,0,0,0,0,0,0,1100
12.108921051,0,-1,0,0,0,0,0,0,0,-9,3,234,-8,2,234,0,0,0,0,0,0,0,0,1101
12.119923115,0,-1,0,0,0,0,0,0,0,-9,3,235,-8,2,234,0,0,0,0,0,0,0,0,1102
12.130880117,0,-1,0,0,0,0,0,0,0,-9,3,235,-8,2,234,0,0,0,0,0,0,0,0,1103
12.142129183,0,-1,0,0,0,0,0,0,0,-8,3,235,-8,2,234,0,0,0,0,0,0,0,0,1104
12.15300703,0,-1,0,0,0,0,0,0,0,-8,3,235,-8,2,234,0,0,0,0,0,0,0,0,1105
12.163953066,0,-1,0,0,0,0,0,0,0,-7,1,235,-8,2,235,0,0,0,0,0,0,0,0,1106
12.174916029,0,-1,0,0,0,0,0,0,0,-7,1,235,-8,2,235,0,0,0,0,0,0,0,0,1107
12.186034202,0,-1,0,0,0,0,0,0,0,-7,1,235,-8,2,235,0,0,0,0,0,0,0,0,1108
12.197116136,0,-1,0,0,0,0,0,0,0,-8,2,234,-8,2,235,0,0,0,0,0,0,0,0,1109
12.208449125,0,-1,0,0,0,0,0,0,0,-8,2,234,-8,2,235,0,0,0,0,0,0,0,0,1110
12.218852043,0,-1,0,0,0,0,0,0,0,-8,2,235,-8,2,235,0,0,0,0,0,0,0,0,1111
12.230096102,0,-1,0,0,0,0,0,0,0,-8,2,235,-8,2,235,0,0,0,0,0,0,0,0,1112
12.240900039,0,-1,0,0,0,0,0,0,0,-7,2,235,-9,2,235,0,0,0,0,0,0,0,0,1113
12.251991987,0,-1,0,0,0,0,0,0,0,-7,2,235,-9,2,235,0,0,0,0,0,0,0,0,1114
12.263040066,0,-1,0,0,0,0,0,0,0,-8,2,235,-9,3,235,0,0,0,0,0,0,0,0,1115
12.273993015,0,-1,0,0,0,0,0,0,0,-8,2,235,-9,3,235,0,0,0,0,0,0,0,0,1116
12.285073995,0,-1,0,0,0,0,0,0,0,-7,2,235,-8,2,235,0,0,0,0,0,0,0,0,1117
12.296010017,0,-1,0,0,0,0,0,0,0,-7,2,235,-8,2,235,0,0,0,0,0,0,0,0,1118
12.309878111,0,-1,0,0,0,0,0,0,0,-7,2,236,-8,2,235,0,0,0,0,0,0,0,0,1119
12.320901155,0,-1,0,0,0,0,0,0,0,-7,2,236,-8,2,235,0,0,0,0,0,0,0,0,1120
12.332015991,0,-1,0,0,0,0,0,0,0,-7,1,236,-8,2,235,0,0,0,0,0,0,0,0,1121
12.342954159,0,-1,0,0,0,0,0,0,0,-7,1,236,-8,2,235,0,0,0,0,0,0,0,0,1122
12.353928089,0,-1,0,0,0,0,0,0,0,-7,1,236,-8,2,235,0,0,0,0,0,0,0,0,1123
12.364892006,0,-1,0,0,0,0,0,0,0,-8,2,235,-8,2,235,0,0,0,0,0,0,0,0,1124
12.37600398,0,-1,0,0,0,0,0,0,0,-8,2,235,-8,2,235,0,0,0,0,0,0,0,0,1125
12.386918068,0,-1,0,0,0,0,0,0,0,-8,2,235,-8,2,235,0,0,0,0,0,0,0,0,1126
12.397933006,0,-1,0,0,0,0,0,0,0,-8,2,235,-8,2,235,0,0,0,0,0,0,0,0,1127
12.409037113,0,-1,0,0,0,0,0,0,0,-8,2,235,-8,2,235,0,0,0,0,0,0,0,0,1128
12.420201063,0,-1,0,0,0,0,0,0,0,-8,2,234,-7,2,235,0,0,0,0,0,0,0,0,1129
12.430835008,0,-1,0,0,0,0,0,0,0,-8,2,234,-7,2,235,0,0,0,0,0,0,0,0,1130
12.44196701,0,-1,0,0,0,0,0,0,0,-9,2,234,-7,2,235,0,0,0,0,0,0,0,0,1131
12.452891111,0,-1,0,0,0,0,0,0,0,-9,2,234,-7,2,235,0,0,0,0,0,0,0,0,1132
12.463992119,0,-1,0,0,0,0,0,0,0,-8,2,235,-7,2,235,0,0,0,0,0,0,0,0,1133
12.474867105,0,-1,0,0,0,0,0,0,0,-8,2,235,-7,2,235,0,0,0,0,0,0,0,0,1134
12.48606801,0,-1,0,0,0,0,0,0,0,-8,2,235,-7,2,235,0,0,0,0,0,0,0,0,1135
12.496309042,0,-1,0,0,0,0,0,0,0,-7,1,235,-7,2,235,0,0,0,0,0,0,0,0,1136
12.507021188,0,-1,0,0,0,0,0,0,0,-7,1,235,-7,2,235,0,0,0,0,0,0,0,0,1137
12.518079042,0,-1,0,0,0,0,0,0,0,-7,1,235,-7,2,235,0,0,0,0,0,0,0,0,1138
12.528941154,0,-1,0,0,0,0,0,0,0,-8,1,233,-7,2,235,0,0,0,0,0,0,0,0,1139
12.540069103,0,-1,0,0,0,0,0,0,0,-8,1,233,-7,2,235,0,0,0,0,0,0,0,0,1140
12.553390026,0,-1,0,0,0,0,0,0,0,-8,1,233,-8,2,235,0,0,0,0,0,0,0,0,1141
12.561954021,0,-1,0,0,0,0,0,0,0,-8,1,233,-8,2,235,0,0,0,0,0,0,0,0,1142
12.572968006,0,-1,0,0,0,0,0,0,0,-8,2,235,-8,2,235,0,0,0,0,0,0,0,0,1143
12.583934068,0,-1,0,0,0,0,0,0,0,-8,2,235,-8,2,235,0,0,0,0,0,0,0,0,1144
12.594949007,0,-1,0,0,0,0,0,0,0,-8,2,235,-8,2,235,0,0,0,0,0,0,0,0,1145
12.60603714,0,-1,0,0,0,0,0,0,0,-8,2,235,-8,2,235,0,0,0,0,0,0,0,0,1146
12.617061138,0,-1,0,0,0,0,0,0,0,-8,2,235,-8,2,235,0,0,0,0,0,0,0,0,1147
12.628046036,0,-1,0,0,0,0,0,0,0,-8,2,234,-8,2,235,0,0,0,0,0,0,0,0,1148
12.639022112,0,-1,0,0,0,0,0,0,0,-8,2,234,-8,2,235,0,0,0,0,0,0,0,0,1149
12.649919033,0,-1,0,0,0,0,0,0,0,-8,2,234,-8,2,235,0,0,0,0,0,0,0,0,1150
12.660969019,0,-1,0,0,0,0,0,0,0,-8,2,234,-8,2,235,0,0,0,0,0,0,0,0,1151
12.672399044,0,-1,0,0,0,0,0,0,0,-8,2,234,-8,2,235,0,0,0,0,0,0,0,0,1152
12.682991981,0,-1,0,0,0,0,0,0,0,-8,3,235,-8,2,234,0,0,0,0,0,0,0,0,1153
12.693955183,0,-1,0,0,0,0,0,0,0,-8,3,235,-8,2,234,0,0,0,0,0,0,0,0,1154
12.704871177,0,-1,0,0,0,0,0,0,0,-8,3,235,-8,2,234,0,0,0,0,0,0,0,0,1155
12.716027021,0,-1,0,0,0,0,0,0,0,-8,3,235,-8,2,234,0,0,0,0,0,0,0,0,1156
12.726953983,0,-1,0,0,0,0,0,0,0,-7,2,234,-8,2,234,0,0,0,0,0,0,0,0,1157
12.738023042,0,-1,0,0,0,0,0,0,0,-7,2,234,-8,2,234,0,0,0,0,0,0,0,0,1158
12.749078989,0,-1,0,0,0,0,0,0,0,-7,1,234,-8,2,234,0,0,0,0,0,0,0,0,1159
12.760250091,0,-1,0,0,0,0,0,0,0,-7,1,234,-8,2,234,0,0,0,0,0,0,0,0,1160
12.770879984,0,-1,0,0,0,0,0,0,0,-7,2,233,-8,2,234,0,0,0,0,0,0,0,0,1161
12.782059192,0,-1,0,0,0,0,0,0,0,-7,2,233,-8,2,234,0,0,0,0,0,0,0,0,1162
12.793236971,0,-1,0,0,0,0,0,0,0,-7,2,234,-8,2,235,0,0,0,0,0,0,0,0,1163
12.804273128,0,-1,0,0,0,0,0,0,0,-7,2,234,-8,2,235,0,0,0,0,0,0,0,0,1164
12.814926147,0,-1,0,0,0,0,0,0,0,-9,2,236,-8,2,235,0,0,0,0,0,0,0,0,1165
12.82605505,0,-1,0,0,0,0,0,0,0,-9,2,236,-8,2,235,0,0,0,0,0,0,0,0,1166
12.836858034,0,-1,0,0,0,0,0,0,0,-8,3,235,-8,2,235,0,0,0,0,0,0,0,0,1167
12.847903013,0,-1,0,0,0,0,0,0,0,-8,3,235,-8,2,235,0,0,0,0,0,0,0,0,1168
12.858922004,0,-1,0,0,0,0,0,0,0,-8,2,234,-8,2,235,0,0,0,0,0,0,0,0,1169
12.870050192,0,-1,0,0,0,0,0,0,0,-8,2,234,-8,2,235,0,0,0,0,0,0,0,0,1170
12.881016016,0,-1,0,0,0,0,0,0,0,-8,2,234,-8,2,235,0,0,0,0,0,0,0,0,1171
12.892177105,0,-1,0,0,0,0,0,0,0,-8,2,234,-8,2,235,0,0,0,0,0,0,0,0,1172
12.903939008,0,-1,0,0,0,0,0,0,0,-8,2,234,-8,2,235,0,0,0,0,0,0,0,0,1173
12.913938999,0,-1,0,0,0,0,0,0,0,-8,2,234,-8,2,235,0,0,0,0,0,0,0,0,1174
12.924949169,0,-1,0,0,0,0,0,0,0,-8,3,235,-8,2,235,0,0,0,0,0,0,0,0,1175
12.936017036,0,-1,0,0,0,0,0,0,0,-8,3,235,-8,2,235,0,0,0,0,0,0,0,0,1176
12.946990013,0,-1,0,0,0,0,0,0,0,-8,2,234,-8,2,235,0,0,0,0,0,0,0,0,1177
12.958334207,0,-1,0,0,0,0,0,0,0,-8,2,234,-8,2,235,0,0,0,0,0,0,0,0,1178
12.969073057,0,-1,0,0,0,0,0,0,0,-8,2,234,-8,2,235,0,0,0,0,0,0,0,0,1179
12.980157137,0,-1,0,0,0,0,0,0,0,-8,2,234,-8,2,235,0,0,0,0,0,0,0,0,1180
12.990914106,0,-1,0,0,0,0,0,0,0,-8,2,234,-8,2,235,0,0,0,0,0,0,0,0,1181
13.002367019,0,-1,0,0,0,0,0,0,0,-8,2,234,-8,2,235,0,0,0,0,0,0,0,0,1182
13.013303041,0,-1,0,0,0,0,0,0,0,-8,2,234,-8,2,235,0,0,0,0,0,0,0,0,1183
13.02386713,0,-1,0,0,0,0,0,0,0,-8,2,234,-8,2,235,0,0,0,0,0,0,0,0,1184
13.034880161,0,-1,0,0,0,0,0,0,0,-8,2,234,-8,2,235,0,0,0,0,0,0,0,0,1185
13.048183202,0,-1,0,0,0,0,0,0,0,-8,2,234,-8,2,235,0,0,0,0,0,0,0,0,1186
13.056925058,0,-1,0,0,0,0,0,0,0,-8,2,235,-8,2,235,0,0,0,0,0,0,0,0,1187
13.072299003,0,-1,0,0,0,0,0,0,0,-8,2,235,-8,2,235,0,0,0,0,0,0,0,0,1188
13.079116106,0,-1,0,0,0,0,0,0,0,-8,2,234,-8,2,235,0,0,0,0,0,0,0,0,1189
13.089914083,0,-1,0,0,0,0,0,0,0,-8,2,234,-8,2,235,0,0,0,0,0,0,0,0,1190
13.104470014,0,-1,0,0,0,0,0,0,0,-7,3,235,-8,2,234,0,0,0,0,0,0,0,0,1191
13.11357212,0,-1,0,0,0,0,0,0,0,-7,3,235,-8,2,234,0,0,0,0,0,0,0,0,1192
13.122910022,0,-1,0,0,0,0,0,0,0,-8,3,235,-8,2,234,0,0,0,0,0,0,0,0,1193
13.133944034,0,-1,0,0,0,0,0,0,0,-8,3,235,-8,2,234,0,0,0,0,0,0,0,0,1194
13.144951105,0,-1,0,0,0,0,0,0,0,-7,3,234,-8,2,234,0,0,0,0,0,0,0,0,1195
13.156010151,0,-1,0,0,0,0,0,0,0,-7,3,234,-8,2,234,0,0,0,0,0,0,0,0,1196
13.166931152,0,-1,0,0,0,0,0,0,0,-8,2,235,-8,2,234,0,0,0,0,0,0,0,0,1197
13.177935123,0,-1,0,0,0,0,0,0,0,-8,2,235,-8,2,234,0,0,0,0,0,0,0,0,1198
13.19159913,0,-1,0,0,0,0,0,0,0,-8,2,234,-8,2,234,0,0,0,0,0,0,0,0,1199
13.200080156,0,-1,0,0,0,0,0,0,0,-8,2,234,-8,2,234,0,0,0,0,0,0,0,0,1200
13.210916996,0,-1,0,0,0,0,0,0,0,-8,2,233,-8,2,234,0,0,0,0,0,0,0,0,1201
13.221899032,0,-1,0,0,0,0,0,0,0,-8,2,233,-8,2,234,0,0,0,0,0,0,0,0,1202
13.232937097,0,-1,0,0,0,0,0,0,0,-7,2,235,-8,2,235,0,0,0,0,0,0,0,0,1203
13.244028091,0,-1,0,0,0,0,0,0,0,-7,2,235,-8,2,235,0,0,0,0,0,0,0,0,1204
13.254933119,0,-1,0,0,0,0,0,0,0,-8,2,236,-8,2,235,0,0,0,0,0,0,0,0,1205
13.265986204,0,-1,0,0,0,0,0,0,0,-8,2,236,-8,2,235,0,0,0,0,0,0,0,0,1206
13.276995182,0,-1,0,0,0,0,0,0,0,-8,2,236,-8,2,235,0,0,0,0,0,0,0,0,1207
13.288119077,0,-1,0,0,0,0,0,0,0,-8,2,235,-8,2,235,0,0,0,0,0,0,0,0,1208
13.298869133,0,-1,0,0,0,0,0,0,0,-8,2,235,-8,2,235,0,0,0,0,0,0,0,0,1209
13.309960127,0,-1,0,0,0,0,0,0,0,-8,2,236,-8,2,235,0,0,0,0,0,0,0,0,1210
13.320933103,0,-1,0,0,0,0,0,0,0,-8,2,236,-8,2,235,0,0,0,0,0,0,0,0,1211
13.332018137,0,-1,0,0,0,0,0,0,0,-8,2,234,-8,2,235,0,0,0,0,0,0,0,0,1212
13.342867136,0,-1,0,0,0,0,0,0,0,-8,2,234,-8,2,235,0,0,0,0,0,0,0,0,1213
13.35387516,0,-1,0,0,0,0,0,0,0,-8,2,235,-8,2,235,0,0,0,0,0,0,0,0,1214
13.364876985,0,-1,0,0,0,0,0,0,0,-8,2,235,-8,2,235,0,0,0,0,0,0,0,0,1215
13.376088142,0,-1,0,0,0,0,0,0,0,-8,3,236,-8,2,235,0,0,0,0,0,0,0,0,1216
13.386888027,0,-1,0,0,0,0,0,0,0,-8,3,236,-8,2,235,0,0,0,0,0,0,0,0,1217
13.397857189,0,-1,0,0,0,0,0,0,0,-8,3,236,-8,2,235,0,0,0,0,0,0,0,0,1218
13.408816099,0,-1,0,0,0,0,0,0,0,-8,3,236,-8,2,235,0,0,0,0,0,0,0,0,1219
13.419862985,0,-1,0,0,0,0,0,0,0,-8,2,236,-8,2,235,0,0,0,0,0,0,0,0,1220
13.430890083,0,-1,0,0,0,0,0,0,0,-8,2,236,-8,2,235,0,0,0,0,0,0,0,0,1221
13.441972971,0,-1,0,0,0,0,0,0,0,-8,2,236,-8,2,235,0,0,0,0,0,0,0,0,1222
13.452918052,0,-1,0,0,0,0,0,0,0,-8,2,236,-8,2,235,0,0,0,0,0,0,0,0,1223
13.463957071,0,-1,0,0,0,0,0,0,0,-8,2,236,-8,2,235,0,0,0,0,0,0,0,0,1224
13.474012136,0,-1,0,0,0,0,0,0,0,-8,1,236,-8,2,235,0,0,0,0,0,0,0,0,1225
13.484943151,0,-1,0,0,0,0,0,0,0,-8,1,236,-8,2,235,0,0,0,0,0,0,0,0,1226
13.496144056,0,-1,0,0,0,0,0,0,0,-8,2,236,-8,2,235,0,0,0,0,0,0,0,0,1227
13.507522106,0,-1,0,0,0,0,0,0,0,-8,2,236,-8,2,235,0,0,0,0,0,0,0,0,1228
13.51811409,0,-1,0,0,0,0,0,0,0,-8,2,236,-8,2,235,0,0,0,0,0,0,0,0,1229
13.528853178,0,-1,0,0,0,0,0,0,0,-8,2,236,-8,2,235,0,0,0,0,0,0,0,0,1230
13.540038109,0,-1,0,0,0,0,0,0,0,-8,2,236,-8,2,235,0,0,0,0,0,0,0,0,1231
13.551046133,0,-1,0,0,0,0,0,0,0,-8,1,236,-8,2,236,0,0,0,0,0,0,0,0,1232
13.561939001,0,-1,0,0,0,0,0,0,0,-8,1,236,-8,2,236,0,0,0,0,0,0,0,0,1233
13.57291007,0,-1,0,0,0,0,0,0,0,-8,1,236,-8,2,236,0,0,0,0,0,0,0,0,1234
13.583990097,0,-1,0,0,0,0,0,0,0,-8,2,235,-8,2,236,0,0,0,0,0,0,0,0,1235
13.594985008,0,-1,0,0,0,0,0,0,0,-8,2,235,-8,2,236,0,0,0,0,0,0,0,0,1236
13.606110096,0,-1,0,0,0,0,0,0,0,-9,2,234,-8,2,236,0,0,0,0,0,0,0,0,1237
13.616933107,0,-1,0,0,0,0,0,0,0,-9,2,234,-8,2,236,0,0,0,0,0,0,0,0,1238
13.627998113,0,-1,0,0,0,0,0,0,0,-8,2,234,-8,2,236,0,0,0,0,0,0,0,0,1239
13.639055013,0,-1,0,0,0,0,0,0,0,-8,2,234,-8,2,236,0,0,0,0,0,0,0,0,1240
13.649923086,0,-1,0,0,0,0,0,0,0,-8,2,235,-8,2,236,0,0,0,0,0,0,0,0,1241
13.660958051,0,-1,0,0,0,0,0,0,0,-8,2,235,-8,2,236,0,0,0,0,0,0,0,0,1242
13.671979189,0,-1,0,0,0,0,0,0,0,-7,2,235,-8,2,236,0,0,0,0,0,0,0,0,1243
13.684432983,0,-1,0,0,0,0,0,0,0,-7,2,235,-8,2,236,0,0,0,0,0,0,0,0,1244
13.693903208,0,-1,0,0,0,0,0,0,0,-8,2,235,-8,2,236,0,0,0,0,0,0,0,0,1245
13.704922199,0,-1,0,0,0,0,0,0,0,-8,2,235,-8,2,236,0,0,0,0,0,0,0,0,1246
13.715964079,0,-1,0,0,0,0,0,0,0,-8,2,235,-8,2,236,0,0,0,0,0,0,0,0,1247
13.726920128,0,-1,0,0,0,0,0,0,0,-8,2,235,-8,2,235,0,0,0,0,0,0,0,0,1248
13.738059997,0,-1,0,0,0,0,0,0,0,-8,2,235,-8,2,235,0,0,0,0,0,0,0,0,1249
13.748847007,0,-1,0,0,0,0,0,0,0,-8,2,235,-8,2,235,0,0,0,0,0,0,0,0,1250
13.759945154,0,-1,0,0,0,0,0,0,0,-7,2,235,-8,2,235,0,0,0,0,0,0,0,0,1251
13.77088809,0,-1,0,0,0,0,0,0,0,-7,2,235,-8,2,235,0,0,0,0,0,0,0,0,1252
13.781934976,0,-1,0,0,0,0,0,0,0,-8,2,235,-8,2,235,0,0,0,0,0,0,0,0,1253
13.793137073,0,-1,0,0,0,0,0,0,0,-8,2,235,-8,2,235,0,0,0,0,0,0,0,0,1254
13.80420208,0,-1,0,0,0,0,0,0,0,-8,2,235,-8,2,235,0,0,0,0,0,0,0,0,1255
13.814918995,0,-1,0,0,0,0,0,0,0,-8,2,234,-8,2,235,0,0,0,0,0,0,0,0,1256
13.826053142,0,-1,0,0,0,0,0,0,0,-8,2,234,-8,2,235,0,0,0,0,0,0,0,0,1257
13.840535164,0,-1,0,0,0,0,0,0,0,-8,2,234,-8,2,235,0,0,0,0,0,0,0,0,1258
13.847980022,0,-1,0,0,0,0,0,0,0,-8,3,235,-8,2,235,0,0,0,0,0,0,0,0,1259
13.858978986,0,-1,0,0,0,0,0,0,0,-8,3,235,-8,2,235,0,0,0,0,0,0,0,0,1260
13.869937181,0,-1,0,0,0,0,0,0,0,-6,3,235,-8,2,234,0,0,0,0,0,0,0,0,1261
13.88088417,0,-1,0,0,0,0,0,0,0,-6,3,235,-8,2,234,0,0,0,0,0,0,0,0,1262
13.892114162,0,-1,0,0,0,0,0,0,0,-8,3,234,-8,2,235,0,0,0,0,0,0,0,0,1263
13.903309107,0,-1,0,0,0,0,0,0,0,-8,3,234,-8,2,235,0,0,0,0,0,0,0,0,1264
13.913911104,0,-1,0,0,0,0,0,0,0,-8,2,234,-7,2,235,0,0,0,0,0,0,0,0,1265
13.92508316,0,-1,0,0,0,0,0,0,0,-8,2,234,-7,2,235,0,0,0,0,0,0,0,0,1266
13.936073065,0,-1,0,0,0,0,0,0,0,-9,3,235,-7,2,235,0,0,0,0,0,0,0,0,1267
13.946916103,0,-1,0,0,0,0,0,0,0,-9,3,235,-7,2,235,0,0,0,0,0,0,0,0,1268
13.960325002,0,-1,0,0,0,0,0,0,0,-8,3,234,-7,2,235,0,0,0,0,0,0,0,0,1269
13.968801975,0,-1,0,0,0,0,0,0,0,-8,3,234,-7,2,235,0,0,0,0,0,0,0,0,1270
13.980034113,0,-1,0,0,0,0,0,0,0,-7,2,234,-7,3,235,0,0,0,0,0,0,0,0,1271
13.991105079,0,-1,0,0,0,0,0,0,0,-7,2,234,-7,3,235,0,0,0,0,0,0,0,0,1272
14.001934051,0,-1,0,0,0,0,0,0,0,-7,2,234,-7,3,235,0,0,0,0,0,0,0,0,1273
14.013012171,0,-1,0,0,0,0,0,0,0,-7,2,234,-7,3,235,0,0,0,0,0,0,0,0,1274
14.024008989,0,-1,0,0,0,0,0,0,0,-7,2,234,-7,3,235,0,0,0,0,0,0,0,0,1275
14.035004139,0,-1,0,0,0,0,0,0,0,-7,2,236,-8,3,235,0,0,0,0,0,0,0,0,1276
14.045900106,0,-1,0,0,0,0,0,0,0,-7,2,236,-8,3,235,0,0,0,0,0,0,0,0,1277
14.056963205,0,-1,0,0,0,0,0,0,0,-7,2,236,-8,3,235,0,0,0,0,0,0,0,0,1278
14.067886114,0,-1,0,0,0,0,0,0,0,-8,1,235,-8,3,235,0,0,0,0,0,0,0,0,1279
14.079096079,0,-1,0,0,0,0,0,0,0,-8,1,235,-8,3,235,0,0,0,0,0,0,0,0,1280
14.089993,0,-1,0,0,0,0,0,0,0,-8,2,234,-8,3,234,0,0,0,0,0,0,0,0,1281
14.100947141,0,-1,0,0,0,0,0,0,0,-8,2,234,-8,3,234,0,0,0,0,0,0,0,0,1282
14.111988067,0,-1,0,0,0,0,0,0,0,-8,2,234,-8,3,234,0,0,0,0,0,0,0,0,1283
14.122966051,0,-1,0,0,0,0,0,0,0,-8,2,234,-8,3,234,0,0,0,0,0,0,0,0,1284
14.133881092,0,-1,0,0,0,0,0,0,0,-7,2,235,-8,2,234,0,0,0,0,0,0,0,0,1285
14.144910097,0,-1,0,0,0,0,0,0,0,-7,2,235,-8,2,234,0,0,0,0,0,0,0,0,1286
14.155930996,0,-1,0,0,0,0,0,0,0,-7,2,235,-8,2,234,0,0,0,0,0,0,0,0,1287
14.166980982,0,-1,0,0,0,0,0,0,0,-7,2,234,-8,2,234,0,0,0,0,0,0,0,0,1288
14.177860975,0,-1,0,0,0,0,0,0,0,-7,2,234,-8,2,234,0,0,0,0,0,0,0,0,1289
14.188852072,0,-1,0,0,0,0,0,0,0,-7,2,234,-8,2,234,0,0,0,0,0,0,0,0,1290
14.199923992,0,-1,0,0,0,0,0,0,0,-7,2,236,-8,2,234,0,0,0,0,0,0,0,0,1291
14.210968017,0,-1,0,0,0,0,0,0,0,-7,2,236,-8,2,234,0,0,0,0,0,0,0,0,1292
14.221868992,0,-1,0,0,0,0,0,0,0,-8,2,235,-8,2,234,0,0,0,0,0,0,0,0,1293
14.232835054,0,-1,0,0,0,0,0,0,0,-8,2,235,-8,2,234,0,0,0,0,0,0,0,0,1294
14.244312048,0,-1,0,0,0,0,0,0,0,-7,2,236,-8,2,234,0,0,0,0,0,0,0,0,1295
14.254930019,0,-1,0,0,0,0,0,0,0,-7,2,236,-8,2,234,0,0,0,0,0,0,0,0,1296
14.265964031,0,-1,0,0,0,0,0,0,0,-8,2,235,-8,2,234,0,0,0,0,0,0,0,0,1297
14.276919126,0,-1,0,0,0,0,0,0,0,-8,2,235,-8,2,234,0,0,0,0,0,0,0,0,1298
14.287880182,0,-1,0,0,0,0,0,0,0,-8,2,235,-8,2,234,0,0,0,0,0,0,0,0,1299
14.299058199,0,-1,0,0,0,0,0,0,0,-8,2,234,-8,2,235,0,0,0,0,0,0,0,0,1300
14.309973001,0,-1,0,0,0,0,0,0,0,-8,2,234,-8,2,235,0,0,0,0,0,0,0,0,1301
14.320895195,0,-1,0,0,0,0,0,0,0,-8,2,234,-8,2,235,0,0,0,0,0,0,0,0,1302
14.332026005,0,-1,0,0,0,0,0,0,0,-8,2,235,-8,2,235,0,0,0,0,0,0,0,0,1303
14.3430202,0,-1,0,0,0,0,0,0,0,-8,2,235,-8,2,235,0,0,0,0,0,0,0,0,1304
14.356269121,0,-1,0,0,0,0,0,0,0,-9,2,236,-8,2,235,0,0,0,0,0,0,0,0,1305
14.365554094,0,-1,0,0,0,0,0,0,0,-9,2,236,-8,2,235,0,0,0,0,0,0,0,0,1306
14.375952005,0,-1,0,0,0,0,0,0,0,-8,2,235,-8,2,235,0,0,0,0,0,0,0,0,1307
14.386959076,0,-1,0,0,0,0,0,0,0,-8,2,235,-8,2,235,0,0,0,0,0,0,0,0,1308
14.39875412,0,-1,0,0,0,0,0,0,0,-7,2,235,-8,2,235,0,0,0,0,0,0,0,0,1309
14.408360004,0,-1,0,0,0,0,0,0,0,-7,2,235,-8,2,235,0,0,0,0,0,0,0,0,1310
14.418963194,0,-1,0,0,0,0,0,0,0,-7,2,234,-8,2,235,0,0,0,0,0,0,0,0,1311
14.430096149,0,-1,0,0,0,0,0,0,0,-7,2,234,-8,2,235,0,0,0,0,0,0,0,0,1312
14.440932989,0,-1,0,0,0,0,0,0,0,-7,3,235,-8,2,235,0,0,0,0,0,0,0,0,1313
14.452185154,0,-1,0,0,0,0,0,0,0,-7,3,235,-8,2,235,0,0,0,0,0,0,0,0,1314
14.462933063,0,-1,0,0,0,0,0,0,0,-8,2,236,-8,2,235,0,0,0,0,0,0,0,0,1315
14.47410798,0,-1,0,0,0,0,0,0,0,-8,2,236,-8,2,235,0,0,0,0,0,0,0,0,1316
14.484965086,0,-1,0,0,0,0,0,0,0,-8,2,235,-8,2,235,0,0,0,0,0,0,0,0,1317
14.495910167,0,-1,0,0,0,0,0,0,0,-8,2,235,-8,2,235,0,0,0,0,0,0,0,0,1318
14.507100105,0,-1,0,0,0,0,0,0,0,-9,2,235,-8,2,235,0,0,0,0,0,0,0,0,1319
14.517996073,0,-1,0,0,0,0,0,0,0,-9,2,235,-8,2,235,0,0,0,0,0,0,0,0,1320
14.529175997,0,-1,0,0,0,0,0,0,0,-8,2,236,-8,2,235,0,0,0,0,0,0,0,0,1321
14.538973093,0,-1,0,0,0,0,0,0,0,-8,2,236,-8,2,235,0,0,0,0,0,0,0,0,1322
14.549862146,0,-1,0,0,0,0,0,0,0,-8,4,235,-8,2,235,0,0,0,0,0,0,0,0,1323
14.561055183,0,-1,0,0,0,0,0,0,0,-8,4,235,-8,2,235,0,0,0,0,0,0,0,0,1324
14.572014093,0,-1,0,0,0,0,0,0,0,-8,3,235,-8,2,235,0,0,0,0,0,0,0,0,1325
14.584428072,0,-1,0,0,0,0,0,0,0,-8,3,235,-8,2,235,0,0,0,0,0,0,0,0,1326
14.594043016,0,-1,0,0,0,0,0,0,0,-8,2,234,-8,2,235,0,0,0,0,0,0,0,0,1327
14.607359171,0,-1,0,0,0,0,0,0,0,-8,2,234,-8,2,235,0,0,0,0,0,0,0,0,1328
14.615918159,0,-1,0,0,0,0,0,0,0,-8,2,235,-8,2,235,0,0,0,0,0,0,0,0,1329
14.627048015,0,-1,0,0,0,0,0,0,0,-8,2,235,-8,2,235,0,0,0,0,0,0,0,0,1330
14.637937069,0,-1,0,0,0,0,0,0,0,-7,3,235,-8,2,235,0,0,0,0,0,0,0,0,1331
14.648883104,0,-1,0,0,0,0,0,0,0,-7,3,235,-8,2,235,0,0,0,0,0,0,0,0,1332
14.660018205,0,-1,0,0,0,0,0,0,0,-7,3,235,-8,2,235,0,0,0,0,0,0,0,0,1333
14.671060085,0,-1,0,0,0,0,0,0,0,-7,3,235,-8,2,235,0,0,0,0,0,0,0,0,1334
14.68208003,0,-1,0,0,0,0,0,0,0,-7,4,235,-8,2,235,0,0,0,0,0,0,0,0,1335
14.693088054,0,-1,0,0,0,0,0,0,0,-7,4,235,-8,2,235,0,0,0,0,0,0,0,0,1336
14.704032182,0,-1,0,0,0,0,0,0,0,-9,3,235,-8,2,235,0,0,0,0,0,0,0,0,1337
14.715156078,0,-1,0,0,0,0,0,0,0,-9,3,235,-8,2,235,0,0,0,0,0,0,0,0,1338
14.728242159,0,-1,0,0,0,0,0,0,0,-9,2,235,-8,2,235,0,0,0,0,0,0,0,0,1339
14.736916065,0,-1,0,0,0,0,0,0,0,-9,2,235,-8,2,235,0,0,0,0,0,0,0,0,1340
14.747955084,0,-1,0,0,0,0,0,0,0,-8,3,234,-8,3,235,0,0,0,0,0,0,0,0,1341
14.758869171,0,-1,0,0,0,0,0,0,0,-8,3,234,-8,3,235,0,0,0,0,0,0,0,0,1342
14.769896984,0,-1,0,0,0,0,0,0,0,-8,3,234,-8,3,235,0,0,0,0,0,0,0,0,1343
14.780945062,0,-1,0,0,0,0,0,0,0,-8,3,234,-8,3,235,0,0,0,0,0,0,0,0,1344
14.792038202,0,-1,0,0,0,0,0,0,0,-8,3,234,-8,3,235,0,0,0,0,0,0,0,0,1345
14.803040027,0,-1,0,0,0,0,0,0,0,-8,2,234,-8,3,235,0,0,0,0,0,0,0,0,1346
14.814577102,0,-1,0,0,0,0,0,0,0,-8,2,234,-8,3,235,0,0,0,0,0,0,0,0,1347
14.824908972,0,-1,0,0,0,0,0,0,0,-8,2,233,-8,3,235,0,0,0,0,0,0,0,0,1348
14.83614707,0,-1,0,0,0,0,0,0,0,-8,2,233,-8,3,235,0,0,0,0,0,0,0,0,1349
14.848213196,0,-1,0,0,0,0,0,0,0,-8,2,233,-8,3,235,0,0,0,0,0,0,0,0,1350
14.857882023,0,-1,0,0,0,0,0,0,0,-8,2,234,-8,3,235,0,0,0,0,0,0,0,0,1351
14.869064092,0,-1,0,0,0,0,0,0,0,-8,2,234,-8,3,235,0,0,0,0,0,0,0,0,1352
14.87987113,0,-1,0,0,0,0,0,0,0,-8,2,235,-8,3,235,0,0,0,0,0,0,0,0,1353
14.890886068,0,-1,0,0,0,0,0,0,0,-8,2,235,-8,3,235,0,0,0,0,0,0,0,0,1354
14.902127027,0,-1,0,0,0,0,0,0,0,-8,2,235,-8,3,235,0,0,0,0,0,0,0,0,1355
14.912880182,0,-1,0,0,0,0,0,0,0,-9,3,236,-8,3,235,0,0,0,0,0,0,0,0,1356
14.923928976,0,-1,0,0,0,0,0,0,0,-9,3,236,-8,3,235,0,0,0,0,0,0,0,0,1357
14.934984207,0,-1,0,0,0,0,0,0,0,-9,3,234,-8,2,234,0,0,0,0,0,0,0,0,1358
14.946044206,0,-1,0,0,0,0,0,0,0,-9,3,234,-8,2,234,0,0,0,0,0,0,0,0,1359
14.956861019,0,-1,0,0,0,0,0,0,0,-8,2,234,-8,2,234,0,0,0,0,0,0,0,0,1360
14.972790003,0,-1,0,0,0,0,0,0,0,-8,2,234,-8,2,234,0,0,0,0,0,0,0,0,1361
14.979058981,0,-1,0,0,0,0,0,0,0,-8,2,234,-8,2,234,0,0,0,0,0,0,0,0,1362
14.990079164,0,-1,0,0,0,0,0,0,0,-8,2,234,-8,2,234,0,0,0,0,0,0,0,0,1363
15.001011133,0,-1,0,0,0,0,0,0,0,-8,2,234,-8,2,234,0,0,0,0,0,0,0,0,1364
15.011864185,0,-1,0,0,0,0,0,0,0,-8,2,234,-8,2,234,0,0,0,0,0,0,0,0,1365
15.02289319,0,-1,0,0,0,0,0,0,0,-8,2,234,-8,2,234,0,0,0,0,0,0,0,0,1366
15.036276102,0,-1,0,0,0,0,0,0,0,-8,2,234,-8,2,234,0,0,0,0,0,0,0,0,1367
15.044952154,0,-1,0,0,0,0,0,0,0,-9,2,234,-8,2,234,0,0,0,0,0,0,0,0,1368
15.05598998,0,-1,0,0,0,0,0,0,0,-9,2,234,-8,2,234,0,0,0,0,0,0,0,0,1369
15.066956997,0,-1,0,0,0,0,0,0,0,-9,2,235,-8,2,234,0,0,0,0,0,0,0,0,1370
15.077934026,0,-1,0,0,0,0,0,0,0,-9,2,235,-8,2,234,0,0,0,0,0,0,0,0,1371
15.088955164,0,-1,0,0,0,0,0,0,0,-8,2,235,-8,2,234,0,0,0,0,0,0,0,0,1372
15.100418091,0,-1,0,0,0,0,0,0,0,-8,2,235,-8,2,234,0,0,0,0,0,0,0,0,1373
15.110907078,0,-1,0,0,0,0,0,0,0,-8,2,235,-8,2,234,0,0,0,0,0,0,0,0,1374
15.121914148,0,-1,0,0,0,0,0,0,0,-7,2,235,-8,2,234,0,0,0,0,0,0,0,0,1375
15.132958173,0,-1,0,0,0,0,0,0,0,-7,2,235,-8,2,234,0,0,0,0,0,0,0,0,1376
15.14388299,0,-1,0,0,0,0,0,0,0,-8,2,236,-8,2,234,0,0,0,0,0,0,0,0,1377
15.154986143,0,-1,0,0,0,0,0,0,0,-8,2,236,-8,2,234,0,0,0,0,0,0,0,0,1378
15.165877104,0,-1,0,0,0,0,0,0,0,-8,2,236,-8,2,234,0,0,0,0,0,0,0,0,1379
15.176963091,0,-1,0,0,0,0,0,0,0,-8,3,234,-8,2,234,0,0,0,0,0,0,0,0,1380
15.18804717,0,-1,0,0,0,0,0,0,0,-8,3,234,-8,2,234,0,0,0,0,0,0,0,0,1381
15.199118137,0,-1,0,0,0,0,0,0,0,-8,2,233,-8,2,235,0,0,0,0,0,0,0,0,1382
15.209941149,0,-1,0,0,0,0,0,0,0,-8,2,233,-8,2,235,0,0,0,0,0,0,0,0,1383
15.220947981,0,-1,0,0,0,0,0,0,0,-8,3,234,-8,2,235,0,0,0,0,0,0,0,0,1384
15.231984138,0,-1,0,0,0,0,0,0,0,-8,3,234,-8,2,235,0,0,0,0,0,0,0,0,1385
15.247881174,0,-1,0,0,0,0,0,0,0,-8,3,234,-8,2,235,0,0,0,0,0,0,0,0,1386
15.255247116,0,-1,0,0,0,0,0,0,0,-9,2,234,-8,2,235,0,0,0,0,0,0,0,0,1387
15.264902115,0,-1,0,0,0,0,0,0,0,-9,2,234,-8,2,235,0,0,0,0,0,0,0,0,1388
15.27602005,0,-1,0,0,0,0,0,0,0,-9,3,235,-8,2,235,0,0,0,0,0,0,0,0,1389
15.286936998,0,-1,0,0,0,0,0,0,0,-9,3,235,-8,2,235,0,0,0,0,0,0,0,0,1390
15.29798603,0,-1,0,0,0,0,0,0,0,-8,2,234,-8,2,235,0,0,0,0,0,0,0,0,1391
15.309297085,0,-1,0,0,0,0,0,0,0,-8,2,234,-8,2,235,0,0,0,0,0,0,0,0,1392
15.319953203,0,-1,0,0,0,0,0,0,0,-8,2,234,-8,2,235,0,0,0,0,0,0,0,0,1393
15.330977201,0,-1,0,0,0,0,0,0,0,-8,3,234,-8,2,235,0,0,0,0,0,0,0,0,1394
15.342028141,0,-1,0,0,0,0,0,0,0,-8,3,234,-8,2,235,0,0,0,0,0,0,0,0,1395
15.352869987,0,-1,0,0,0,0,0,0,0,-7,2,236,-8,2,235,0,0,0,0,0,0,0,0,1396
15.36385107,0,-1,0,0,0,0,0,0,0,-7,2,236,-8,2,235,0,0,0,0,0,0,0,0,1397
15.375019073,0,-1,0,0,0,0,0,0,0,-7,2,236,-8,2,235,0,0,0,0,0,0,0,0,1398
15.385892153,0,-1,0,0,0,0,0,0,0,-8,2,236,-8,2,235,0,0,0,0,0,0,0,0,1399
15.399724006,0,-1,0,0,0,0,0,0,0,-8,2,236,-8,2,235,0,0,0,0,0,0,0,0,1400
15.408012151,0,-1,0,0,0,0,0,0,0,-7,3,236,-8,2,234,0,0,0,0,0,0,0,0,1401
15.418946981,0,-1,0,0,0,0,0,0,0,-7,3,236,-8,2,234,0,0,0,0,0,0,0,0,1402
15.430912971,0,-1,0,0,0,0,0,0,0,-8,2,235,-8,2,234,0,0,0,0,0,0,0,0,1403
15.440792083,0,-1,0,0,0,0,0,0,0,-8,2,235,-8,2,234,0,0,0,0,0,0,0,0,1404
15.450868129,0,-1,0,0,0,0,0,0,0,-8,2,235,-8,2,234,0,0,0,0,0,0,0,0,1405
15.462012052,0,-1,0,0,0,0,0,0,0,-9,2,235,-8,2,235,0,0,0,0,0,0,0,0,1406
15.472993135,0,-1,0,0,0,0,0,0,0,-9,2,235,-8,2,235,0,0,0,0,0,0,0,0,1407
15.484002113,0,-1,0,0,0,0,0,0,0,-9,2,236,-8,2,235,0,0,0,0,0,0,0,0,1408
15.494944095,0,-1,0,0,0,0,0,0,0,-9,2,236,-8,2,235,0,0,0,0,0,0,0,0,1409
15.508970976,0,-1,0,0,0,0,0,0,0,-8,2,235,-8,2,235,0,0,0,0,0,0,0,0,1410
15.516976118,0,-1,0,0,0,0,0,0,0,-8,2,235,-8,2,235,0,0,0,0,0,0,0,0,1411
15.527954101,0,-1,0,0,0,0,0,0,0,-8,2,235,-8,2,235,0,0,0,0,0,0,0,0,1412
15.538928985,0,-1,0,0,0,0,0,0,0,-7,2,234,-8,2,235,0,0,0,0,0,0,0,0,1413
15.55014205,0,-1,0,0,0,0,0,0,0,-7,2,234,-8,2,235,0,0,0,0,0,0,0,0,1414
15.561304092,0,-1,0,0,0,0,0,0,0,-7,1,235,-8,2,235,0,0,0,0,0,0,0,0,1415
15.572113991,0,-1,0,0,0,0,0,0,0,-7,1,235,-8,2,235,0,0,0,0,0,0,0,0,1416
15.582909107,0,-1,0,0,0,0,0,0,0,-7,1,236,-8,2,236,0,0,0,0,0,0,0,0,1417
15.593878984,0,-1,0,0,0,0,0,0,0,-7,1,236,-8,2,236,0,0,0,0,0,0,0,0,1418
15.604999065,0,-1,0,0,0,0,0,0,0,-7,1,236,-8,2,236,0,0,0,0,0,0,0,0,1419
15.616533994,0,-1,0,0,0,0,0,0,0,-8,1,235,-8,2,236,0,0,0,0,0,0,0,0,1420
15.627177,0,-1,0,0,0,0,0,0,0,-8,1,235,-8,2,236,0,0,0,0,0,0,0,0,1421
15.639034986,0,-1,0,0,0,0,0,0,0,-8,1,235,-8,2,236,0,0,0,0,0,0,0,0,1422
15.648924112,0,-1,0,0,0,0,0,0,0,-7,2,235,-8,2,236,0,0,0,0,0,0,0,0,1423
15.660008192,0,-1,0,0,0,0,0,0,0,-7,2,235,-8,2,236,0,0,0,0,0,0,0,0,1424
15.672633171,0,-1,0,0,0,0,0,0,0,-8,2,234,-8,2,235,0,0,0,0,0,0,0,0,1425
15.681882143,0,-1,0,0,0,0,0,0,0,-8,2,234,-8,2,235,0,0,0,0,0,0,0,0,1426
15.692932129,0,-1,0,0,0,0,0,0,0,-8,2,235,-8,2,235,0,0,0,0,0,0,0,0,1427
15.70412302,0,-1,0,0,0,0,0,0,0,-8,2,235,-8,2,235,0,0,0,0,0,0,0,0,1428
15.71489501,0,-1,0,0,0,0,0,0,0,-7,2,235,-8,2,235,0,0,0,0,0,0,0,0,1429
15.725892067,0,-1,0,0,0,0,0,0,0,-7,2,235,-8,2,235,0,0,0,0,0,0,0,0,1430
15.740185976,0,-1,0,0,0,0,0,0,0,-8,3,234,-7,2,235,0,0,0,0,0,0,0,0,1431
15.747876167,0,-1,0,0,0,0,0,0,0,-8,3,234,-7,2,235,0,0,0,0,0,0,0,0,1432
15.759000063,0,-1,0,0,0,0,0,0,0,-8,2,234,-7,1,235,0,0,0,0,0,0,0,0,1433
15.772421121,0,-1,0,0,0,0,0,0,0,-8,2,234,-7,1,235,0,0,0,0,0,0,0,0,1434
15.781118154,0,-1,0,0,0,0,0,0,0,-8,2,235,-7,1,235,0,0,0,0,0,0,0,0,1435
15.791990041,0,-1,0,0,0,0,0,0,0,-8,2,235,-7,1,235,0,0,0,0,0,0,0,0,1436
15.804155111,0,-1,0,0,0,0,0,0,0,-8,3,235,-7,2,235,0,0,0,0,0,0,0,0,1437
15.813844204,0,-1,0,0,0,0,0,0,0,-8,3,235,-7,2,235,0,0,0,0,0,0,0,0,1438
15.824978113,0,-1,0,0,0,0,0,0,0,-8,2,235,-7,2,235,0,0,0,0,0,0,0,0,1439
15.836068153,0,-1,0,0,0,0,0,0,0,-8,2,235,-7,2,235,0,0,0,0,0,0,0,0,1440
15.847007036,0,-1,0,0,0,0,0,0,0,-8,2,234,-7,2,235,0,0,0,0,0,0,0,0,1441
15.858014106,0,-1,0,0,0,0,0,0,0,-8,2,234,-7,2,235,0,0,0,0,0,0,0,0,1442
15.868952036,0,-1,0,0,0,0,0,0,0,-8,2,233,-8,2,235,0,0,0,0,0,0,0,0,1443
15.88035798,0,-1,0,0,0,0,0,0,0,-8,2,233,-8,2,235,0,0,0,0,0,0,0,0,1444
15.890942096,0,-1,0,0,0,0,0,0,0,-7,2,233,-8,2,235,0,0,0,0,0,0,0,0,1445
15.902043104,0,-1,0,0,0,0,0,0,0,-7,2,233,-8,2,235,0,0,0,0,0,0,0,0,1446
15.913022995,0,-1,0,0,0,0,0,0,0,-8,2,235,-8,2,235,0,0,0,0,0,0,0,0,1447
15.923943043,0,-1,0,0,0,0,0,0,0,-8,2,235,-8,2,235,0,0,0,0,0,0,0,0,1448
15.935578108,0,-1,0,0,0,0,0,0,0,-9,2,234,-8,2,235,0,0,0,0,0,0,0,0,1449
15.945858001,0,-1,0,0,0,0,0,0,0,-9,2,234,-8,2,235,0,0,0,0,0,0,0,0,1450
15.956957102,0,-1,0,0,0,0,0,0,0,-9,1,235,-8,2,235,0,0,0,0,0,0,0,0,1451
15.967950105,0,-1,0,0,0,0,0,0,0,-9,1,235,-8,2,235,0,0,0,0,0,0,0,0,1452
15.978878021,0,-1,0,0,0,0,0,0,0,-9,2,236,-8,2,235,0,0,0,0,0,0,0,0,1453
15.989912987,0,-1,0,0,0,0,0,0,0,-9,2,236,-8,2,235,0,0,0,0,0,0,0,0,1454
16.00092411,0,-1,0,0,0,0,0,0,0,-8,2,235,-8,2,235,0,0,0,0,0,0,0,0,1455
16.012003183,0,-1,0,0,0,0,0,0,0,-8,2,235,-8,2,235,0,0,0,0,0,0,0,0,1456
16.022998094,0,-1,0,0,0,0,0,0,0,-8,2,235,-8,2,234,0,0,0,0,0,0,0,0,1457
16.034027099,0,-1,0,0,0,0,0,0,0,-8,2,235,-8,2,234,0,0,0,0,0,0,0,0,1458
16.044869184,0,-1,0,0,0,0,0,0,0,-8,3,234,-8,2,234,0,0,0,0,0,0,0,0,1459
16.055868149,0,-1,0,0,0,0,0,0,0,-8,3,234,-8,2,234,0,0,0,0,0,0,0,0,1460
16.066898107,0,-1,0,0,0,0,0,0,0,-9,3,234,-8,2,234,0,0,0,0,0,0,0,0,1461
16.077915191,0,-1,0,0,0,0,0,0,0,-9,3,234,-8,2,234,0,0,0,0,0,0,0,0,1462
16.089024067,0,-1,0,0,0,0,0,0,0,-9,2,234,-8,2,235,0,0,0,0,0,0,0,0,1463
16.100275039,0,-1,0,0,0,0,0,0,0,-9,2,234,-8,2,235,0,0,0,0,0,0,0,0,1464
16.110978126,0,-1,0,0,0,0,0,0,0,-9,2,234,-8,2,235,0,0,0,0,0,0,0,0,1465
16.121879101,0,-1,0,0,0,0,0,0,0,-9,2,234,-8,2,235,0,0,0,0,0,0,0,0,1466
16.132997036,0,-1,0,0,0,0,0,0,0,-8,1,236,-8,2,235,0,0,0,0,0,0,0,0,1467
16.144183159,0,-1,0,0,0,0,0,0,0,-8,1,236,-8,2,235,0,0,0,0,0,0,0,0,1468
16.155099153,0,-1,0,0,0,0,0,0,0,-8,1,236,-8,2,235,0,0,0,0,0,0,0,0,1469
16.166031122,0,-1,0,0,0,0,0,0,0,-8,1,236,-8,2,235,0,0,0,0,0,0,0,0,1470
16.176970005,0,-1,0,0,0,0,0,0,0,-8,1,236,-8,2,235,0,0,0,0,0,0,0,0,1471
16.187972069,0,-1,0,0,0,0,0,0,0,-8,3,235,-8,2,235,0,0,0,0,0,0,0,0,1472
16.198961973,0,-1,0,0,0,0,0,0,0,-8,3,235,-8,2,235,0,0,0,0,0,0,0,0,1473
16.210178137,0,-1,0,0,0,0,0,0,0,-8,3,235,-8,2,235,0,0,0,0,0,0,0,0,1474
16.220978021,0,-1,0,0,0,0,0,0,0,-8,2,234,-8,2,235,0,0,0,0,0,0,0,0,1475
16.232290029,0,-1,0,0,0,0,0,0,0,-8,2,234,-8,2,235,0,0,0,0,0,0,0,0,1476
16.242818117,0,-1,0,0,0,0,0,0,0,-8,2,234,-8,2,235,0,0,0,0,0,0,0,0,1477
16.253991127,0,-1,0,0,0,0,0,0,0,-8,2,234,-8,2,235,0,0,0,0,0,0,0,0,1478
16.265022993,0,-1,0,0,0,0,0,0,0,-8,3,235,-8,2,235,0,0,0,0,0,0,0,0,1479
16.276024103,0,-1,0,0,0,0,0,0,0,-8,3,235,-8,2,235,0,0,0,0,0,0,0,0,1480
16.286880016,0,-1,0,0,0,0,0,0,0,-8,2,235,-8,2,235,0,0,0,0,0,0,0,0,1481
16.297996998,0,-1,0,0,0,0,0,0,0,-8,2,235,-8,2,235,0,0,0,0,0,0,0,0,1482
16.309065103,0,-1,0,0,0,0,0,0,0,-8,2,235,-8,2,235,0,0,0,0,0,0,0,0,1483
16.320021152,0,-1,0,0,0,0,0,0,0,-8,3,235,-8,2,235,0,0,0,0,0,0,0,0,1484
16.330957174,0,-1,0,0,0,0,0,0,0,-8,3,235,-8,2,235,0,0,0,0,0,0,0,0,1485
16.344191074,0,-1,0,0,0,0,0,0,0,-8,2,236,-8,2,235,0,0,0,0,0,0,0,0,1486
16.353055,0,-1,0,0,0,0,0,0,0,-8,2,236,-8,2,235,0,0,0,0,0,0,0,0,1487
16.363877058,0,-1,0,0,0,0,0,0,0,-7,3,235,-8,2,235,0,0,0,0,0,0,0,0,1488
16.375,0,-1,0,0,0,0,0,0,0,-7,3,235,-8,2,235,0,0,0,0,0,0,0,0,1489
16.385970115,0,-1,0,0,0,0,0,0,0,-7,3,235,-8,2,235,0,0,0,0,0,0,0,0,1490
16.397015095,0,-1,0,0,0,0,0,0,0,-9,3,234,-8,2,235,0,0,0,0,0,0,0,0,1491
16.407941103,0,-1,0,0,0,0,0,0,0,-9,3,234,-8,2,235,0,0,0,0,0,0,0,0,1492
16.418869972,0,-1,0,0,0,0,0,0,0,-9,2,234,-8,2,235,0,0,0,0,0,0,0,0,1493
16.429913044,0,-1,0,0,0,0,0,0,0,-9,2,234,-8,2,235,0,0,0,0,0,0,0,0,1494
16.440314054,0,-1,0,0,0,0,0,0,0,-8,2,234,-8,2,235,0,0,0,0,0,0,0,0,1495
16.45088315,0,-1,0,0,0,0,0,0,0,-8,2,234,-8,2,235,0,0,0,0,0,0,0,0,1496
16.462004184,0,-1,0,0,0,0,0,0,0,-9,2,234,-8,2,235,0,0,0,0,0,0,0,0,1497
16.473037004,0,-1,0,0,0,0,0,0,0,-9,2,234,-8,2,235,0,0,0,0,0,0,0,0,1498
16.483963012,0,-1,0,0,0,0,0,0,0,-8,2,234,-8,3,235,0,0,0,0,0,0,0,0,1499
16.495077133,0,-1,0,0,0,0,0,0,0,-8,2,234,-8,3,235,0,0,0,0,0,0,0,0,1500
16.507055998,0,-1,0,0,0,0,0,0,0,-8,2,234,-8,3,235,0,0,0,0,0,0,0,0,1501
16.516954183,0,-1,0,0,0,0,0,0,0,-8,2,234,-8,3,235,0,0,0,0,0,0,0,0,1502
16.527881145,0,-1,0,0,0,0,0,0,0,-8,2,234,-8,3,235,0,0,0,0,0,0,0,0,1503
16.53896904,0,-1,0,0,0,0,0,0,0,-8,2,234,-8,3,235,0,0,0,0,0,0,0,0,1504
16.549895048,0,-1,0,0,0,0,0,0,0,-9,3,235,-8,3,234,0,0,0,0,0,0,0,0,1505
16.560885191,0,-1,0,0,0,0,0,0,0,-9,3,235,-8,3,234,0,0,0,0,0,0,0,0,1506
16.571992159,0,-1,0,0,0,0,0,0,0,-9,3,235,-8,3,234,0,0,0,0,0,0,0,0,1507
16.583152055,0,-1,0,0,0,0,0,0,0,-7,3,235,-8,3,234,0,0,0,0,0,0,0,0,1508
16.594001055,0,-1,0,0,0,0,0,0,0,-7,3,235,-8,3,234,0,0,0,0,0,0,0,0,1509
16.607995033,0,-1,0,0,0,0,0,0,0,-8,2,236,-8,2,234,0,0,0,0,0,0,0,0,1510
16.61891818,0,-1,0,0,0,0,0,0,0,-8,2,236,-8,2,234,0,0,0,0,0,0,0,0,1511
16.630004167,0,-1,0,0,0,0,0,0,0,-9,2,235,-8,2,234,0,0,0,0,0,0,0,0,1512
16.640847206,0,-1,0,0,0,0,0,0,0,-9,2,235,-8,2,234,0,0,0,0,0,0,0,0,1513
16.651880026,0,-1,0,0,0,0,0,0,0,-9,2,235,-8,2,234,0,0,0,0,0,0,0,0,1514
16.662873029,0,-1,0,0,0,0,0,0,0,-7,2,235,-8,2,234,0,0,0,0,0,0,0,0,1515
16.673892021,0,-1,0,0,0,0,0,0,0,-7,2,235,-8,2,234,0,0,0,0,0,0,0,0,1516
16.686966181,0,-1,0,0,0,0,0,0,0,-9,2,234,-8,2,234,0,0,0,0,0,0,0,0,1517
16.698019027,0,-1,0,0,0,0,0,0,0,-9,2,234,-8,2,234,0,0,0,0,0,0,0,0,1518
16.708986044,0,-1,0,0,0,0,0,0,0,-8,2,234,-8,2,234,0,0,0,0,0,0,0,0,1519
16.720015049,0,-1,0,0,0,0,0,0,0,-8,2,234,-8,2,234,0,0,0,0,0,0,0,0,1520
16.730952978,0,-1,0,0,0,0,0,0,0,-8,2,234,-8,2,235,0,0,0,0,0,0,0,0,1521
16.741882086,0,-1,0,0,0,0,0,0,0,-8,2,234,-8,2,235,0,0,0,0,0,0,0,0,1522
16.752932071,0,-1,0,0,0,0,0,0,0,-8,2,233,-8,2,235,0,0,0,0,0,0,0,0,1523
16.763924122,0,-1,0,0,0,0,0,0,0,-8,2,233,-8,2,235,0,0,0,0,0,0,0,0,1524
16.774911165,0,-1,0,0,0,0,0,0,0,-8,2,235,-8,2,235,0,0,0,0,0,0,0,0,1525
16.785969019,0,-1,0,0,0,0,0,0,0,-8,2,235,-8,2,235,0,0,0,0,0,0,0,0,1526
16.796972036,0,-1,0,0,0,0,0,0,0,-8,1,234,-8,2,235,0,0,0,0,0,0,0,0,1527
16.808202028,0,-1,0,0,0,0,0,0,0,-8,1,234,-8,2,235,0,0,0,0,0,0,0,0,1528
16.818956136,0,-1,0,0,0,0,0,0,0,-8,2,235,-8,2,235,0,0,0,0,0,0,0,0,1529
16.829964161,0,-1,0,0,0,0,0,0,0,-8,2,235,-8,2,235,0,0,0,0,0,0,0,0,1530
16.840923071,0,-1,0,0,0,0,0,0,0,-8,3,234,-8,2,235,0,0,0,0,0,0,0,0,1531
16.851869106,0,-1,0,0,0,0,0,0,0,-8,3,234,-8,2,235,0,0,0,0,0,0,0,0,1532
16.863126039,0,-1,0,0,0,0,0,0,0,-8,3,234,-8,2,235,0,0,0,0,0,0,0,0,1533
16.875298977,0,-1,0,0,0,0,0,0,0,-8,2,235,-8,2,235,0,0,0,0,0,0,0,0,1534
16.884881973,0,-1,0,0,0,0,0,0,0,-8,2,235,-8,2,235,0,0,0,0,0,0,0,0,1535
16.895973205,0,-1,0,0,0,0,0,0,0,-8,2,235,-8,2,235,0,0,0,0,0,0,0,0,1536
16.906985998,0,-1,0,0,0,0,0,0,0,-7,2,235,-8,2,234,0,0,0,0,0,0,0,0,1537
16.917896986,0,-1,0,0,0,0,0,0,0,-7,2,235,-8,2,234,0,0,0,0,0,0,0,0,1538
16.928894043,0,-1,0,0,0,0,0,0,0,-8,3,234,-8,2,234,0,0,0,0,0,0,0,0,1539
16.94039011,0,-1,0,0,0,0,0,0,0,-8,3,234,-8,2,234,0,0,0,0,0,0,0,0,1540
16.950855016,0,-1,0,0,0,0,0,0,0,-7,2,235,-8,2,234,0,0,0,0,0,0,0,0,1541
16.961933136,0,-1,0,0,0,0,0,0,0,-7,2,235,-8,2,234,0,0,0,0,0,0,0,0,1542
16.973034143,0,-1,0,0,0,0,0,0,0,-8,2,234,-8,2,234,0,0,0,0,0,0,0,0,1543
16.983971119,0,-1,0,0,0,0,0,0,0,-8,2,234,-8,2,234,0,0,0,0,0,0,0,0,1544
16.994974136,0,-1,0,0,0,0,0,0,0,-8,2,234,-8,2,234,0,0,0,0,0,0,0,0,1545
17.005915165,0,-1,0,0,0,0,0,0,0,-7,3,235,-8,2,234,0,0,0,0,0,0,0,0,1546
17.016849041,0,-1,0,0,0,0,0,0,0,-7,3,235,-8,2,234,0,0,0,0,0,0,0,0,1547
17.027995109,0,-1,0,0,0,0,0,0,0,-7,3,235,-8,2,234,0,0,0,0,0,0,0,0,1548
17.040415048,0,-1,0,0,0,0,0,0,0,-8,2,233,-8,2,234,0,0,0,0,0,0,0,0,1549
17.049932003,0,-1,0,0,0,0,0,0,0,-8,2,233,-8,2,234,0,0,0,0,0,0,0,0,1550
17.060991049,0,-1,0,0,0,0,0,0,0,-9,3,233,-8,2,235,0,0,0,0,0,0,0,0,1551
17.071947098,0,-1,0,0,0,0,0,0,0,-9,3,233,-8,2,235,0,0,0,0,0,0,0,0,1552
17.082888126,0,-1,0,0,0,0,0,0,0,-8,2,234,-7,2,235,0,0,0,0,0,0,0,0,1553
17.09399414,0,-1,0,0,0,0,0,0,0,-8,2,234,-7,2,235,0,0,0,0,0,0,0,0,1554
17.1050632,0,-1,0,0,0,0,0,0,0,-8,2,235,-7,2,235,0,0,0,0,0,0,0,0,1555
17.116485119,0,-1,0,0,0,0,0,0,0,-8,2,235,-7,2,235,0,0,0,0,0,0,0,0,1556
17.126840114,0,-1,0,0,0,0,0,0,0,-9,2,235,-7,3,235,0,0,0,0,0,0,0,0,1557
17.138656139,0,-1,0,0,0,0,0,0,0,-9,2,235,-7,3,235,0,0,0,0,0,0,0,0,1558
17.148922205,0,-1,0,0,0,0,0,0,0,-8,2,235,-7,3,234,0,0,0,0,0,0,0,0,1559
17.159965038,0,-1,0,0,0,0,0,0,0,-8,2,235,-7,3,234,0,0,0,0,0,0,0,0,1560
17.171010971,0,-1,0,0,0,0,0,0,0,-8,2,234,-8,3,234,0,0,0,0,0,0,0,0,1561
17.181890011,0,-1,0,0,0,0,0,0,0,-8,2,234,-8,3,234,0,0,0,0,0,0,0,0,1562
17.192910194,0,-1,0,0,0,0,0,0,0,-8,2,234,-8,2,234,0,0,0,0,0,0,0,0,1563
17.203989982,0,-1,0,0,0,0,0,0,0,-8,2,234,-8,2,234,0,0,0,0,0,0,0,0,1564
17.214930057,0,-1,0,0,0,0,0,0,0,-9,3,235,-8,2,234,0,0,0,0,0,0,0,0,1565
17.225952148,0,-1,0,0,0,0,0,0,0,-9,3,235,-8,2,234,0,0,0,0,0,0,0,0,1566
17.236846208,0,-1,0,0,0,0,0,0,0,-8,2,235,-8,2,234,0,0,0,0,0,0,0,0,1567
17.247928142,0,-1,0,0,0,0,0,0,0,-8,2,235,-8,2,234,0,0,0,0,0,0,0,0,1568
17.258872032,0,-1,0,0,0,0,0,0,0,-8,2,235,-8,2,234,0,0,0,0,0,0,0,0,1569
17.270040035,0,-1,0,0,0,0,0,0,0,-9,2,235,-8,2,234,0,0,0,0,0,0,0,0,1570
17.281484127,0,-1,0,0,0,0,0,0,0,-9,2,235,-8,2,234,0,0,0,0,0,0,0,0,1571
17.291023016,0,-1,0,0,0,0,0,0,0,-9,2,235,-8,2,234,0,0,0,0,0,0,0,0,1572
17.304326057,0,-1,0,0,0,0,0,0,0,-9,3,233,-8,2,234,0,0,0,0,0,0,0,0,1573
17.312860012,0,-1,0,0,0,0,0,0,0,-9,3,233,-8,2,234,0,0,0,0,0,0,0,0,1574
17.323858976,0,-1,0,0,0,0,0,0,0,-9,2,234,-8,2,235,0,0,0,0,0,0,0,0,1575
17.334957123,0,-1,0,0,0,0,0,0,0,-9,2,234,-8,2,235,0,0,0,0,0,0,0,0,1576
17.346110105,0,-1,0,0,0,0,0,0,0,-9,2,234,-8,2,235,0,0,0,0,0,0,0,0,1577
17.357068062,0,-1,0,0,0,0,0,0,0,-9,2,234,-8,2,235,0,0,0,0,0,0,0,0,1578
17.368201017,0,-1,0,0,0,0,0,0,0,-8,2,234,-8,2,235,0,0,0,0,0,0,0,0,1579
17.378905058,0,-1,0,0,0,0,0,0,0,-8,2,234,-8,2,235,0,0,0,0,0,0,0,0,1580
17.389986038,0,-1,0,0,0,0,0,0,0,-8,2,234,-8,2,235,0,0,0,0,0,0,0,0,1581
17.401033163,0,-1,0,0,0,0,0,0,0,-7,2,234,-8,2,235,0,0,0,0,0,0,0,0,1582
17.411967039,0,-1,0,0,0,0,0,0,0,-7,2,234,-8,2,235,0,0,0,0,0,0,0,0,1583
17.4243052,0,-1,0,0,0,0,0,0,0,-7,2,235,-8,2,235,0,0,0,0,0,0,0,0,1584
17.43394804,0,-1,0,0,0,0,0,0,0,-7,2,235,-8,2,235,0,0,0,0,0,0,0,0,1585
17.445725202,0,-1,0,0,0,0,0,0,0,-7,2,235,-9,2,235,0,0,0,0,0,0,0,0,1586
17.456169128,0,-1,0,0,0,0,0,0,0,-7,2,235,-9,2,235,0,0,0,0,0,0,0,0,1587
17.466870069,0,-1,0,0,0,0,0,0,0,-7,2,236,-9,2,234,0,0,0,0,0,0,0,0,1588
17.477930069,0,-1,0,0,0,0,0,0,0,-7,2,236,-9,2,234,0,0,0,0,0,0,0,0,1589
17.489027023,0,-1,0,0,0,0,0,0,0,-8,2,237,-9,2,234,0,0,0,0,0,0,0,0,1590
17.500003099,0,-1,0,0,0,0,0,0,0,-8,2,237,-9,2,234,0,0,0,0,0,0,0,0,1591
17.510963201,0,-1,0,0,0,0,0,0,0,-8,2,235,-8,2,234,0,0,0,0,0,0,0,0,1592
17.52226305,0,-1,0,0,0,0,0,0,0,-8,2,235,-8,2,234,0,0,0,0,0,0,0,0,1593
17.533266067,0,-1,0,0,0,0,0,0,0,-8,2,235,-8,2,234,0,0,0,0,0,0,0,0,1594
17.544246196,0,-1,0,0,0,0,0,0,0,-8,2,235,-8,2,234,0,0,0,0,0,0,0,0,1595
17.554992199,0,-1,0,0,0,0,0,0,0,-8,2,235,-8,2,234,0,0,0,0,0,0,0,0,1596
17.565937996,0,-1,0,0,0,0,0,0,0,-9,2,235,-8,2,235,0,0,0,0,0,0,0,0,1597
17.577045202,0,-1,0,0,0,0,0,0,0,-9,2,235,-8,2,235,0,0,0,0,0,0,0,0,1598
17.58796215,0,-1,0,0,0,0,0,0,0,-7,2,235,-8,2,235,0,0,0,0,0,0,0,0,1599
17.59893012,0,-1,0,0,0,0,0,0,0,-7,2,235,-8,2,235,0,0,0,0,0,0,0,0,1600
17.610140085,0,-1,0,0,0,0,0,0,0,-7,3,235,-8,2,235,0,0,0,0,0,0,0,0,1601
17.621015072,0,-1,0,0,0,0,0,0,0,-7,3,235,-8,2,235,0,0,0,0,0,0,0,0,1602
17.631953001,0,-1,0,0,0,0,0,0,0,-8,3,234,-8,2,235,0,0,0,0,0,0,0,0,1603
17.643015146,0,-1,0,0,0,0,0,0,0,-8,3,234,-8,2,235,0,0,0,0,0,0,0,0,1604
17.653889179,0,-1,0,0,0,0,0,0,0,-7,3,234,-8,2,236,0,0,0,0,0,0,0,0,1605
17.664934158,0,-1,0,0,0,0,0,0,0,-7,3,234,-8,2,236,0,0,0,0,0,0,0,0,1606
17.678601026,0,-1,0,0,0,0,0,0,0,-8,3,235,-8,2,236,0,0,0,0,0,0,0,0,1607
17.686950207,0,-1,0,0,0,0,0,0,0,-8,3,235,-8,2,236,0,0,0,0,0,0,0,0,1608
17.698009014,0,-1,0,0,0,0,0,0,0,-9,3,235,-8,2,236,0,0,0,0,0,0,0,0,1609
17.708944082,0,-1,0,0,0,0,0,0,0,-9,3,235,-8,2,236,0,0,0,0,0,0,0,0,1610
17.720133066,0,-1,0,0,0,0,0,0,0,-8,3,235,-8,2,235,0,0,0,0,0,0,0,0,1611
17.730973005,0,-1,0,0,0,0,0,0,0,-8,3,235,-8,2,235,0,0,0,0,0,0,0,0,1612
17.741894006,0,-1,0,0,0,0,0,0,0,-8,3,235,-8,2,235,0,0,0,0,0,0,0,0,1613
17.753004074,0,-1,0,0,0,0,0,0,0,-8,3,235,-8,2,235,0,0,0,0,0,0,0,0,1614
17.763861179,0,-1,0,0,0,0,0,0,0,-8,3,235,-8,2,235,0,0,0,0,0,0,0,0,1615
17.775103092,0,-1,0,0,0,0,0,0,0,-9,2,234,-8,3,235,0,0,0,0,0,0,0,0,1616
17.786008119,0,-1,0,0,0,0,0,0,0,-9,2,234,-8,3,235,0,0,0,0,0,0,0,0,1617
17.797032118,0,-1,0,0,0,0,0,0,0,-7,3,235,-8,3,235,0,0,0,0,0,0,0,0,1618
17.808005094,0,-1,0,0,0,0,0,0,0,-7,3,235,-8,3,235,0,0,0,0,0,0,0,0,1619
17.818903208,0,-1,0,0,0,0,0,0,0,-7,3,235,-8,3,235,0,0,0,0,0,0,0,0,1620
17.829972028,0,-1,0,0,0,0,0,0,0,-7,3,234,-8,3,235,0,0,0,0,0,0,0,0,1621
17.840847015,0,-1,0,0,0,0,0,0,0,-7,3,234,-8,3,235,0,0,0,0,0,0,0,0,1622
17.852011204,0,-1,0,0,0,0,0,0,0,-7,2,234,-8,3,235,0,0,0,0,0,0,0,0,1623
17.862864017,0,-1,0,0,0,0,0,0,0,-7,2,234,-8,3,235,0,0,0,0,0,0,0,0,1624
17.874040127,0,-1,0,0,0,0,0,0,0,-8,1,235,-8,3,235,0,0,0,0,0,0,0,0,1625
17.884962082,0,-1,0,0,0,0,0,0,0,-8,1,235,-8,3,235,0,0,0,0,0,0,0,0,1626
17.896161079,0,-1,0,0,0,0,0,0,0,-7,2,234,-8,3,235,0,0,0,0,0,0,0,0,1627
17.907185077,0,-1,0,0,0,0,0,0,0,-7,2,234,-8,3,235,0,0,0,0,0,0,0,0,1628
17.918043136,0,-1,0,0,0,0,0,0,0,-7,2,234,-8,3,235,0,0,0,0,0,0,0,0,1629
17.928894996,0,-1,0,0,0,0,0,0,0,-7,2,235,-8,3,235,0,0,0,0,0,0,0,0,1630
17.939975023,0,-1,0,0,0,0,0,0,0,-7,2,235,-8,3,235,0,0,0,0,0,0,0,0,1631
17.952174186,0,-1,0,0,0,0,0,0,0,-7,2,235,-8,3,235,0,0,0,0,0,0,0,0,1632
17.961911201,0,-1,0,0,0,0,0,0,0,-8,2,234,-8,3,235,0,0,0,0,0,0,0,0,1633
17.972920179,0,-1,0,0,0,0,0,0,0,-8,2,234,-8,3,235,0,0,0,0,0,0,0,0,1634
17.983927011,0,-1,0,0,0,0,0,0,0,-7,1,234,-8,2,235,0,0,0,0,0,0,0,0,1635
17.994966984,0,-1,0,0,0,0,0,0,0,-7,1,234,-8,2,235,0,0,0,0,0,0,0,0,1636
18.005940199,0,-1,0,0,0,0,0,0,0,-8,1,234,-8,2,235,0,0,0,0,0,0,0,0,1637
18.016847133,0,-1,0,0,0,0,0,0,0,-8,1,234,-8,2,235,0,0,0,0,0,0,0,0,1638
18.028047085,0,-1,0,0,0,0,0,0,0,-8,2,236,-7,2,235,0,0,0,0,0,0,0,0,1639
18.039009094,0,-1,0,0,0,0,0,0,0,-8,2,236,-7,2,235,0,0,0,0,0,0,0,0,1640
18.049885988,0,-1,0,0,0,0,0,0,0,-8,2,236,-7,2,235,0,0,0,0,0,0,0,0,1641
18.060868978,0,-1,0,0,0,0,0,0,0,-8,3,235,-7,2,235,0,0,0,0,0,0,0,0,1642
18.071843147,0,-1,0,0,0,0,0,0,0,-8,3,235,-7,2,235,0,0,0,0,0,0,0,0,1643
18.082863092,0,-1,0,0,0,0,0,0,0,-8,3,235,-7,2,235,0,0,0,0,0,0,0,0,1644
18.093888044,0,-1,0,0,0,0,0,0,0,-8,2,233,-7,2,235,0,0,0,0,0,0,0,0,1645
18.106446028,0,-1,0,0,0,0,0,0,0,-8,2,233,-7,2,235,0,0,0,0,0,0,0,0,1646
18.115872144,0,-1,0,0,0,0,0,0,0,-7,3,232,-7,2,235,0,0,0,0,0,0,0,0,1647
18.127027988,0,-1,0,0,0,0,0,0,0,-7,3,232,-7,2,235,0,0,0,0,0,0,0,0,1648
18.137986183,0,-1,0,0,0,0,0,0,0,-7,3,234,-7,2,234,0,0,0,0,0,0,0,0,1649
18.148998976,0,-1,0,0,0,0,0,0,0,-7,3,234,-7,2,234,0,0,0,0,0,0,0,0,1650
18.159875154,0,-1,0,0,0,0,0,0,0,-7,3,237,-7,2,234,0,0,0,0,0,0,0,0,1651
18.170939207,0,-1,0,0,0,0,0,0,0,-7,3,237,-7,2,234,0,0,0,0,0,0,0,0,1652
18.18186903,0,-1,0,0,0,0,0,0,0,-7,3,237,-7,2,234,0,0,0,0,0,0,0,0,1653
18.193053007,0,-1,0,0,0,0,0,0,0,-7,2,236,-7,2,234,0,0,0,0,0,0,0,0,1654
18.203813076,0,-1,0,0,0,0,0,0,0,-7,2,236,-7,2,234,0,0,0,0,0,0,0,0,1655
18.215063095,0,-1,0,0,0,0,0,0,0,-7,2,236,-7,2,234,0,0,0,0,0,0,0,0,1656
18.225999117,0,-1,0,0,0,0,0,0,0,-8,3,236,-8,2,234,0,0,0,0,0,0,0,0,1657
18.236901998,0,-1,0,0,0,0,0,0,0,-8,3,236,-8,2,234,0,0,0,0,0,0,0,0,1658
18.24802804,0,-1,0,0,0,0,0,0,0,-9,3,236,-8,2,234,0,0,0,0,0,0,0,0,1659
18.258912086,0,-1,0,0,0,0,0,0,0,-9,3,236,-8,2,234,0,0,0,0,0,0,0,0,1660
18.269384145,0,-1,0,0,0,0,0,0,0,-8,3,235,-8,3,234,0,0,0,0,0,0,0,0,1661
18.279834032,0,-1,0,0,0,0,0,0,0,-8,3,235,-8,3,234,0,0,0,0,0,0,0,0,1662
18.290915012,0,-1,0,0,0,0,0,0,0,-8,2,236,-8,3,235,0,0,0,0,0,0,0,0,1663
18.301956177,0,-1,0,0,0,0,0,0,0,-8,2,236,-8,3,235,0,0,0,0,0,0,0,0,1664
18.313101053,0,-1,0,0,0,0,0,0,0,-8,3,234,-8,3,235,0,0,0,0,0,0,0,0,1665
18.323993206,0,-1,0,0,0,0,0,0,0,-8,3,234,-8,3,235,0,0,0,0,0,0,0,0,1666
18.335153103,0,-1,0,0,0,0,0,0,0,-8,2,234,-8,3,235,0,0,0,0,0,0,0,0,1667
18.346039057,0,-1,0,0,0,0,0,0,0,-8,2,234,-8,3,235,0,0,0,0,0,0,0,0,1668
18.35691905,0,-1,0,0,0,0,0,0,0,-7,2,234,-8,3,235,0,0,0,0,0,0,0,0,1669
18.368046999,0,-1,0,0,0,0,0,0,0,-7,2,234,-8,3,235,0,0,0,0,0,0,0,0,1670
18.379081011,0,-1,0,0,0,0,0,0,0,-8,1,235,-8,3,236,0,0,0,0,0,0,0,0,1671
18.390003204,0,-1,0,0,0,0,0,0,0,-8,1,235,-8,3,236,0,0,0,0,0,0,0,0,1672
18.401000976,0,-1,0,0,0,0,0,0,0,-8,1,235,-8,3,236,0,0,0,0,0,0,0,0,1673
18.412240982,0,-1,0,0,0,0,0,0,0,-8,2,235,-8,3,236,0,0,0,0,0,0,0,0,1674
18.422872066,0,-1,0,0,0,0,0,0,0,-8,2,235,-8,3,236,0,0,0,0,0,0,0,0,1675
18.433896065,0,-1,0,0,0,0,0,0,0,-8,2,235,-8,3,236,0,0,0,0,0,0,0,0,1676
18.444894075,0,-1,0,0,0,0,0,0,0,-7,3,234,-8,3,236,0,0,0,0,0,0,0,0,1677
18.456001997,0,-1,0,0,0,0,0,0,0,-7,3,234,-8,3,236,0,0,0,0,0,0,0,0,1678
18.467010021,0,-1,0,0,0,0,0,0,0,-8,2,234,-8,2,235,0,0,0,0,0,0,0,0,1679
18.477971077,0,-1,0,0,0,0,0,0,0,-8,2,234,-8,2,235,0,0,0,0,0,0,0,0,1680
18.489058971,0,-1,0,0,0,0,0,0,0,-8,3,234,-8,2,235,0,0,0,0,0,0,0,0,1681
18.500020981,0,-1,0,0,0,0,0,0,0,-8,3,234,-8,2,235,0,0,0,0,0,0,0,0,1682
18.510905981,0,-1,0,0,0,0,0,0,0,-9,2,234,-8,2,235,0,0,0,0,0,0,0,0,1683
18.521989107,0,-1,0,0,0,0,0,0,0,-9,2,234,-8,2,235,0,0,0,0,0,0,0,0,1684
18.5328722,0,-1,0,0,0,0,0,0,0,-9,2,234,-8,2,235,0,0,0,0,0,0,0,0,1685
18.543845176,0,-1,0,0,0,0,0,0,0,-8,2,234,-8,2,234,0,0,0,0,0,0,0,0,1686
18.554929018,0,-1,0,0,0,0,0,0,0,-8,2,234,-8,2,234,0,0,0,0,0,0,0,0,1687
18.565931082,0,-1,0,0,0,0,0,0,0,-8,2,234,-8,2,234,0,0,0,0,0,0,0,0,1688
18.576847076,0,-1,0,0,0,0,0,0,0,-7,2,235,-8,2,234,0,0,0,0,0,0,0,0,1689
18.58796215,0,-1,0,0,0,0,0,0,0,-7,2,235,-8,2,234,0,0,0,0,0,0,0,0,1690
18.598860979,0,-1,0,0,0,0,0,0,0,-8,3,234,-8,2,234,0,0,0,0,0,0,0,0,1691
18.609961986,0,-1,0,0,0,0,0,0,0,-8,3,234,-8,2,234,0,0,0,0,0,0,0,0,1692
18.62087512,0,-1,0,0,0,0,0,0,0,-8,3,235,-8,2,234,0,0,0,0,0,0,0,0,1693
18.631955147,0,-1,0,0,0,0,0,0,0,-8,3,235,-8,2,234,0,0,0,0,0,0,0,0,1694
18.643215179,0,-1,0,0,0,0,0,0,0,-8,2,233,-8,2,234,0,0,0,0,0,0,0,0,1695
18.653992176,0,-1,0,0,0,0,0,0,0,-8,2,233,-8,2,234,0,0,0,0,0,0,0,0,1696
18.665003061,0,-1,0,0,0,0,0,0,0,-8,2,233,-8,2,234,0,0,0,0,0,0,0,0,1697
18.676279068,0,-1,0,0,0,0,0,0,0,-8,2,234,-8,2,234,0,0,0,0,0,0,0,0,1698
18.68691206,0,-1,0,0,0,0,0,0,0,-8,2,234,-8,2,234,0,0,0,0,0,0,0,0,1699
18.697860002,0,-1,0,0,0,0,0,0,0,-8,2,234,-8,2,234,0,0,0,0,0,0,0,0,1700
18.708912134,0,-1,0,0,0,0,0,0,0,-8,3,235,-8,2,234,0,0,0,0,0,0,0,0,1701
18.720031976,0,-1,0,0,0,0,0,0,0,-8,3,235,-8,2,234,0,0,0,0,0,0,0,0,1702
18.731034994,0,-1,0,0,0,0,0,0,0,-9,1,234,-8,2,234,0,0,0,0,0,0,0,0,1703
18.742046118,0,-1,0,0,0,0,0,0,0,-9,1,234,-8,2,234,0,0,0,0,0,0,0,0,1704
18.753023147,0,-1,0,0,0,0,0,0,0,-8,1,234,-8,2,234,0,0,0,0,0,0,0,0,1705
18.763916015,0,-1,0,0,0,0,0,0,0,-8,1,234,-8,2,234,0,0,0,0,0,0,0,0,1706
18.776209116,0,-1,0,0,0,0,0,0,0,-9,1,235,-8,2,234,0,0,0,0,0,0,0,0,1707
18.785948992,0,-1,0,0,0,0,0,0,0,-9,1,235,-8,2,234,0,0,0,0,0,0,0,0,1708
18.79700017,0,-1,0,0,0,0,0,0,0,-9,1,235,-8,2,234,0,0,0,0,0,0,0,0,1709
18.808398008,0,-1,0,0,0,0,0,0,0,-8,2,236,-8,2,234,0,0,0,0,0,0,0,0,1710
18.81886816,0,-1,0,0,0,0,0,0,0,-8,2,236,-8,2,234,0,0,0,0,0,0,0,0,1711
18.832045078,0,-1,0,0,0,0,0,0,0,-7,2,236,-8,2,234,0,0,0,0,0,0,0,0,1712
18.843015194,0,-1,0,0,0,0,0,0,0,-7,2,236,-8,2,234,0,0,0,0,0,0,0,0,1713
18.853862047,0,-1,0,0,0,0,0,0,0,-7,2,236,-8,2,234,0,0,0,0,0,0,0,0,1714
18.867493152,0,-1,0,0,0,0,0,0,0,-7,2,235,-8,2,234,0,0,0,0,0,0,0,0,1715
18.875874042,0,-1,0,0,0,0,0,0,0,-7,2,235,-8,2,234,0,0,0,0,0,0,0,0,1716
18.887006998,0,-1,0,0,0,0,0,0,0,-8,2,236,-8,2,235,0,0,0,0,0,0,0,0,1717
18.897957086,0,-1,0,0,0,0,0,0,0,-8,2,236,-8,2,235,0,0,0,0,0,0,0,0,1718
18.91211009,0,-1,0,0,0,0,0,0,0,-8,2,236,-8,2,235,0,0,0,0,0,0,0,0,1719
18.923092127,0,-1,0,0,0,0,0,0,0,-8,2,236,-8,2,235,0,0,0,0,0,0,0,0,1720
18.933945179,0,-1,0,0,0,0,0,0,0,-8,2,236,-8,2,235,0,0,0,0,0,0,0,0,1721
18.944792032,0,-1,0,0,0,0,0,0,0,-8,2,235,-8,2,235,0,0,0,0,0,0,0,0,1722
18.955916166,0,-1,0,0,0,0,0,0,0,-8,2,235,-8,2,235,0,0,0,0,0,0,0,0,1723
18.966967106,0,-1,0,0,0,0,0,0,0,-9,2,234,-8,2,235,0,0,0,0,0,0,0,0,1724
18.977946043,0,-1,0,0,0,0,0,0,0,-9,2,234,-8,2,235,0,0,0,0,0,0,0,0,1725
18.988895178,0,-1,0,0,0,0,0,0,0,-9,2,234,-8,2,235,0,0,0,0,0,0,0,0,1726
18.999885082,0,-1,0,0,0,0,0,0,0,-9,2,235,-8,2,235,0,0,0,0,0,0,0,0,1727
19.011011123,0,-1,0,0,0,0,0,0,0,-9,2,235,-8,2,235,0,0,0,0,0,0,0,0,1728
19.021916151,0,-1,0,0,0,0,0,0,0,-9,2,234,-8,2,235,0,0,0,0,0,0,0,0,1729
19.0328691,0,-1,0,0,0,0,0,0,0,-9,2,234,-8,2,235,0,0,0,0,0,0,0,0,1730
19.044098139,0,-1,0,0,0,0,0,0,0,-8,2,235,-8,2,236,0,0,0,0,0,0,0,0,1731
19.054849148,0,-1,0,0,0,0,0,0,0,-8,2,235,-8,2,236,0,0,0,0,0,0,0,0,1732
19.065925121,0,-1,0,0,0,0,0,0,0,-8,1,234,-8,2,236,0,0,0,0,0,0,0,0,1733
19.077142,0,-1,0,0,0,0,0,0,0,-8,1,234,-8,2,236,0,0,0,0,0,0,0,0,1734
19.088356971,0,-1,0,0,0,0,0,0,0,-7,1,234,-8,2,235,0,0,0,0,0,0,0,0,1735
19.098889112,0,-1,0,0,0,0,0,0,0,-7,1,234,-8,2,235,0,0,0,0,0,0,0,0,1736
19.109970093,0,-1,0,0,0,0,0,0,0,-7,1,234,-8,2,235,0,0,0,0,0,0,0,0,1737
19.119955063,0,-1,0,0,0,0,0,0,0,-7,1,234,-8,2,235,0,0,0,0,0,0,0,0,1738
19.130909204,0,-1,0,0,0,0,0,0,0,-7,1,234,-8,2,235,0,0,0,0,0,0,0,0,1739
19.141873121,0,-1,0,0,0,0,0,0,0,-7,1,234,-8,2,235,0,0,0,0,0,0,0,0,1740
19.152961015,0,-1,0,0,0,0,0,0,0,-8,2,236,-8,2,235,0,0,0,0,0,0,0,0,1741
19.163878202,0,-1,0,0,0,0,0,0,0,-8,2,236,-8,2,235,0,0,0,0,0,0,0,0,1742
19.177499056,0,-1,0,0,0,0,0,0,0,-8,2,234,-8,2,234,0,0,0,0,0,0,0,0,1743
19.186218023,0,-1,0,0,0,0,0,0,0,-8,2,234,-8,2,234,0,0,0,0,0,0,0,0,1744
19.197911024,0,-1,0,0,0,0,0,0,0,-8,2,235,-8,2,234,0,0,0,0,0,0,0,0,1745
19.208137989,0,-1,0,0,0,0,0,0,0,-8,2,235,-8,2,234,0,0,0,0,0,0,0,0,1746
19.218932152,0,-1,0,0,0,0,0,0,0,-7,2,235,-8,2,234,0,0,0,0,0,0,0,0,1747
19.229904175,0,-1,0,0,0,0,0,0,0,-7,2,235,-8,2,234,0,0,0,0,0,0,0,0,1748
19.240979194,0,-1,0,0,0,0,0,0,0,-8,1,234,-8,1,234,0,0,0,0,0,0,0,0,1749
19.251882076,0,-1,0,0,0,0,0,0,0,-8,1,234,-8,1,234,0,0,0,0,0,0,0,0,1750
19.262995004,0,-1,0,0,0,0,0,0,0,-7,2,235,-8,1,234,0,0,0,0,0,0,0,0,1751
19.273955106,0,-1,0,0,0,0,0,0,0,-7,2,235,-8,1,234,0,0,0,0,0,0,0,0,1752
19.285068035,0,-1,0,0,0,0,0,0,0,-8,2,235,-8,1,234,0,0,0,0,0,0,0,0,1753
19.300189018,0,-1,0,0,0,0,0,0,0,-8,2,235,-8,1,234,0,0,0,0,0,0,0,0,1754
19.307005167,0,-1,0,0,0,0,0,0,0,-8,2,235,-8,1,234,0,0,0,0,0,0,0,0,1755
19.317975998,0,-1,0,0,0,0,0,0,0,-8,2,234,-7,1,235,0,0,0,0,0,0,0,0,1756
19.332415104,0,-1,0,0,0,0,0,0,0,-8,2,234,-7,1,235,0,0,0,0,0,0,0,0,1757
19.340241194,0,-1,0,0,0,0,0,0,0,-8,2,234,-7,1,235,0,0,0,0,0,0,0,0,1758
19.350924015,0,-1,0,0,0,0,0,0,0,-9,2,235,-7,1,235,0,0,0,0,0,0,0,0,1759
19.36199212,0,-1,0,0,0,0,0,0,0,-9,2,235,-7,1,235,0,0,0,0,0,0,0,0,1760
19.373074054,0,-1,0,0,0,0,0,0,0,-9,2,235,-7,2,235,0,0,0,0,0,0,0,0,1761
19.384064197,0,-1,0,0,0,0,0,0,0,-9,2,235,-7,2,235,0,0,0,0,0,0,0,0,1762
19.395165205,0,-1,0,0,0,0,0,0,0,-9,2,235,-7,2,235,0,0,0,0,0,0,0,0,1763
19.405940056,0,-1,0,0,0,0,0,0,0,-9,2,235,-7,2,235,0,0,0,0,0,0,0,0,1764
19.416934013,0,-1,0,0,0,0,0,0,0,-8,1,235,-8,2,235,0,0,0,0,0,0,0,0,1765
19.428197145,0,-1,0,0,0,0,0,0,0,-8,1,235,-8,2,235,0,0,0,0,0,0,0,0,1766
19.438952207,0,-1,0,0,0,0,0,0,0,-8,1,235,-8,2,235,0,0,0,0,0,0,0,0,1767
19.449951172,0,-1,0,0,0,0,0,0,0,-8,2,235,-8,2,235,0,0,0,0,0,0,0,0,1768
19.460870027,0,-1,0,0,0,0,0,0,0,-8,2,235,-8,2,235,0,0,0,0,0,0,0,0,1769
19.471983194,0,-1,0,0,0,0,0,0,0,-8,2,235,-8,2,235,0,0,0,0,0,0,0,0,1770
19.482959032,0,-1,0,0,0,0,0,0,0,-9,2,235,-8,2,235,0,0,0,0,0,0,0,0,1771
19.494080066,0,-1,0,0,0,0,0,0,0,-9,2,235,-8,2,235,0,0,0,0,0,0,0,0,1772
19.509464979,0,-1,0,0,0,0,0,0,0,-8,3,235,-8,2,235,0,0,0,0,0,0,0,0,1773
19.516103029,0,-1,0,0,0,0,0,0,0,-8,3,235,-8,2,235,0,0,0,0,0,0,0,0,1774
19.52691698,0,-1,0,0,0,0,0,0,0,-8,2,235,-8,2,235,0,0,0,0,0,0,0,0,1775
19.537881136,0,-1,0,0,0,0,0,0,0,-8,2,235,-8,2,235,0,0,0,0,0,0,0,0,1776
19.549105167,0,-1,0,0,0,0,0,0,0,-8,2,235,-9,2,235,0,0,0,0,0,0,0,0,1777
19.559864998,0,-1,0,0,0,0,0,0,0,-8,2,235,-9,2,235,0,0,0,0,0,0,0,0,1778
19.572416067,0,-1,0,0,0,0,0,0,0,-8,2,235,-9,2,235,0,0,0,0,0,0,0,0,1779
19.581928015,0,-1,0,0,0,0,0,0,0,-8,2,237,-9,2,235,0,0,0,0,0,0,0,0,1780
19.59296298,0,-1,0,0,0,0,0,0,0,-8,2,237,-9,2,235,0,0,0,0,0,0,0,0,1781
19.604027986,0,-1,0,0,0,0,0,0,0,-8,3,236,-9,2,235,0,0,0,0,0,0,0,0,1782
19.614854097,0,-1,0,0,0,0,0,0,0,-8,3,236,-9,2,235,0,0,0,0,0,0,0,0,1783
19.625868082,0,-1,0,0,0,0,0,0,0,-7,4,236,-8,2,235,0,0,0,0,0,0,0,0,1784
19.63707304,0,-1,0,0,0,0,0,0,0,-7,4,236,-8,2,235,0,0,0,0,0,0,0,0,1785
19.648152113,0,-1,0,0,0,0,0,0,0,-8,3,235,-8,2,235,0,0,0,0,0,0,0,0,1786
19.65894103,0,-1,0,0,0,0,0,0,0,-8,3,235,-8,2,235,0,0,0,0,0,0,0,0,1787
19.670287132,0,-1,0,0,0,0,0,0,0,-8,3,234,-8,2,235,0,0,0,0,0,0,0,0,1788
19.681490183,0,-1,0,0,0,0,0,0,0,-8,3,234,-8,2,235,0,0,0,0,0,0,0,0,1789
19.696123123,0,-1,0,0,0,0,0,0,0,-8,3,236,-8,2,235,0,0,0,0,0,0,0,0,1790
19.705935001,0,-1,0,0,0,0,0,0,0,-8,3,236,-8,2,235,0,0,0,0,0,0,0,0,1791
19.716902017,0,-1,0,0,0,0,0,0,0,-8,2,235,-8,2,236,0,0,0,0,0,0,0,0,1792
19.727996111,0,-1,0,0,0,0,0,0,0,-8,2,235,-8,2,236,0,0,0,0,0,0,0,0,1793
19.738886118,0,-1,0,0,0,0,0,0,0,-8,2,235,-8,2,236,0,0,0,0,0,0,0,0,1794
19.749991178,0,-1,0,0,0,0,0,0,0,-8,2,235,-8,3,236,0,0,0,0,0,0,0,0,1795
19.760920048,0,-1,0,0,0,0,0,0,0,-8,2,235,-8,3,236,0,0,0,0,0,0,0,0,1796
19.772291183,0,-1,0,0,0,0,0,0,0,-8,2,235,-8,3,236,0,0,0,0,0,0,0,0,1797
19.782894134,0,-1,0,0,0,0,0,0,0,-7,2,234,-8,3,236,0,0,0,0,0,0,0,0,1798
19.794028043,0,-1,0,0,0,0,0,0,0,-7,2,234,-8,3,236,0,0,0,0,0,0,0,0,1799
19.80513215,0,-1,0,0,0,0,0,0,0,-8,2,235,-8,3,236,0,0,0,0,0,0,0,0,1800
19.815994024,0,-1,0,0,0,0,0,0,0,-8,2,235,-8,3,236,0,0,0,0,0,0,0,0,1801
19.826925039,0,-1,0,0,0,0,0,0,0,-8,2,234,-8,3,236,0,0,0,0,0,0,0,0,1802
19.838015079,0,-1,0,0,0,0,0,0,0,-8,2,234,-8,3,236,0,0,0,0,0,0,0,0,1803
19.849003076,0,-1,0,0,0,0,0,0,0,-8,2,233,-8,3,236,0,0,0,0,0,0,0,0,1804
19.860022068,0,-1,0,0,0,0,0,0,0,-8,2,233,-8,3,236,0,0,0,0,0,0,0,0,1805
19.870993137,0,-1,0,0,0,0,0,0,0,-8,2,233,-8,3,236,0,0,0,0,0,0,0,0,1806
19.881860971,0,-1,0,0,0,0,0,0,0,-8,2,234,-8,3,235,0,0,0,0,0,0,0,0,1807
19.892896175,0,-1,0,0,0,0,0,0,0,-8,2,234,-8,3,235,0,0,0,0,0,0,0,0,1808
19.903951168,0,-1,0,0,0,0,0,0,0,-8,2,234,-8,3,235,0,0,0,0,0,0,0,0,1809
19.914880037,0,-1,0,0,0,0,0,0,0,-8,2,236,-8,2,235,0,0,0,0,0,0,0,0,1810
19.926324129,0,-1,0,0,0,0,0,0,0,-8,2,236,-8,2,235,0,0,0,0,0,0,0,0,1811
19.940215111,0,-1,0,0,0,0,0,0,0,-8,2,236,-8,2,235,0,0,0,0,0,0,0,0,1812
19.947967052,0,-1,0,0,0,0,0,0,0,-8,2,236,-8,2,235,0,0,0,0,0,0,0,0,1813
19.958940029,0,-1,0,0,0,0,0,0,0,-8,2,234,-8,2,235,0,0,0,0,0,0,0,0,1814
19.970019102,0,-1,0,0,0,0,0,0,0,-8,2,234,-8,2,235,0,0,0,0,0,0,0,0,1815
19.981086015,0,-1,0,0,0,0,0,0,0,-8,3,234,-8,2,234,0,0,0,0,0,0,0,0,1816
19.992027998,0,-1,0,0,0,0,0,0,0,-8,3,234,-8,2,234,0,0,0,0,0,0,0,0,1817
20.002963066,0,-1,0,0,0,0,0,0,0,-8,1,234,-8,2,234,0,0,0,0,0,0,0,0,1818
20.014616012,0,-1,0,0,0,0,0,0,0,-8,1,234,-8,2,234,0,0,0,0,0,0,0,0,1819
20.02483201,0,-1,0,0,0,0,0,0,0,-8,1,234,-8,2,234,0,0,0,0,0,0,0,0,1820
20.035999059,0,-1,0,0,0,0,0,0,0,-8,1,234,-8,2,234,0,0,0,0,0,0,0,0,1821
20.046864986,0,-1,0,0,0,0,0,0,0,-8,2,234,-8,2,235,0,0,0,0,0,0,0,0,1822
20.057847976,0,-1,0,0,0,0,0,0,0,-8,2,234,-8,2,235,0,0,0,0,0,0,0,0,1823
20.0688591,0,-1,0,0,0,0,0,0,0,-8,2,233,-8,2,235,0,0,0,0,0,0,0,0,1824
20.079872131,0,-1,0,0,0,0,0,0,0,-8,2,233,-8,2,235,0,0,0,0,0,0,0,0,1825
20.090873003,0,-1,0,0,0,0,0,0,0,-8,2,234,-8,2,235,0,0,0,0,0,0,0,0,1826
20.101972103,0,-1,0,0,0,0,0,0,0,-8,2,234,-8,2,235,0,0,0,0,0,0,0,0,1827
20.112874031,0,-1,0,0,0,0,0,0,0,-7,2,235,-8,2,235,0,0,0,0,0,0,0,0,1828
20.123865127,0,-1,0,0,0,0,0,0,0,-7,2,235,-8,2,235,0,0,0,0,0,0,0,0,1829
20.133893013,0,-1,0,0,0,0,0,0,0,-7,2,235,-8,2,235,0,0,0,0,0,0,0,0,1830
20.145017147,0,-1,0,0,0,0,0,0,0,-9,1,234,-8,2,235,0,0,0,0,0,0,0,0,1831
20.156409025,0,-1,0,0,0,0,0,0,0,-9,1,234,-8,2,235,0,0,0,0,0,0,0,0,1832
20.166999101,0,-1,0,0,0,0,0,0,0,-9,1,234,-8,2,235,0,0,0,0,0,0,0,0,1833
20.1778512,0,-1,0,0,0,0,0,0,0,-8,1,235,-8,2,234,0,0,0,0,0,0,0,0,1834
20.1889081,0,-1,0,0,0,0,0,0,0,-8,1,235,-8,2,234,0,0,0,0,0,0,0,0,1835
20.199918031,0,-1,0,0,0,0,0,0,0,-7,2,235,-8,2,234,0,0,0,0,0,0,0,0,1836
20.211057186,0,-1,0,0,0,0,0,0,0,-7,2,235,-8,2,234,0,0,0,0,0,0,0,0,1837
20.221911192,0,-1,0,0,0,0,0,0,0,-7,2,234,-8,2,234,0,0,0,0,0,0,0,0,1838
20.232968092,0,-1,0,0,0,0,0,0,0,-7,2,234,-8,2,234,0,0,0,0,0,0,0,0,1839
20.243993044,0,-1,0,0,0,0,0,0,0,-7,2,234,-8,2,234,0,0,0,0,0,0,0,0,1840
20.254875183,0,-1,0,0,0,0,0,0,0,-7,2,234,-8,2,234,0,0,0,0,0,0,0,0,1841
20.265968084,0,-1,0,0,0,0,0,0,0,-7,2,234,-8,2,234,0,0,0,0,0,0,0,0,1842
20.276105165,0,-1,0,0,0,0,0,0,0,-7,2,236,-8,2,234,0,0,0,0,0,0,0,0,1843
20.288328171,0,-1,0,0,0,0,0,0,0,-7,2,236,-8,2,234,0,0,0,0,0,0,0,0,1844
20.297949075,0,-1,0,0,0,0,0,0,0,-7,2,236,-8,2,234,0,0,0,0,0,0,0,0,1845
20.308942079,0,-1,0,0,0,0,0,0,0,-8,3,235,-8,2,234,0,0,0,0,0,0,0,0,1846
20.320254087,0,-1,0,0,0,0,0,0,0,-8,3,235,-8,2,234,0,0,0,0,0,0,0,0,1847
20.330931186,0,-1,0,0,0,0,0,0,0,-8,2,234,-8,2,234,0,0,0,0,0,0,0,0,1848
20.341969013,0,-1,0,0,0,0,0,0,0,-8,2,234,-8,2,234,0,0,0,0,0,0,0,0,1849
20.352928161,0,-1,0,0,0,0,0,0,0,-8,2,235,-8,2,234,0,0,0,0,0,0,0,0,1850
20.363996029,0,-1,0,0,0,0,0,0,0,-8,1,235,-8,2,235,0,0,0,0,0,0,0,0,1851
20.375083208,0,-1,0,0,0,0,0,0,0,-8,1,235,-8,2,235,0,0,0,0,0,0,0,0,1852
20.385946035,0,-1,0,0,0,0,0,0,0,-8,1,235,-8,2,235,0,0,0,0,0,0,0,0,1853
20.396944999,0,-1,0,0,0,0,0,0,0,-7,2,235,-7,2,235,0,0,0,0,0,0,0,0,1854
20.412568092,0,-1,0,0,0,0,0,0,0,-7,2,235,-7,2,235,0,0,0,0,0,0,0,0,1855
20.418971061,0,-1,0,0,0,0,0,0,0,-7,2,235,-7,2,235,0,0,0,0,0,0,0,0,1856
20.432661056,0,-1,0,0,0,0,0,0,0,-7,2,235,-7,2,235,0,0,0,0,0,0,0,0,1857
20.444346189,0,-1,0,0,0,0,0,0,0,-8,2,235,-7,2,235,0,0,0,0,0,0,0,0,1858
20.45195508,0,-1,0,0,0,0,0,0,0,-8,2,235,-7,2,235,0,0,0,0,0,0,0,0,1859
20.462902069,0,-1,0,0,0,0,0,0,0,-8,3,235,-8,2,235,0,0,0,0,0,0,0,0,1860
20.474168062,0,-1,0,0,0,0,0,0,0,-8,3,235,-8,2,235,0,0,0,0,0,0,0,0,1861
20.485082149,0,-1,0,0,0,0,0,0,0,-8,3,235,-8,2,235,0,0,0,0,0,0,0,0,1862
20.496021986,0,-1,0,0,0,0,0,0,0,-8,3,235,-8,2,235,0,0,0,0,0,0,0,0,1863
20.506940126,0,-1,0,0,0,0,0,0,0,-8,2,235,-8,2,235,0,0,0,0,0,0,0,0,1864
20.518010139,0,-1,0,0,0,0,0,0,0,-8,2,235,-8,2,235,0,0,0,0,0,0,0,0,1865
20.528933048,0,-1,0,0,0,0,0,0,0,-8,2,235,-8,2,235,0,0,0,0,0,0,0,0,1866
20.54007411,0,-1,0,0,0,0,0,0,0,-8,2,234,-8,2,235,0,0,0,0,0,0,0,0,1867
20.552188158,0,-1,0,0,0,0,0,0,0,-8,2,234,-8,2,235,0,0,0,0,0,0,0,0,1868
20.561931133,0,-1,0,0,0,0,0,0,0,-8,2,235,-8,2,235,0,0,0,0,0,0,0,0,1869
20.573168039,0,-1,0,0,0,0,0,0,0,-8,2,235,-8,2,235,0,0,0,0,0,0,0,0,1870
20.584302187,0,-1,0,0,0,0,0,0,0,-8,2,235,-8,2,235,0,0,0,0,0,0,0,0,1871
20.594921112,0,-1,0,0,0,0,0,0,0,-8,2,235,-8,2,235,0,0,0,0,0,0,0,0,1872
20.606076002,0,-1,0,0,0,0,0,0,0,-8,2,235,-8,2,235,0,0,0,0,0,0,0,0,1873
20.616961002,0,-1,0,0,0,0,0,0,0,-8,1,235,-8,2,235,0,0,0,0,0,0,0,0,1874
20.627991199,0,-1,0,0,0,0,0,0,0,-8,1,235,-8,2,235,0,0,0,0,0,0,0,0,1875
20.640142202,0,-1,0,0,0,0,0,0,0,-7,3,234,-8,2,235,0,0,0,0,0,0,0,0,1876
20.651036024,0,-1,0,0,0,0,0,0,0,-7,3,234,-8,2,235,0,0,0,0,0,0,0,0,1877
20.660948038,0,-1,0,0,0,0,0,0,0,-7,3,234,-8,2,235,0,0,0,0,0,0,0,0,1878
20.676107168,0,-1,0,0,0,0,0,0,0,-8,2,234,-8,2,235,0,0,0,0,0,0,0,0,1879
20.682939052,0,-1,0,0,0,0,0,0,0,-8,2,234,-8,2,235,0,0,0,0,0,0,0,0,1880
20.693987131,0,-1,0,0,0,0,0,0,0,-8,2,234,-8,2,235,0,0,0,0,0,0,0,0,1881
20.704873085,0,-1,0,0,0,0,0,0,0,-9,2,234,-8,2,235,0,0,0,0,0,0,0,0,1882
20.715929031,0,-1,0,0,0,0,0,0,0,-9,2,234,-8,2,235,0,0,0,0,0,0,0,0,1883
20.726904154,0,-1,0,0,0,0,0,0,0,-9,1,233,-8,2,235,0,0,0,0,0,0,0,0,1884
20.7397511,0,-1,0,0,0,0,0,0,0,-9,1,233,-8,2,235,0,0,0,0,0,0,0,0,1885
20.748881101,0,-1,0,0,0,0,0,0,0,-8,1,233,-8,2,235,0,0,0,0,0,0,0,0,1886
20.759962082,0,-1,0,0,0,0,0,0,0,-8,1,233,-8,2,235,0,0,0,0,0,0,0,0,1887
20.771146059,0,-1,0,0,0,0,0,0,0,-7,1,234,-8,2,235,0,0,0,0,0,0,0,0,1888
20.781929016,0,-1,0,0,0,0,0,0,0,-7,1,234,-8,2,235,0,0,0,0,0,0,0,0,1889
20.795781135,0,-1,0,0,0,0,0,0,0,-7,1,234,-8,2,234,0,0,0,0,0,0,0,0,1890
20.804047107,0,-1,0,0,0,0,0,0,0,-7,1,234,-8,2,234,0,0,0,0,0,0,0,0,1891
20.815052986,0,-1,0,0,0,0,0,0,0,-7,1,234,-8,2,234,0,0,0,0,0,0,0,0,1892
20.825999021,0,-1,0,0,0,0,0,0,0,-8,2,235,-8,2,234,0,0,0,0,0,0,0,0,1893
20.836933136,0,-1,0,0,0,0,0,0,0,-8,2,235,-8,2,234,0,0,0,0,0,0,0,0,1894
20.848308086,0,-1,0,0,0,0,0,0,0,-8,2,234,-8,2,234,0,0,0,0,0,0,0,0,1895
20.859037161,0,-1,0,0,0,0,0,0,0,-8,2,234,-8,2,234,0,0,0,0,0,0,0,0,1896
20.869904995,0,-1,0,0,0,0,0,0,0,-8,2,235,-8,1,234,0,0,0,0,0,0,0,0,1897
20.880975008,0,-1,0,0,0,0,0,0,0,-8,2,235,-8,1,234,0,0,0,0,0,0,0,0,1898
20.891858101,0,-1,0,0,0,0,0,0,0,-8,2,235,-8,1,234,0,0,0,0,0,0,0,0,1899
20.902947187,0,-1,0,0,0,0,0,0,0,-8,2,235,-8,1,234,0,0,0,0,0,0,0,0,1900
20.913922071,0,-1,0,0,0,0,0,0,0,-8,2,235,-8,1,234,0,0,0,0,0,0,0,0,1901
20.928399086,0,-1,0,0,0,0,0,0,0,-8,2,233,-8,1,234,0,0,0,0,0,0,0,0,1902
20.93653202,0,-1,0,0,0,0,0,0,0,-8,2,233,-8,1,234,0,0,0,0,0,0,0,0,1903
20.948230982,0,-1,0,0,0,0,0,0,0,-9,2,235,-8,1,234,0,0,0,0,0,0,0,0,1904
20.958088159,0,-1,0,0,0,0,0,0,0,-9,2,235,-8,1,234,0,0,0,0,0,0,0,0,1905
20.969037056,0,-1,0,0,0,0,0,0,0,-9,2,235,-8,1,234,0,0,0,0,0,0,0,0,1906
20.979917049,0,-1,0,0,0,0,0,0,0,-8,2,235,-8,1,234,0,0,0,0,0,0,0,0,1907
20.990869045,0,-1,0,0,0,0,0,0,0,-8,2,235,-8,1,234,0,0,0,0,0,0,0,0,1908
21.001957178,0,-1,0,0,0,0,0,0,0,-8,2,235,-8,2,234,0,0,0,0,0,0,0,0,1909
21.012962103,0,-1,0,0,0,0,0,0,0,-8,2,235,-8,2,234,0,0,0,0,0,0,0,0,1910
21.024051189,0,-1,0,0,0,0,0,0,0,-8,2,235,-8,2,234,0,0,0,0,0,0,0,0,1911
21.03532505,0,-1,0,0,0,0,0,0,0,-8,2,236,-8,2,234,0,0,0,0,0,0,0,0,1912
21.045977115,0,-1,0,0,0,0,0,0,0,-8,2,236,-8,2,234,0,0,0,0,0,0,0,0,1913
21.057030201,0,-1,0,0,0,0,0,0,0,-8,1,235,-8,2,235,0,0,0,0,0,0,0,0,1914
21.067945003,0,-1,0,0,0,0,0,0,0,-8,1,235,-8,2,235,0,0,0,0,0,0,0,0,1915
21.078875065,0,-1,0,0,0,0,0,0,0,-7,1,235,-8,2,235,0,0,0,0,0,0,0,0,1916
21.090056181,0,-1,0,0,0,0,0,0,0,-7,1,235,-8,2,235,0,0,0,0,0,0,0,0,1917
21.100929975,0,-1,0,0,0,0,0,0,0,-7,1,235,-8,2,235,0,0,0,0,0,0,0,0,1918
21.112030029,0,-1,0,0,0,0,0,0,0,-9,2,234,-8,2,235,0,0,0,0,0,0,0,0,1919
21.122931003,0,-1,0,0,0,0,0,0,0,-9,2,234,-8,2,235,0,0,0,0,0,0,0,0,1920
21.135164022,0,-1,0,0,0,0,0,0,0,-9,2,234,-8,2,235,0,0,0,0,0,0,0,0,1921
21.144971132,0,-1,0,0,0,0,0,0,0,-9,2,234,-8,2,235,0,0,0,0,0,0,0,0,1922
21.155984163,0,-1,0,0,0,0,0,0,0,-9,2,234,-8,2,235,0,0,0,0,0,0,0,0,1923
21.166905164,0,-1,0,0,0,0,0,0,0,-8,2,234,-8,2,235,0,0,0,0,0,0,0,0,1924
21.177911043,0,-1,0,0,0,0,0,0,0,-8,2,234,-8,2,235,0,0,0,0,0,0,0,0,1925
21.188933134,0,-1,0,0,0,0,0,0,0,-7,3,234,-8,2,235,0,0,0,0,0,0,0,0,1926
21.200005054,0,-1,0,0,0,0,0,0,0,-7,3,234,-8,2,235,0,0,0,0,0,0,0,0,1927
21.210958004,0,-1,0,0,0,0,0,0,0,-8,2,234,-8,2,235,0,0,0,0,0,0,0,0,1928
21.222005129,0,-1,0,0,0,0,0,0,0,-8,2,234,-8,2,235,0,0,0,0,0,0,0,0,1929
21.232899189,0,-1,0,0,0,0,0,0,0,-8,2,235,-8,2,235,0,0,0,0,0,0,0,0,1930
21.244376182,0,-1,0,0,0,0,0,0,0,-8,2,235,-8,2,235,0,0,0,0,0,0,0,0,1931
21.254973173,0,-1,0,0,0,0,0,0,0,-8,1,234,-8,2,235,0,0,0,0,0,0,0,0,1932
21.266036033,0,-1,0,0,0,0,0,0,0,-8,1,234,-8,2,235,0,0,0,0,0,0,0,0,1933
21.276976108,0,-1,0,0,0,0,0,0,0,-7,1,235,-8,2,235,0,0,0,0,0,0,0,0,1934
21.287863016,0,-1,0,0,0,0,0,0,0,-7,1,235,-8,2,235,0,0,0,0,0,0,0,0,1935
21.298907995,0,-1,0,0,0,0,0,0,0,-8,2,235,-8,2,234,0,0,0,0,0,0,0,0,1936
21.309984207,0,-1,0,0,0,0,0,0,0,-8,2,235,-8,2,234,0,0,0,0,0,0,0,0,1937
21.320990085,0,-1,0,0,0,0,0,0,0,-8,2,234,-8,2,234,0,0,0,0,0,0,0,0,1938
21.332029104,0,-1,0,0,0,0,0,0,0,-8,2,234,-8,2,234,0,0,0,0,0,0,0,0,1939
21.342925071,0,-1,0,0,0,0,0,0,0,-8,2,234,-8,2,234,0,0,0,0,0,0,0,0,1940
21.352931022,0,-1,0,0,0,0,0,0,0,-8,2,234,-8,2,234,0,0,0,0,0,0,0,0,1941
21.363876104,0,-1,0,0,0,0,0,0,0,-8,3,234,-8,2,234,0,0,0,0,0,0,0,0,1942
21.375101089,0,-1,0,0,0,0,0,0,0,-8,3,234,-8,2,234,0,0,0,0,0,0,0,0,1943
21.386013031,0,-1,0,0,0,0,0,0,0,-9,2,234,-8,2,234,0,0,0,0,0,0,0,0,1944
21.396888971,0,-1,0,0,0,0,0,0,0,-9,2,234,-8,2,234,0,0,0,0,0,0,0,0,1945
21.408740997,0,-1,0,0,0,0,0,0,0,-9,2,234,-8,2,234,0,0,0,0,0,0,0,0,1946
21.418994188,0,-1,0,0,0,0,0,0,0,-8,3,234,-8,2,234,0,0,0,0,0,0,0,0,1947
21.429856062,0,-1,0,0,0,0,0,0,0,-8,3,234,-8,2,234,0,0,0,0,0,0,0,0,1948
21.440917015,0,-1,0,0,0,0,0,0,0,-8,2,234,-8,2,234,0,0,0,0,0,0,0,0,1949
21.452025175,0,-1,0,0,0,0,0,0,0,-8,2,234,-8,2,234,0,0,0,0,0,0,0,0,1950
21.462988138,0,-1,0,0,0,0,0,0,0,-7,2,235,-8,2,234,0,0,0,0,0,0,0,0,1951
21.474557161,0,-1,0,0,0,0,0,0,0,-7,2,235,-8,2,234,0,0,0,0,0,0,0,0,1952
21.485193014,0,-1,0,0,0,0,0,0,0,-8,3,235,-8,2,234,0,0,0,0,0,0,0,0,1953
21.496052026,0,-1,0,0,0,0,0,0,0,-8,3,235,-8,2,234,0,0,0,0,0,0,0,0,1954
21.511135101,0,-1,0,0,0,0,0,0,0,-7,3,235,-8,2,234,0,0,0,0,0,0,0,0,1955
21.519811153,0,-1,0,0,0,0,0,0,0,-7,3,235,-8,2,234,0,0,0,0,0,0,0,0,1956
21.53195405,0,-1,0,0,0,0,0,0,0,-8,2,233,-8,2,234,0,0,0,0,0,0,0,0,1957
21.543009042,0,-1,0,0,0,0,0,0,0,-8,2,233,-8,2,234,0,0,0,0,0,0,0,0,1958
21.553943157,0,-1,0,0,0,0,0,0,0,-9,2,234,-8,2,234,0,0,0,0,0,0,0,0,1959
21.565571069,0,-1,0,0,0,0,0,0,0,-9,2,234,-8,2,234,0,0,0,0,0,0,0,0,1960
21.575967073,0,-1,0,0,0,0,0,0,0,-8,2,235,-8,2,234,0,0,0,0,0,0,0,0,1961
21.586891174,0,-1,0,0,0,0,0,0,0,-8,2,235,-8,2,234,0,0,0,0,0,0,0,0,1962
21.597844124,0,-1,0,0,0,0,0,0,0,-8,2,234,-8,2,234,0,0,0,0,0,0,0,0,1963
21.60901618,0,-1,0,0,0,0,0,0,0,-8,2,234,-8,2,234,0,0,0,0,0,0,0,0,1964
21.619880199,0,-1,0,0,0,0,0,0,0,-8,2,235,-8,2,234,0,0,0,0,0,0,0,0,1965
21.632506132,0,-1,0,0,0,0,0,0,0,-8,2,235,-8,2,234,0,0,0,0,0,0,0,0,1966
21.642161131,0,-1,0,0,0,0,0,0,0,-8,2,236,-8,2,235,0,0,0,0,0,0,0,0,1967
21.652979135,0,-1,0,0,0,0,0,0,0,-8,2,236,-8,2,235,0,0,0,0,0,0,0,0,1968
21.664177179,0,-1,0,0,0,0,0,0,0,-8,3,236,-8,2,235,0,0,0,0,0,0,0,0,1969
21.675113201,0,-1,0,0,0,0,0,0,0,-8,3,236,-8,2,235,0,0,0,0,0,0,0,0,1970
21.686161995,0,-1,0,0,0,0,0,0,0,-8,2,236,-8,2,235,0,0,0,0,0,0,0,0,1971
21.696886062,0,-1,0,0,0,0,0,0,0,-8,2,236,-8,2,235,0,0,0,0,0,0,0,0,1972
21.708093166,0,-1,0,0,0,0,0,0,0,-8,2,236,-8,2,235,0,0,0,0,0,0,0,0,1973
21.718938112,0,-1,0,0,0,0,0,0,0,-8,2,235,-8,2,235,0,0,0,0,0,0,0,0,1974
21.730282068,0,-1,0,0,0,0,0,0,0,-8,2,235,-8,2,235,0,0,0,0,0,0,0,0,1975
21.743933201,0,-1,0,0,0,0,0,0,0,-8,1,235,-8,2,235,0,0,0,0,0,0,0,0,1976
21.754866123,0,-1,0,0,0,0,0,0,0,-8,1,235,-8,2,235,0,0,0,0,0,0,0,0,1977
21.765942096,0,-1,0,0,0,0,0,0,0,-9,2,236,-8,2,235,0,0,0,0,0,0,0,0,1978
21.777178049,0,-1,0,0,0,0,0,0,0,-9,2,236,-8,2,235,0,0,0,0,0,0,0,0,1979
21.788028002,0,-1,0,0,0,0,0,0,0,-9,2,235,-8,2,235,0,0,0,0,0,0,0,0,1980
21.799013138,0,-1,0,0,0,0,0,0,0,-9,2,235,-8,2,235,0,0,0,0,0,0,0,0,1981
21.80997014,0,-1,0,0,0,0,0,0,0,-8,2,235,-8,2,235,0,0,0,0,0,0,0,0,1982
21.82095313,0,-1,0,0,0,0,0,0,0,-8,2,235,-8,2,235,0,0,0,0,0,0,0,0,1983
21.830964088,0,-1,0,0,0,0,0,0,0,-8,3,234,-8,2,236,0,0,0,0,0,0,0,0,1984
21.844202995,0,-1,0,0,0,0,0,0,0,-8,3,234,-8,2,236,0,0,0,0,0,0,0,0,1985
21.853178024,0,-1,0,0,0,0,0,0,0,-8,3,234,-8,2,236,0,0,0,0,0,0,0,0,1986
21.864046097,0,-1,0,0,0,0,0,0,0,-8,3,234,-8,2,236,0,0,0,0,0,0,0,0,1987
21.876799106,0,-1,0,0,0,0,0,0,0,-8,3,234,-8,2,236,0,0,0,0,0,0,0,0,1988
21.885847091,0,-1,0,0,0,0,0,0,0,-8,3,234,-8,2,236,0,0,0,0,0,0,0,0,1989
21.89705801,0,-1,0,0,0,0,0,0,0,-8,2,235,-8,2,236,0,0,0,0,0,0,0,0,1990
21.908343076,0,-1,0,0,0,0,0,0,0,-8,2,235,-8,2,236,0,0,0,0,0,0,0,0,1991
21.919054985,0,-1,0,0,0,0,0,0,0,-8,2,235,-8,2,236,0,0,0,0,0,0,0,0,1992
21.929969072,0,-1,0,0,0,0,0,0,0,-8,3,235,-8,2,235,0,0,0,0,0,0,0,0,1993
21.940949201,0,-1,0,0,0,0,0,0,0,-8,3,235,-8,2,235,0,0,0,0,0,0,0,0,1994
21.951917171,0,-1,0,0,0,0,0,0,0,-8,3,235,-8,2,235,0,0,0,0,0,0,0,0,1995
21.962926149,0,-1,0,0,0,0,0,0,0,-8,2,235,-8,2,235,0,0,0,0,0,0,0,0,1996
21.974011183,0,-1,0,0,0,0,0,0,0,-8,2,235,-8,2,235,0,0,0,0,0,0,0,0,1997
21.985115051,0,-1,0,0,0,0,0,0,0,-8,2,235,-8,2,235,0,0,0,0,0,0,0,0,1998
21.996283054,0,-1,0,0,0,0,0,0,0,-8,2,235,-8,2,235,0,0,0,0,0,0,0,0,1999
22.006856203,0,-1,0,0,0,0,0,0,0,-8,2,236,-8,2,235,0,0,0,0,0,0,0,0,2000
22.017956018,0,-1,0,0,0,0,0,0,0,-8,2,236,-8,2,235,0,0,0,0,0,0,0,0,2001
22.028985977,0,-1,0,0,0,0,0,0,0,-8,2,236,-8,2,235,0,0,0,0,0,0,0,0,2002
22.040282011,0,-1,0,0,0,0,0,0,0,-8,2,236,-8,2,235,0,0,0,0,0,0,0,0,2003
22.050901174,0,-1,0,0,0,0,0,0,0,-8,2,236,-8,2,235,0,0,0,0,0,0,0,0,2004
22.062205076,0,-1,0,0,0,0,0,0,0,-7,2,236,-8,3,235,0,0,0,0,0,0,0,0,2005
22.073079109,0,-1,0,0,0,0,0,0,0,-7,2,236,-8,3,235,0,0,0,0,0,0,0,0,2006
22.083968162,0,-1,0,0,0,0,0,0,0,-7,2,236,-8,3,235,0,0,0,0,0,0,0,0,2007
22.094865083,0,-1,0,0,0,0,0,0,0,-8,2,235,-8,3,235,0,0,0,0,0,0,0,0,2008
22.106070995,0,-1,0,0,0,0,0,0,0,-8,2,235,-8,3,235,0,0,0,0,0,0,0,0,2009
22.116866112,0,-1,0,0,0,0,0,0,0,-8,1,236,-8,2,235,0,0,0,0,0,0,0,0,2010
22.127938032,0,-1,0,0,0,0,0,0,0,-8,1,236,-8,2,235,0,0,0,0,0,0,0,0,2011
22.138902187,0,-1,0,0,0,0,0,0,0,-8,1,235,-8,2,235,0,0,0,0,0,0,0,0,2012
22.149934053,0,-1,0,0,0,0,0,0,0,-8,1,235,-8,2,235,0,0,0,0,0,0,0,0,2013
22.160915136,0,-1,0,0,0,0,0,0,0,-8,1,235,-8,2,236,0,0,0,0,0,0,0,0,2014
22.172042131,0,-1,0,0,0,0,0,0,0,-8,1,235,-8,2,236,0,0,0,0,0,0,0,0,2015
22.184448004,0,-1,0,0,0,0,0,0,0,-8,1,235,-8,2,236,0,0,0,0,0,0,0,0,2016
22.193968057,0,-1,0,0,0,0,0,0,0,-7,2,234,-8,2,236,0,0,0,0,0,0,0,0,2017
22.205062151,0,-1,0,0,0,0,0,0,0,-7,2,234,-8,2,236,0,0,0,0,0,0,0,0,2018
22.215945005,0,-1,0,0,0,0,0,0,0,-7,2,234,-8,2,236,0,0,0,0,0,0,0,0,2019
22.226958036,0,-1,0,0,0,0,0,0,0,-8,2,234,-8,2,236,0,0,0,0,0,0,0,0,2020
22.238284111,0,-1,0,0,0,0,0,0,0,-8,2,234,-8,2,236,0,0,0,0,0,0,0,0,2021
22.248866081,0,-1,0,0,0,0,0,0,0,-7,1,234,-8,2,236,0,0,0,0,0,0,0,0,2022
22.259988069,0,-1,0,0,0,0,0,0,0,-7,1,234,-8,2,236,0,0,0,0,0,0,0,0,2023
22.271427154,0,-1,0,0,0,0,0,0,0,-8,1,235,-8,1,236,0,0,0,0,0,0,0,0,2024
22.281910181,0,-1,0,0,0,0,0,0,0,-8,1,235,-8,1,236,0,0,0,0,0,0,0,0,2025
22.292886972,0,-1,0,0,0,0,0,0,0,-8,2,235,-8,1,235,0,0,0,0,0,0,0,0,2026
22.303992986,0,-1,0,0,0,0,0,0,0,-8,2,235,-8,1,235,0,0,0,0,0,0,0,0,2027
22.315039158,0,-1,0,0,0,0,0,0,0,-8,2,235,-8,1,235,0,0,0,0,0,0,0,0,2028
22.326020002,0,-1,0,0,0,0,0,0,0,-8,1,235,-8,1,235,0,0,0,0,0,0,0,0,2029
22.336808204,0,-1,0,0,0,0,0,0,0,-8,1,235,-8,1,235,0,0,0,0,0,0,0,0,2030
22.347952127,0,-1,0,0,0,0,0,0,0,-8,1,235,-8,1,235,0,0,0,0,0,0,0,0,2031
22.358874082,0,-1,0,0,0,0,0,0,0,-7,2,235,-8,1,235,0,0,0,0,0,0,0,0,2032
22.369917154,0,-1,0,0,0,0,0,0,0,-7,2,235,-8,1,235,0,0,0,0,0,0,0,0,2033
22.380871057,0,-1,0,0,0,0,0,0,0,-8,1,235,-8,1,235,0,0,0,0,0,0,0,0,2034
22.391995191,0,-1,0,0,0,0,0,0,0,-8,1,235,-8,1,235,0,0,0,0,0,0,0,0,2035
22.4029181,0,-1,0,0,0,0,0,0,0,-9,1,234,-8,1,234,0,0,0,0,0,0,0,0,2036
22.414111137,0,-1,0,0,0,0,0,0,0,-9,1,234,-8,1,234,0,0,0,0,0,0,0,0,2037
22.424949169,0,-1,0,0,0,0,0,0,0,-8,2,234,-8,1,234,0,0,0,0,0,0,0,0,2038
22.435949087,0,-1,0,0,0,0,0,0,0,-8,2,234,-8,1,234,0,0,0,0,0,0,0,0,2039
22.448234081,0,-1,0,0,0,0,0,0,0,-8,2,235,-8,2,234,0,0,0,0,0,0,0,0,2040
22.45792818,0,-1,0,0,0,0,0,0,0,-8,2,235,-8,2,234,0,0,0,0,0,0,0,0,2041
22.46897316,0,-1,0,0,0,0,0,0,0,-8,2,235,-8,2,235,0,0,0,0,0,0,0,0,2042
22.47996211,0,-1,0,0,0,0,0,0,0,-8,2,235,-8,2,235,0,0,0,0,0,0,0,0,2043
22.490912199,0,-1,0,0,0,0,0,0,0,-8,3,234,-8,2,235,0,0,0,0,0,0,0,0,2044
22.501972198,0,-1,0,0,0,0,0,0,0,-8,3,234,-8,2,235,0,0,0,0,0,0,0,0,2045
22.513005018,0,-1,0,0,0,0,0,0,0,-8,3,233,-8,2,235,0,0,0,0,0,0,0,0,2046
22.524032116,0,-1,0,0,0,0,0,0,0,-8,3,233,-8,2,235,0,0,0,0,0,0,0,0,2047
22.534837007,0,-1,0,0,0,0,0,0,0,-8,2,234,-8,2,235,0,0,0,0,0,0,0,0,2048
22.547109127,0,-1,0,0,0,0,0,0,0,-8,2,234,-8,2,235,0,0,0,0,0,0,0,0,2049
22.557174206,0,-1,0,0,0,0,0,0,0,-8,3,235,-8,2,235,0,0,0,0,0,0,0,0,2050
22.567991018,0,-1,0,0,0,0,0,0,0,-8,3,235,-8,2,235,0,0,0,0,0,0,0,0,2051
22.580273151,0,-1,0,0,0,0,0,0,0,-7,3,235,-8,2,235,0,0,0,0,0,0,0,0,2052
22.589905023,0,-1,0,0,0,0,0,0,0,-7,3,235,-8,2,235,0,0,0,0,0,0,0,0,2053
22.601598024,0,-1,0,0,0,0,0,0,0,-7,3,236,-8,2,235,0,0,0,0,0,0,0,0,2054
22.612030983,0,-1,0,0,0,0,0,0,0,-7,3,236,-8,2,235,0,0,0,0,0,0,0,0,2055
22.624152183,0,-1,0,0,0,0,0,0,0,-8,1,235,-8,2,234,0,0,0,0,0,0,0,0,2056
22.63393116,0,-1,0,0,0,0,0,0,0,-8,1,235,-8,2,234,0,0,0,0,0,0,0,0,2057
22.648339987,0,-1,0,0,0,0,0,0,0,-8,1,233,-8,2,234,0,0,0,0,0,0,0,0,2058
22.656083107,0,-1,0,0,0,0,0,0,0,-8,1,233,-8,2,234,0,0,0,0,0,0,0,0,2059
22.666886091,0,-1,0,0,0,0,0,0,0,-8,2,234,-8,3,234,0,0,0,0,0,0,0,0,2060
22.678166151,0,-1,0,0,0,0,0,0,0,-8,2,234,-8,3,234,0,0,0,0,0,0,0,0,2061
22.688857078,0,-1,0,0,0,0,0,0,0,-8,2,235,-8,3,234,0,0,0,0,0,0,0,0,2062
22.700077057,0,-1,0,0,0,0,0,0,0,-8,2,235,-8,3,234,0,0,0,0,0,0,0,0,2063
22.711325168,0,-1,0,0,0,0,0,0,0,-8,2,235,-8,3,235,0,0,0,0,0,0,0,0,2064
22.721901178,0,-1,0,0,0,0,0,0,0,-8,2,235,-8,3,235,0,0,0,0,0,0,0,0,2065
22.732916116,0,-1,0,0,0,0,0,0,0,-8,2,235,-8,2,235,0,0,0,0,0,0,0,0,2066
22.743906975,0,-1,0,0,0,0,0,0,0,-8,2,235,-8,2,235,0,0,0,0,0,0,0,0,2067
22.754983186,0,-1,0,0,0,0,0,0,0,-9,2,235,-8,2,235,0,0,0,0,0,0,0,0,2068
22.765891075,0,-1,0,0,0,0,0,0,0,-9,2,235,-8,2,235,0,0,0,0,0,0,0,0,2069
22.776878118,0,-1,0,0,0,0,0,0,0,-9,2,235,-8,2,235,0,0,0,0,0,0,0,0,2070
22.78798604,0,-1,0,0,0,0,0,0,0,-9,2,235,-8,2,235,0,0,0,0,0,0,0,0,2071
22.798948049,0,-1,0,0,0,0,0,0,0,-9,2,235,-8,2,235,0,0,0,0,0,0,0,0,2072
22.812085151,0,-1,0,0,0,0,0,0,0,-8,3,235,-8,2,235,0,0,0,0,0,0,0,0,2073
22.819989204,0,-1,0,0,0,0,0,0,0,-8,3,235,-8,2,235,0,0,0,0,0,0,0,0,2074
22.831084013,0,-1,0,0,0,0,0,0,0,-8,3,235,-8,2,235,0,0,0,0,0,0,0,0,2075
22.843550205,0,-1,0,0,0,0,0,0,0,-8,3,235,-8,2,235,0,0,0,0,0,0,0,0,2076
22.856161117,0,-1,0,0,0,0,0,0,0,-8,3,234,-8,2,235,0,0,0,0,0,0,0,0,2077
22.864052057,0,-1,0,0,0,0,0,0,0,-8,3,234,-8,2,235,0,0,0,0,0,0,0,0,2078
22.874860048,0,-1,0,0,0,0,0,0,0,-8,3,234,-8,2,235,0,0,0,0,0,0,0,0,2079
22.885889053,0,-1,0,0,0,0,0,0,0,-8,2,235,-8,2,235,0,0,0,0,0,0,0,0,2080
22.89699316,0,-1,0,0,0,0,0,0,0,-8,2,235,-8,2,235,0,0,0,0,0,0,0,0,2081
22.908012151,0,-1,0,0,0,0,0,0,0,-8,2,235,-8,2,235,0,0,0,0,0,0,0,0,2082
22.918976068,0,-1,0,0,0,0,0,0,0,-8,2,235,-8,2,235,0,0,0,0,0,0,0,0,2083
22.929975986,0,-1,0,0,0,0,0,0,0,-8,2,235,-8,2,235,0,0,0,0,0,0,0,0,2084
22.940916061,0,-1,0,0,0,0,0,0,0,-9,1,236,-8,2,235,0,0,0,0,0,0,0,0,2085
22.951987982,0,-1,0,0,0,0,0,0,0,-9,1,236,-8,2,235,0,0,0,0,0,0,0,0,2086
22.963049173,0,-1,0,0,0,0,0,0,0,-8,2,235,-8,3,235,0,0,0,0,0,0,0,0,2087
22.974011183,0,-1,0,0,0,0,0,0,0,-8,2,235,-8,3,235,0,0,0,0,0,0,0,0,2088
22.984927177,0,-1,0,0,0,0,0,0,0,-8,2,235,-8,3,235,0,0,0,0,0,0,0,0,2089
22.996303081,0,-1,0,0,0,0,0,0,0,-8,2,235,-8,3,235,0,0,0,0,0,0,0,0,2090
23.006998062,0,-1,0,0,0,0,0,0,0,-8,2,235,-8,3,235,0,0,0,0,0,0,0,0,2091
23.017996073,0,-1,0,0,0,0,0,0,0,-8,2,235,-8,3,235,0,0,0,0,0,0,0,0,2092
23.028969049,0,-1,0,0,0,0,0,0,0,-8,2,235,-8,3,235,0,0,0,0,0,0,0,0,2093
23.044751167,0,-1,0,0,0,0,0,0,0,-8,2,234,-8,3,235,0,0,0,0,0,0,0,0,2094
23.050935983,0,-1,0,0,0,0,0,0,0,-8,2,234,-8,3,235,0,0,0,0,0,0,0,0,2095
23.061887026,0,-1,0,0,0,0,0,0,0,-8,2,234,-8,3,235,0,0,0,0,0,0,0,0,2096
23.072970152,0,-1,0,0,0,0,0,0,0,-8,2,234,-8,2,235,0,0,0,0,0,0,0,0,2097
23.083992004,0,-1,0,0,0,0,0,0,0,-8,2,234,-8,2,235,0,0,0,0,0,0,0,0,2098
23.095013141,0,-1,0,0,0,0,0,0,0,-8,2,233,-8,2,235,0,0,0,0,0,0,0,0,2099
23.105961084,0,-1,0,0,0,0,0,0,0,-8,2,233,-8,2,235,0,0,0,0,0,0,0,0,2100
23.117024183,0,-1,0,0,0,0,0,0,0,-8,2,235,-8,2,235,0,0,0,0,0,0,0,0,2101
23.128121137,0,-1,0,0,0,0,0,0,0,-8,2,235,-8,2,235,0,0,0,0,0,0,0,0,2102
23.138972044,0,-1,0,0,0,0,0,0,0,-8,2,235,-8,2,235,0,0,0,0,0,0,0,0,2103
23.149964094,0,-1,0,0,0,0,0,0,0,-8,2,235,-8,2,235,0,0,0,0,0,0,0,0,2104
23.161040067,0,-1,0,0,0,0,0,0,0,-8,2,235,-8,2,235,0,0,0,0,0,0,0,0,2105
23.17199111,0,-1,0,0,0,0,0,0,0,-7,3,236,-8,2,235,0,0,0,0,0,0,0,0,2106
23.182955026,0,-1,0,0,0,0,0,0,0,-7,3,236,-8,2,235,0,0,0,0,0,0,0,0,2107
23.193943977,0,-1,0,0,0,0,0,0,0,-7,3,236,-8,2,235,0,0,0,0,0,0,0,0,2108
23.2049582,0,-1,0,0,0,0,0,0,0,-7,3,235,-8,2,235,0,0,0,0,0,0,0,0,2109
23.216055155,0,-1,0,0,0,0,0,0,0,-7,3,235,-8,2,235,0,0,0,0,0,0,0,0,2110
23.226875067,0,-1,0,0,0,0,0,0,0,-7,3,235,-8,2,235,0,0,0,0,0,0,0,0,2111
23.238386154,0,-1,0,0,0,0,0,0,0,-8,2,235,-8,2,235,0,0,0,0,0,0,0,0,2112
23.248902082,0,-1,0,0,0,0,0,0,0,-8,2,235,-8,2,235,0,0,0,0,0,0,0,0,2113
23.259878158,0,-1,0,0,0,0,0,0,0,-9,2,235,-8,2,235,0,0,0,0,0,0,0,0,2114
23.270956993,0,-1,0,0,0,0,0,0,0,-9,2,235,-8,2,235,0,0,0,0,0,0,0,0,2115
23.282013178,0,-1,0,0,0,0,0,0,0,-9,2,235,-8,2,235,0,0,0,0,0,0,0,0,2116
23.292895078,0,-1,0,0,0,0,0,0,0,-8,2,234,-8,2,235,0,0,0,0,0,0,0,0,2117
23.304195165,0,-1,0,0,0,0,0,0,0,-8,2,234,-8,2,235,0,0,0,0,0,0,0,0,2118
23.316353082,0,-1,0,0,0,0,0,0,0,-8,2,234,-8,2,235,0,0,0,0,0,0,0,0,2119
23.325998068,0,-1,0,0,0,0,0,0,0,-8,3,235,-8,2,235,0,0,0,0,0,0,0,0,2120
23.336897135,0,-1,0,0,0,0,0,0,0,-8,3,235,-8,2,235,0,0,0,0,0,0,0,0,2121
23.348008156,0,-1,0,0,0,0,0,0,0,-8,3,235,-8,2,235,0,0,0,0,0,0,0,0,2122
23.358988046,0,-1,0,0,0,0,0,0,0,-7,2,236,-8,2,235,0,0,0,0,0,0,0,0,2123
23.370338201,0,-1,0,0,0,0,0,0,0,-7,2,236,-8,2,235,0,0,0,0,0,0,0,0,2124
23.380911112,0,-1,0,0,0,0,0,0,0,-7,2,236,-8,2,235,0,0,0,0,0,0,0,0,2125
23.392084121,0,-1,0,0,0,0,0,0,0,-7,2,236,-8,2,235,0,0,0,0,0,0,0,0,2126
23.402981043,0,-1,0,0,0,0,0,0,0,-8,2,236,-8,2,235,0,0,0,0,0,0,0,0,2127
23.414077997,0,-1,0,0,0,0,0,0,0,-8,2,236,-8,2,235,0,0,0,0,0,0,0,0,2128
23.425111055,0,-1,0,0,0,0,0,0,0,-8,2,236,-8,2,235,0,0,0,0,0,0,0,0,2129
23.436022997,0,-1,0,0,0,0,0,0,0,-9,2,236,-8,2,235,0,0,0,0,0,0,0,0,2130
23.446890115,0,-1,0,0,0,0,0,0,0,-9,2,236,-8,2,235,0,0,0,0,0,0,0,0,2131
23.457879066,0,-1,0,0,0,0,0,0,0,-9,2,234,-8,2,235,0,0,0,0,0,0,0,0,2132
23.468904972,0,-1,0,0,0,0,0,0,0,-9,2,234,-8,2,235,0,0,0,0,0,0,0,0,2133
23.479950189,0,-1,0,0,0,0,0,0,0,-9,2,234,-8,2,235,0,0,0,0,0,0,0,0,2134
23.490984201,0,-1,0,0,0,0,0,0,0,-8,3,235,-8,2,235,0,0,0,0,0,0,0,0,2135
23.501996994,0,-1,0,0,0,0,0,0,0,-8,3,235,-8,2,235,0,0,0,0,0,0,0,0,2136
23.513256073,0,-1,0,0,0,0,0,0,0,-9,2,235,-8,2,236,0,0,0,0,0,0,0,0,2137
23.523886204,0,-1,0,0,0,0,0,0,0,-9,2,235,-8,2,236,0,0,0,0,0,0,0,0,2138
23.534972191,0,-1,0,0,0,0,0,0,0,-8,1,234,-8,2,236,0,0,0,0,0,0,0,0,2139
23.545886993,0,-1,0,0,0,0,0,0,0,-8,1,234,-8,2,236,0,0,0,0,0,0,0,0,2140
23.556934118,0,-1,0,0,0,0,0,0,0,-8,1,234,-8,2,236,0,0,0,0,0,0,0,0,2141
23.567973137,0,-1,0,0,0,0,0,0,0,-8,1,235,-8,2,236,0,0,0,0,0,0,0,0,2142
23.57896018,0,-1,0,0,0,0,0,0,0,-8,1,235,-8,2,236,0,0,0,0,0,0,0,0,2143
23.590016126,0,-1,0,0,0,0,0,0,0,-8,1,234,-8,2,236,0,0,0,0,0,0,0,0,2144
23.600910187,0,-1,0,0,0,0,0,0,0,-8,1,234,-8,2,236,0,0,0,0,0,0,0,0,2145
23.61196804,0,-1,0,0,0,0,0,0,0,-7,2,235,-8,2,235,0,0,0,0,0,0,0,0,2146
23.622819185,0,-1,0,0,0,0,0,0,0,-7,2,235,-8,2,235,0,0,0,0,0,0,0,0,2147
23.633954048,0,-1,0,0,0,0,0,0,0,-7,2,235,-8,2,235,0,0,0,0,0,0,0,0,2148
23.6448071,0,-1,0,0,0,0,0,0,0,-7,3,233,-8,2,235,0,0,0,0,0,0,0,0,2149
23.655838012,0,-1,0,0,0,0,0,0,0,-7,3,233,-8,2,235,0,0,0,0,0,0,0,0,2150
23.666836023,0,-1,0,0,0,0,0,0,0,-7,3,233,-8,2,235,0,0,0,0,0,0,0,0,2151
23.677966118,0,-1,0,0,0,0,0,0,0,-8,2,235,-8,2,235,0,0,0,0,0,0,0,0,2152
23.689014196,0,-1,0,0,0,0,0,0,0,-8,2,235,-8,2,235,0,0,0,0,0,0,0,0,2153
23.699923992,0,-1,0,0,0,0,0,0,0,-8,2,235,-8,2,235,0,0,0,0,0,0,0,0,2154
23.71087408,0,-1,0,0,0,0,0,0,0,-8,2,235,-8,2,235,0,0,0,0,0,0,0,0,2155
23.721887111,0,-1,0,0,0,0,0,0,0,-10,3,235,-8,2,235,0,0,0,0,0,0,0,0,2156
23.733021974,0,-1,0,0,0,0,0,0,0,-10,3,235,-8,2,235,0,0,0,0,0,0,0,0,2157
23.744214058,0,-1,0,0,0,0,0,0,0,-9,3,235,-8,2,234,0,0,0,0,0,0,0,0,2158
23.754883051,0,-1,0,0,0,0,0,0,0,-9,3,235,-8,2,234,0,0,0,0,0,0,0,0,2159
23.765977144,0,-1,0,0,0,0,0,0,0,-7,3,235,-8,2,234,0,0,0,0,0,0,0,0,2160
23.776882171,0,-1,0,0,0,0,0,0,0,-7,3,235,-8,2,234,0,0,0,0,0,0,0,0,2161
23.787981987,0,-1,0,0,0,0,0,0,0,-8,2,235,-7,2,234,0,0,0,0,0,0,0,0,2162
23.798941135,0,-1,0,0,0,0,0,0,0,-8,2,235,-7,2,234,0,0,0,0,0,0,0,0,2163
23.811451196,0,-1,0,0,0,0,0,0,0,-8,2,234,-8,2,235,0,0,0,0,0,0,0,0,2164
23.820260048,0,-1,0,0,0,0,0,0,0,-8,2,234,-8,2,235,0,0,0,0,0,0,0,0,2165
23.830922127,0,-1,0,0,0,0,0,0,0,-7,1,234,-8,2,235,0,0,0,0,0,0,0,0,2166
23.842024088,0,-1,0,0,0,0,0,0,0,-7,1,234,-8,2,235,0,0,0,0,0,0,0,0,2167
23.853022098,0,-1,0,0,0,0,0,0,0,-7,2,234,-8,2,235,0,0,0,0,0,0,0,0,2168
23.863960027,0,-1,0,0,0,0,0,0,0,-7,2,234,-8,2,235,0,0,0,0,0,0,0,0,2169
23.874900102,0,-1,0,0,0,0,0,0,0,-7,2,235,-8,2,235,0,0,0,0,0,0,0,0,2170
23.886175155,0,-1,0,0,0,0,0,0,0,-7,2,235,-8,2,235,0,0,0,0,0,0,0,0,2171
23.897024154,0,-1,0,0,0,0,0,0,0,-7,2,233,-8,2,235,0,0,0,0,0,0,0,0,2172
23.907925129,0,-1,0,0,0,0,0,0,0,-7,2,233,-8,2,235,0,0,0,0,0,0,0,0,2173
23.918914079,0,-1,0,0,0,0,0,0,0,-8,2,235,-8,2,235,0,0,0,0,0,0,0,0,2174
23.930036068,0,-1,0,0,0,0,0,0,0,-8,2,235,-8,2,235,0,0,0,0,0,0,0,0,2175
23.940977096,0,-1,0,0,0,0,0,0,0,-8,3,236,-8,2,235,0,0,0,0,0,0,0,0,2176
23.951943159,0,-1,0,0,0,0,0,0,0,-8,3,236,-8,2,235,0,0,0,0,0,0,0,0,2177
23.962970972,0,-1,0,0,0,0,0,0,0,-8,2,234,-8,2,235,0,0,0,0,0,0,0,0,2178
23.973940134,0,-1,0,0,0,0,0,0,0,-8,2,234,-8,2,235,0,0,0,0,0,0,0,0,2179
23.985154152,0,-1,0,0,0,0,0,0,0,-8,2,235,-8,2,235,0,0,0,0,0,0,0,0,2180
23.996045112,0,-1,0,0,0,0,0,0,0,-8,2,235,-8,2,235,0,0,0,0,0,0,0,0,2181
24.008222103,0,-1,0,0,0,0,0,0,0,-9,3,234,-7,2,234,0,0,0,0,0,0,0,0,2182
24.017898082,0,-1,0,0,0,0,0,0,0,-9,3,234,-7,2,234,0,0,0,0,0,0,0,0,2183
24.028889179,0,-1,0,0,0,0,0,0,0,-8,2,234,-7,2,234,0,0,0,0,0,0,0,0,2184
24.04000616,0,-1,0,0,0,0,0,0,0,-8,2,234,-7,2,234,0,0,0,0,0,0,0,0,2185
24.051077127,0,-1,0,0,0,0,0,0,0,-9,2,236,-7,2,234,0,0,0,0,0,0,0,0,2186
24.062017202,0,-1,0,0,0,0,0,0,0,-9,2,236,-7,2,234,0,0,0,0,0,0,0,0,2187
24.07319498,0,-1,0,0,0,0,0,0,0,-8,2,235,-7,2,234,0,0,0,0,0,0,0,0,2188
24.084128141,0,-1,0,0,0,0,0,0,0,-8,2,235,-7,2,234,0,0,0,0,0,0,0,0,2189
24.095005989,0,-1,0,0,0,0,0,0,0,-7,2,236,-8,2,234,0,0,0,0,0,0,0,0,2190
24.105854988,0,-1,0,0,0,0,0,0,0,-7,2,236,-8,2,234,0,0,0,0,0,0,0,0,2191
24.116886139,0,-1,0,0,0,0,0,0,0,-7,2,235,-8,2,235,0,0,0,0,0,0,0,0,2192
24.127952099,0,-1,0,0,0,0,0,0,0,-7,2,235,-8,2,235,0,0,0,0,0,0,0,0,2193
24.138964176,0,-1,0,0,0,0,0,0,0,-9,2,235,-8,2,235,0,0,0,0,0,0,0,0,2194
24.149905205,0,-1,0,0,0,0,0,0,0,-9,2,235,-8,2,235,0,0,0,0,0,0,0,0,2195
24.160938024,0,-1,0,0,0,0,0,0,0,-10,1,235,-8,2,235,0,0,0,0,0,0,0,0,2196
24.172151088,0,-1,0,0,0,0,0,0,0,-10,1,235,-8,2,235,0,0,0,0,0,0,0,0,2197
24.183007002,0,-1,0,0,0,0,0,0,0,-8,2,236,-8,2,235,0,0,0,0,0,0,0,0,2198
24.193940162,0,-1,0,0,0,0,0,0,0,-8,2,236,-8,2,235,0,0,0,0,0,0,0,0,2199
24.205191135,0,-1,0,0,0,0,0,0,0,-8,2,236,-8,2,235,0,0,0,0,0,0,0,0,2200
24.215915203,0,-1,0,0,0,0,0,0,0,-8,2,235,-8,2,235,0,0,0,0,0,0,0,0,2201
24.227045059,0,-1,0,0,0,0,0,0,0,-8,2,235,-8,2,235,0,0,0,0,0,0,0,0,2202
24.238116026,0,-1,0,0,0,0,0,0,0,-7,2,236,-8,2,235,0,0,0,0,0,0,0,0,2203
24.249572992,0,-1,0,0,0,0,0,0,0,-7,2,236,-8,2,235,0,0,0,0,0,0,0,0,2204
24.260197162,0,-1,0,0,0,0,0,0,0,-7,3,234,-8,2,235,0,0,0,0,0,0,0,0,2205
24.270861149,0,-1,0,0,0,0,0,0,0,-7,3,234,-8,2,235,0,0,0,0,0,0,0,0,2206
24.281980991,0,-1,0,0,0,0,0,0,0,-8,2,234,-8,2,235,0,0,0,0,0,0,0,0,2207
24.29629302,0,-1,0,0,0,0,0,0,0,-8,2,234,-8,2,235,0,0,0,0,0,0,0,0,2208
24.304047107,0,-1,0,0,0,0,0,0,0,-7,2,233,-8,2,235,0,0,0,0,0,0,0,0,2209
24.314956188,0,-1,0,0,0,0,0,0,0,-7,2,233,-8,2,235,0,0,0,0,0,0,0,0,2210
24.329205036,0,-1,0,0,0,0,0,0,0,-8,2,233,-8,2,235,0,0,0,0,0,0,0,0,2211
24.340393066,0,-1,0,0,0,0,0,0,0,-8,2,233,-8,2,235,0,0,0,0,0,0,0,0,2212
24.351078987,0,-1,0,0,0,0,0,0,0,-8,2,234,-8,2,235,0,0,0,0,0,0,0,0,2213
24.361872196,0,-1,0,0,0,0,0,0,0,-8,2,234,-8,2,235,0,0,0,0,0,0,0,0,2214
24.372948169,0,-1,0,0,0,0,0,0,0,-8,2,234,-8,2,235,0,0,0,0,0,0,0,0,2215
24.384208202,0,-1,0,0,0,0,0,0,0,-8,2,236,-8,2,235,0,0,0,0,0,0,0,0,2216
24.394922018,0,-1,0,0,0,0,0,0,0,-8,2,236,-8,2,235,0,0,0,0,0,0,0,0,2217
24.405948162,0,-1,0,0,0,0,0,0,0,-8,2,236,-8,2,235,0,0,0,0,0,0,0,0,2218
24.417009115,0,-1,0,0,0,0,0,0,0,-8,2,237,-8,2,235,0,0,0,0,0,0,0,0,2219
24.427973032,0,-1,0,0,0,0,0,0,0,-8,2,237,-8,2,235,0,0,0,0,0,0,0,0,2220
24.438971042,0,-1,0,0,0,0,0,0,0,-7,3,235,-8,2,235,0,0,0,0,0,0,0,0,2221
24.450001001,0,-1,0,0,0,0,0,0,0,-7,3,235,-8,2,235,0,0,0,0,0,0,0,0,2222
24.460946083,0,-1,0,0,0,0,0,0,0,-8,3,234,-8,2,234,0,0,0,0,0,0,0,0,2223
24.472043991,0,-1,0,0,0,0,0,0,0,-8,3,234,-8,2,234,0,0,0,0,0,0,0,0,2224
24.48488307,0,-1,0,0,0,0,0,0,0,-8,3,235,-8,2,234,0,0,0,0,0,0,0,0,2225
24.493841171,0,-1,0,0,0,0,0,0,0,-8,3,235,-8,2,234,0,0,0,0,0,0,0,0,2226
24.504979133,0,-1,0,0,0,0,0,0,0,-8,3,235,-8,2,234,0,0,0,0,0,0,0,0,2227
24.516010999,0,-1,0,0,0,0,0,0,0,-8,3,236,-8,2,234,0,0,0,0,0,0,0,0,2228
24.526977062,0,-1,0,0,0,0,0,0,0,-8,3,236,-8,2,234,0,0,0,0,0,0,0,0,2229
24.544355154,0,-1,0,0,0,0,0,0,0,-8,3,236,-8,2,234,0,0,0,0,0,0,0,0,2230
24.54885602,0,-1,0,0,0,0,0,0,0,-8,2,235,-8,2,235,0,0,0,0,0,0,0,0,2231
24.559830188,0,-1,0,0,0,0,0,0,0,-8,2,235,-8,2,235,0,0,0,0,0,0,0,0,2232
24.571111202,0,-1,0,0,0,0,0,0,0,-9,1,234,-8,2,235,0,0,0,0,0,0,0,0,2233
24.581851005,0,-1,0,0,0,0,0,0,0,-9,1,234,-8,2,235,0,0,0,0,0,0,0,0,2234
24.59289813,0,-1,0,0,0,0,0,0,0,-8,2,234,-8,3,235,0,0,0,0,0,0,0,0,2235
24.60388112,0,-1,0,0,0,0,0,0,0,-8,2,234,-8,3,235,0,0,0,0,0,0,0,0,2236
24.614927053,0,-1,0,0,0,0,0,0,0,-8,2,235,-8,3,235,0,0,0,0,0,0,0,0,2237
24.625866174,0,-1,0,0,0,0,0,0,0,-8,2,235,-8,3,235,0,0,0,0,0,0,0,0,2238
24.636915207,0,-1,0,0,0,0,0,0,0,-8,2,235,-8,3,235,0,0,0,0,0,0,0,0,2239
24.647929191,0,-1,0,0,0,0,0,0,0,-7,3,234,-8,3,235,0,0,0,0,0,0,0,0,2240
24.65883708,0,-1,0,0,0,0,0,0,0,-7,3,234,-8,3,235,0,0,0,0,0,0,0,0,2241
24.669924021,0,-1,0,0,0,0,0,0,0,-7,3,234,-8,3,235,0,0,0,0,0,0,0,0,2242
24.680860996,0,-1,0,0,0,0,0,0,0,-8,2,235,-8,3,235,0,0,0,0,0,0,0,0,2243
24.691964149,0,-1,0,0,0,0,0,0,0,-8,2,235,-8,3,235,0,0,0,0,0,0,0,0,2244
24.703011036,0,-1,0,0,0,0,0,0,0,-8,2,236,-8,3,235,0,0,0,0,0,0,0,0,2245
24.713919162,0,-1,0,0,0,0,0,0,0,-8,2,236,-8,3,235,0,0,0,0,0,0,0,0,2246
24.724923134,0,-1,0,0,0,0,0,0,0,-8,2,235,-8,2,235,0,0,0,0,0,0,0,0,2247
24.736025095,0,-1,0,0,0,0,0,0,0,-8,2,235,-8,2,235,0,0,0,0,0,0,0,0,2248
24.74687314,0,-1,0,0,0,0,0,0,0,-8,2,235,-8,2,235,0,0,0,0,0,0,0,0,2249
24.758419037,0,-1,0,0,0,0,0,0,0,-8,2,235,-8,2,235,0,0,0,0,0,0,0,0,2250
24.769032001,0,-1,0,0,0,0,0,0,0,-8,1,235,-8,2,235,0,0,0,0,0,0,0,0,2251
24.779971122,0,-1,0,0,0,0,0,0,0,-8,1,235,-8,2,235,0,0,0,0,0,0,0,0,2252
24.790941,0,-1,0,0,0,0,0,0,0,-7,2,236,-8,2,235,0,0,0,0,0,0,0,0,2253
24.802028179,0,-1,0,0,0,0,0,0,0,-7,2,236,-8,2,235,0,0,0,0,0,0,0,0,2254
24.812923193,0,-1,0,0,0,0,0,0,0,-8,1,234,-8,2,235,0,0,0,0,0,0,0,0,2255
24.824036121,0,-1,0,0,0,0,0,0,0,-8,1,234,-8,2,235,0,0,0,0,0,0,0,0,2256
24.837827205,0,-1,0,0,0,0,0,0,0,-9,1,235,-8,2,235,0,0,0,0,0,0,0,0,2257
24.845965147,0,-1,0,0,0,0,0,0,0,-9,1,235,-8,2,235,0,0,0,0,0,0,0,0,2258
24.855955124,0,-1,0,0,0,0,0,0,0,-9,2,236,-8,2,235,0,0,0,0,0,0,0,0,2259
24.866877079,0,-1,0,0,0,0,0,0,0,-9,2,236,-8,2,235,0,0,0,0,0,0,0,0,2260
24.878020048,0,-1,0,0,0,0,0,0,0,-8,3,235,-8,2,235,0,0,0,0,0,0,0,0,2261
24.888944149,0,-1,0,0,0,0,0,0,0,-8,3,235,-8,2,235,0,0,0,0,0,0,0,0,2262
24.900088072,0,-1,0,0,0,0,0,0,0,-8,3,235,-8,2,235,0,0,0,0,0,0,0,0,2263
24.91115117,0,-1,0,0,0,0,0,0,0,-8,2,236,-8,2,235,0,0,0,0,0,0,0,0,2264
24.92189312,0,-1,0,0,0,0,0,0,0,-8,2,236,-8,2,235,0,0,0,0,0,0,0,0,2265
24.933147192,0,-1,0,0,0,0,0,0,0,-8,2,236,-8,2,235,0,0,0,0,0,0,0,0,2266
24.944099188,0,-1,0,0,0,0,0,0,0,-8,2,236,-8,2,235,0,0,0,0,0,0,0,0,2267
24.954964161,0,-1,0,0,0,0,0,0,0,-8,2,236,-8,2,235,0,0,0,0,0,0,0,0,2268
24.965965032,0,-1,0,0,0,0,0,0,0,-7,2,235,-8,2,235,0,0,0,0,0,0,0,0,2269
24.97687912,0,-1,0,0,0,0,0,0,0,-7,2,235,-8,2,235,0,0,0,0,0,0,0,0,2270
24.987881183,0,-1,0,0,0,0,0,0,0,-7,2,236,-8,2,235,0,0,0,0,0,0,0,0,2271
24.999006986,0,-1,0,0,0,0,0,0,0,-7,2,236,-8,2,235,0,0,0,0,0,0,0,0,2272
25.009937048,0,-1,0,0,0,0,0,0,0,-7,2,235,-8,2,235,0,0,0,0,0,0,0,0,2273
25.020950079,0,-1,0,0,0,0,0,0,0,-7,2,235,-8,2,235,0,0,0,0,0,0,0,0,2274
25.03194499,0,-1,0,0,0,0,0,0,0,-7,2,235,-8,2,235,0,0,0,0,0,0,0,0,2275
25.042957067,0,-1,0,0,0,0,0,0,0,-7,3,236,-8,2,235,0,0,0,0,0,0,0,0,2276
25.053910017,0,-1,0,0,0,0,0,0,0,-7,3,236,-8,2,235,0,0,0,0,0,0,0,0,2277
25.06501913,0,-1,0,0,0,0,0,0,0,-8,2,235,-8,2,236,0,0,0,0,0,0,0,0,2278
25.0759902,0,-1,0,0,0,0,0,0,0,-8,2,235,-8,2,236,0,0,0,0,0,0,0,0,2279
25.086969137,0,-1,0,0,0,0,0,0,0,-9,2,235,-8,2,236,0,0,0,0,0,0,0,0,2280
25.097938061,0,-1,0,0,0,0,0,0,0,-9,2,235,-8,2,236,0,0,0,0,0,0,0,0,2281
25.108880996,0,-1,0,0,0,0,0,0,0,-9,2,235,-8,2,236,0,0,0,0,0,0,0,0,2282
25.119848013,0,-1,0,0,0,0,0,0,0,-9,2,235,-8,2,236,0,0,0,0,0,0,0,0,2283
25.130933046,0,-1,0,0,0,0,0,0,0,-8,2,234,-7,2,235,0,0,0,0,0,0,0,0,2284
25.141904115,0,-1,0,0,0,0,0,0,0,-8,2,234,-7,2,235,0,0,0,0,0,0,0,0,2285
25.15292716,0,-1,0,0,0,0,0,0,0,-8,2,234,-7,2,235,0,0,0,0,0,0,0,0,2286
25.163951158,0,-1,0,0,0,0,0,0,0,-9,2,235,-7,2,235,0,0,0,0,0,0,0,0,2287
25.174966097,0,-1,0,0,0,0,0,0,0,-9,2,235,-7,2,235,0,0,0,0,0,0,0,0,2288
25.185939073,0,-1,0,0,0,0,0,0,0,-8,3,236,-7,2,235,0,0,0,0,0,0,0,0,2289
25.19692707,0,-1,0,0,0,0,0,0,0,-8,3,236,-7,2,235,0,0,0,0,0,0,0,0,2290
25.208346128,0,-1,0,0,0,0,0,0,0,-8,3,236,-7,2,235,0,0,0,0,0,0,0,0,2291
25.219115972,0,-1,0,0,0,0,0,0,0,-9,3,236,-8,2,235,0,0,0,0,0,0,0,0,2292
25.229937076,0,-1,0,0,0,0,0,0,0,-9,3,236,-8,2,235,0,0,0,0,0,0,0,0,2293
25.244109153,0,-1,0,0,0,0,0,0,0,-8,2,235,-8,2,235,0,0,0,0,0,0,0,0,2294
25.251935005,0,-1,0,0,0,0,0,0,0,-8,2,235,-8,2,235,0,0,0,0,0,0,0,0,2295
25.263029098,0,-1,0,0,0,0,0,0,0,-8,2,233,-8,2,235,0,0,0,0,0,0,0,0,2296
25.274093151,0,-1,0,0,0,0,0,0,0,-8,2,233,-8,2,235,0,0,0,0,0,0,0,0,2297
25.285099029,0,-1,0,0,0,0,0,0,0,-8,3,235,-8,2,235,0,0,0,0,0,0,0,0,2298
25.296000004,0,-1,0,0,0,0,0,0,0,-8,3,235,-8,2,235,0,0,0,0,0,0,0,0,2299
25.306915045,0,-1,0,0,0,0,0,0,0,-8,3,235,-8,2,235,0,0,0,0,0,0,0,0,2300
25.317923069,0,-1,0,0,0,0,0,0,0,-8,3,235,-8,2,235,0,0,0,0,0,0,0,0,2301
25.328989982,0,-1,0,0,0,0,0,0,0,-8,3,235,-8,2,235,0,0,0,0,0,0,0,0,2302
25.342478037,0,-1,0,0,0,0,0,0,0,-8,2,235,-8,2,235,0,0,0,0,0,0,0,0,2303
25.350852012,0,-1,0,0,0,0,0,0,0,-8,2,235,-8,2,235,0,0,0,0,0,0,0,0,2304
25.364179134,0,-1,0,0,0,0,0,0,0,-7,1,234,-8,2,235,0,0,0,0,0,0,0,0,2305
25.373001098,0,-1,0,0,0,0,0,0,0,-7,1,234,-8,2,235,0,0,0,0,0,0,0,0,2306
25.384173155,0,-1,0,0,0,0,0,0,0,-7,1,234,-8,2,235,0,0,0,0,0,0,0,0,2307
25.394978046,0,-1,0,0,0,0,0,0,0,-8,2,235,-8,2,235,0,0,0,0,0,0,0,0,2308
25.408642053,0,-1,0,0,0,0,0,0,0,-8,2,235,-8,2,235,0,0,0,0,0,0,0,0,2309
25.416887045,0,-1,0,0,0,0,0,0,0,-8,2,235,-8,2,235,0,0,0,0,0,0,0,0,2310
25.427968979,0,-1,0,0,0,0,0,0,0,-8,2,235,-8,2,235,0,0,0,0,0,0,0,0,2311
25.439429998,0,-1,0,0,0,0,0,0,0,-8,2,235,-8,2,235,0,0,0,0,0,0,0,0,2312
25.449838161,0,-1,0,0,0,0,0,0,0,-8,2,235,-8,2,235,0,0,0,0,0,0,0,0,2313
25.46442008,0,-1,0,0,0,0,0,0,0,-8,2,235,-8,2,235,0,0,0,0,0,0,0,0,2314
25.47213006,0,-1,0,0,0,0,0,0,0,-8,2,234,-8,2,235,0,0,0,0,0,0,0,0,2315
25.482954979,0,-1,0,0,0,0,0,0,0,-8,2,234,-8,2,235,0,0,0,0,0,0,0,0,2316
25.494018078,0,-1,0,0,0,0,0,0,0,-8,2,234,-8,2,235,0,0,0,0,0,0,0,0,2317
25.509870052,0,-1,0,0,0,0,0,0,0,-8,2,234,-8,2,235,0,0,0,0,0,0,0,0,2318
25.515973091,0,-1,0,0,0,0,0,0,0,-7,2,235,-8,2,235,0,0,0,0,0,0,0,0,2319
25.52694416,0,-1,0,0,0,0,0,0,0,-7,2,235,-8,2,235,0,0,0,0,0,0,0,0,2320
25.543295145,0,-1,0,0,0,0,0,0,0,-7,1,233,-8,2,235,0,0,0,0,0,0,0,0,2321
25.549928188,0,-1,0,0,0,0,0,0,0,-7,1,233,-8,2,235,0,0,0,0,0,0,0,0,2322
